acc_x_mean,acc_x_std,acc_x_var,acc_x_rms,acc_x_min,acc_x_max,acc_x_range,acc_x_dom_freq,acc_x_spec_eng,acc_y_mean,acc_y_std,acc_y_var,acc_y_rms,acc_y_min,acc_y_max,acc_y_range,acc_y_dom_freq,acc_y_spec_eng,acc_z_mean,acc_z_std,acc_z_var,acc_z_rms,acc_z_min,acc_z_max,acc_z_range,acc_z_dom_freq,acc_z_spec_eng,gyr_x_mean,gyr_x_std,gyr_x_var,gyr_x_rms,gyr_x_min,gyr_x_max,gyr_x_range,gyr_x_dom_freq,gyr_x_spec_eng,gyr_y_mean,gyr_y_std,gyr_y_var,gyr_y_rms,gyr_y_min,gyr_y_max,gyr_y_range,gyr_y_dom_freq,gyr_y_spec_eng,gyr_z_mean,gyr_z_std,gyr_z_var,gyr_z_rms,gyr_z_min,gyr_z_max,gyr_z_range,gyr_z_dom_freq,gyr_z_spec_eng,acc_sma,gyr_sma,corr_acc_xy,corr_acc_xz,corr_acc_yz,corr_gyr_xy,corr_gyr_xz,corr_gyr_yz,acc_mag_mean,acc_mag_std,acc_mag_dom_freq,gyr_mag_mean,gyr_mag_std,activity,session,window_id,time_start,time_end
-0.23754824105761313,1.4991746098300056,0.7730117397010781,1.3793807788139651,-1.6633456407113212,1.203994581475898,1.4548860912094292,-0.41952607082950055,0.7730117397010782,0.029766517158731225,1.355404704593237,0.9765816767073991,1.245383167372493,-3.097886859934015,1.3144121227409256,2.212956556679705,-0.41291320836757084,0.9765816767073989,0.35368398894510994,1.2853506870492222,0.6784404074859416,1.2808476265380335,-1.7444514044800035,1.8576364173474307,1.8389793293391135,-0.34765123433923617,0.6784404074859413,-3.6909199446769767,1.8008860458117806,1.4860524180849448,1.859983395786797,-1.4202075876807894,1.8560338837970862,1.6793134392125915,-0.7678273325267634,1.4860524180849446,-0.5547496543204871,0.900718185033834,0.27901861156691266,0.8764569781938477,-1.7125513161071522,0.4239710257718238,1.0893428059117503,-0.3285410373535707,0.27901861156691293,-3.0548046632218533,1.2541313977412047,0.7728090577893267,1.4618488590502563,-3.111677714927923,-0.3588566630571826,1.4689454757653035,-0.31321100482289327,0.7728090577893266,1.0824124934999424,1.0941680632663053,-0.826649952636552,2.324510571121357,0.583107761947128,-1.1067154987021373,-0.23157600397105219,-0.6295775474928877,1.0730529067713102,1.637756031097533,-0.513972243009004,1.2098575634102584,1.888002949369574,jumping,Jumping_1-2026-03-04_16-14-35,0,0.243889892578125,2.15514501953125
-0.7755959687816626,1.9111816849753445,1.2357988416065093,1.7863025799977585,-1.5804305467076472,1.203994581475898,1.420337057201028,-0.41952607082950055,1.2357988416065089,-0.2717937355639206,1.3844213563135785,1.0161589219083322,1.2742762076929215,-3.097886859934015,1.2981469155197654,2.203701628103056,-0.5860043799247507,1.0161589219083322,1.9763133112064866,2.132050758716745,1.915096757525142,2.1306920417440676,-2.284327738222229,1.8576364173474307,2.0030500883302262,-0.34765123433923617,1.9150967575251425,-0.8878200248786404,0.7858018005613547,0.2452744318023214,0.776974858656074,-0.45986978890194175,1.3372616749452986,0.917382278734743,-0.7678273325267634,0.24527443180232125,-1.2003124512551324,0.9930327089989762,0.3631841165263094,0.9874531291221146,-0.9934768052425631,0.4483241641225205,0.7381412515691321,-0.711367685009969,0.36318411652630933,-1.9516855345614756,1.1739790539619437,0.6770481695767683,1.220442901585574,-1.8134710351911092,0.7086687747873244,1.3291087646091342,-0.31321100482289327,0.6770481695767684,2.0566621309326707,0.917958904203672,-0.3208341938757734,2.2843538442975815,0.38028429978392353,-0.39449609888917614,0.21082495506641294,1.0409083431696096,2.1416759517078976,1.9167544297674075,0.7803583528388411,0.9006258163502504,1.149400338200984,jumping,Jumping_1-2026-03-04_16-14-35,1,1.209170166015625,3.120426025390625
-1.213955534946937,1.8296794432523524,1.1379030198483704,1.7383494084990452,-1.7904729905641694,1.2673817629625765,1.5479644598466469,-0.2652516819367402,1.1379030198483706,-0.814724236324515,1.812356692930643,1.6591293533466558,1.696983484325252,-3.999647721576775,1.2981469155197654,2.630162762170031,-0.23982203681039096,1.6591293533466556,0.33508468418246495,2.2277764979397343,2.0838256680472425,2.2217765927629376,-2.5507175266086985,1.7114196091708422,1.9809872738485421,-0.1323173956862967,2.083825668047244,-1.0544787868421355,1.7251095298919485,1.3723485836017155,1.7068473431865085,-1.7766484120665502,1.3372616749452986,1.6011603938874115,-0.6141710794612538,1.3723485836017157,-2.8099687820067083,1.8896651184852622,1.4344463755164467,1.9301846320692468,-2.634163616368674,1.9380131165836387,2.350355178009848,-0.711367685009969,1.434446375516447,-1.4226036399266855,1.6449288864082072,1.2937204045063764,1.6065099766617505,-1.8134710351911092,0.7086687747873244,1.3291087646091342,-0.31321100482289327,1.293720404506377,2.1332257836889923,1.8806330839670158,-0.6844625903977557,1.6901789447273148,-0.35952055948199824,-0.30873685333287904,0.6675497168602651,-0.014340768065670138,2.255190581862909,1.987246143347223,0.5646365868642004,1.8207102728604112,1.684548737336138,jumping,Jumping_1-2026-03-04_16-14-35,2,2.174450439453125,4.085708251953125
0.3923586868840579,2.34775273184796,1.813487345191283,2.1849714390483594,-1.7904729905641694,2.5512776360839005,2.3603242016780634,-0.2652516819367402,1.8134873451912825,-0.2881290383315573,2.2309607899050654,2.3955208341531913,2.0767397260507843,-3.999647721576775,1.2616670551382931,2.609405664044811,-0.5860043799247507,2.395520834153191,-2.037890906925176,2.0820530793470806,1.829304696523966,2.080810748333598,-2.6216378921222394,1.6032047651200891,1.9262954589401784,-0.1323173956862967,1.8293046965239663,0.47013265664483583,1.7742006601912133,1.445622623538692,1.7500753498363202,-1.7766484120665502,1.0680988217107985,1.464576280446461,-0.7678273325267634,1.4456226235386918,1.6673883905061617,2.5489428261098044,2.5157034178536546,2.508425101651122,-2.7740512563139728,2.442393401750302,2.6858427445791575,-1.0941943326663672,2.5157034178536555,1.1556289891626603,1.2376241230651788,0.752778904020078,1.1993175823790807,-1.2088134700076296,1.6825042827900283,1.5096156755484877,-0.20042172276698966,0.752778904020078,2.2331568844140643,1.9003280452844402,-0.8239111665409703,1.9207054616390546,-0.1882342531094622,0.2874347746310772,1.261393794440609,0.718775544242852,2.2602149235362123,1.7095041554407875,-0.29825047703436314,1.8829596450013213,2.394314668050493,jumping,Jumping_1-2026-03-04_16-14-35,3,3.139731689453125,5.05099169921875
1.1226299865463776,1.881623509718211,1.1999334040268672,1.7810873891639802,-1.1664538462909038,2.5512776360839005,2.1003081105615875,-0.2652516819367402,1.199933404026867,0.0519746621057727,2.0344242505828176,2.036548961498832,1.889322197700815,-3.208196399823948,1.2616670551382931,2.2351121649694106,-0.5860043799247507,2.0365489614988315,-1.5286680234174463,1.8993982641832414,1.5295041085100567,1.8965362688435898,-2.6216378921222394,1.4926317570793186,1.8483891482264405,-0.1323173956862967,1.5295041085100571,1.9221580328038148,1.4408387535860678,0.9761070654750454,1.4463644443336274,-1.5860434070810372,1.7387127096517898,1.705895321889843,-0.6141710794612538,0.976107065475045,1.3041540966581495,2.93498299085612,3.2643251984014228,2.876233211499765,-3.4787254358428497,2.442393401750302,3.0425347230428708,-0.5199543611817699,3.2643251984014237,-0.6536943926983707,1.8756282691080797,1.643306933973866,1.785613865122899,-1.9166894854078638,1.6825042827900283,1.8858595086083332,-0.4260002868787969,1.6433069339738662,1.9615480509631864,2.0524456635558765,-0.827737973829351,1.7753692920674158,-0.23767998252792366,1.1095166898772468,1.504547851519043,2.3060575656566833,2.0343317325010295,1.5710751783407007,1.211801884788123,2.0254080772903458,2.755686265073346,jumping,Jumping_1-2026-03-04_16-14-35,4,4.10501416015625,6.016275634765625
0.5710550938834301,0.6320143899951057,0.06039650774600308,0.5781214007159599,-0.15994895903723194,0.9186909599812444,0.647931029559773,-0.41952607082950055,0.06039650774600306,0.04130152529789633,1.29017702353472,0.8894782534577446,1.183634478273343,-3.208196399823948,1.1368101541149938,2.164068391252893,-0.23982203681039096,0.8894782534577443,3.2232184172344978,1.7420649782506754,1.288410219439601,1.7508643997968893,-1.8880458063498529,1.4926317570793186,1.6254473321474687,-0.34765123433923617,1.2884102194396014,-1.3251015633481884,2.067070117724447,1.912422589371365,2.0485142343715634,-1.6643612778208483,1.7387127096517898,1.746564303824359,-0.6141710794612538,1.9124225893713642,-0.17668945571147987,2.2595581484958,2.010459064356411,2.202278688239081,-3.4787254358428497,2.1169635266435063,2.8717617275024665,0.24569893413102672,2.010459064356411,0.6473896632748841,1.936733653332681,1.7411347501373515,1.8449921442105408,-1.9166894854078638,1.030370256014973,1.5497669152692155,-0.4260002868787969,1.7411347501373524,1.4818431758572972,2.152890216343146,-0.5113529406048907,1.166284127292475,-0.955136142047013,1.2902292004425173,0.5170367970329962,2.0738940482515713,1.6882053936173858,1.6116458044090918,-0.29825047703436314,2.054263390276136,2.159509204308982,jumping,Jumping_1-2026-03-04_16-14-35,5,5.070283935546875,6.9815595703125
0.8188551259031716,0.8590918549689606,0.21274907230443488,0.808654633944673,-1.3991757990381384,1.989685454982131,1.841942262426191,0.5061202625270617,0.2127490723044347,-0.8128002052231593,1.0523342277929266,0.593724046567409,0.9834084322722139,-2.455466347526189,1.3594097562160505,1.9347464964377128,0.6256338209755083,0.5937240465674088,2.9392866485268896,1.2812634734668256,0.6735853537954196,1.2913123565399436,-1.8118471122020265,1.3346752866233744,1.4909989903978111,-0.34765123433923617,0.6735853537954197,1.1039291088104415,1.9315133236840398,1.6900454434515284,1.9121595582455466,-1.6643612778208483,1.5719040232358914,1.6619188325991168,-0.6141710794612538,1.6900454434515277,-1.8955070921870067,1.4995904488897398,0.9118482644431639,1.5069494864131645,-1.3106550483079973,0.9187901900061594,1.1455728863218975,-0.9027810088381681,0.9118482644431636,0.9668048783546026,1.7523603524284606,1.452628568766422,1.6803785419124488,-1.7939345370735487,1.180139563609587,1.5617084512662631,-0.4260002868787969,1.452628568766422,1.0553794332429396,1.8772011908456103,0.7221110000451729,0.9113084567417585,-0.4287230713032414,1.1372682026913534,0.4106680756993057,1.419915917857888,1.1362257077506748,1.4378665102207195,-0.513972243009004,1.8773411555761672,1.0151441039071205,jumping,Jumping_1-2026-03-04_16-14-35,6,6.035581298828125,7.94684375
-2.863689172283535,1.5067145852921537,0.7807622831090222,1.677437819361811,-3.2438170247332536,0.4985129057678662,1.6670567971354622,-0.41952607082950055,0.7807622831090222,0.5732780342508854,0.9115293130346981,0.43480000354314957,0.8441294698503822,-1.6833271970136723,0.8334914762566034,1.2703377864430239,-0.06673086525321109,0.43480000354314935,-1.673217005023761,1.5409023652250984,1.0032680481737744,1.539712087857461,-1.9015170251827536,1.7096487352408172,1.7824447233893441,-0.34765123433923617,1.0032680481737746,3.644988768343533,1.007427047392104,0.4640977564635413,1.1099410474512161,-0.13503923604428547,1.1559689580963577,0.656708691838181,-0.6141710794612538,0.4640977564635411,0.04500074797060951,1.8560101597439898,1.3859244766143315,1.8060778744502555,-2.2382519511463,0.6566785731837876,1.4775578638708804,-0.9027810088381681,1.385924476614331,-0.07341226635108604,0.2901666452484618,-0.12885052581803202,0.23263852815677255,-0.25347408605041444,0.42692795221303625,0.3547515963211089,0.13794612340072113,-0.1288505258180321,1.3719335210391705,1.2126736835889675,0.23424341089091746,1.543489500307656,1.1976499648981456,1.0500533568872306,-2.363430986951901,-0.6297500346401143,1.4471634905821362,1.627646483077597,-0.513972243009004,1.3399758664102275,1.2066737477228213,jumping,Jumping_10-2026-03-04_16-22-19,0,0.2329775390625,2.144021240234375
-3.127772338215335,1.9478675752203802,1.2808856864934581,2.0961288314935795,-3.2438170247332536,1.6487799759266686,2.394865554616439,-0.41952607082950055,1.2808856864934588,-0.1424606564949955,1.248555889077994,0.8352467789407056,1.1439896728653502,-2.7014494953854222,0.8488672613256157,1.7605774671229728,-0.06673086525321109,0.8352467789407052,-1.3644215632522254,2.1496722570060305,1.9457157725706102,2.1456525669522883,-1.9015170251827536,1.858348532124006,1.8872139865605149,-0.34765123433923617,1.9457157725706105,-3.5220090430187154,2.4793717662800545,2.655687093292592,2.5088989361722214,-3.7294061532059843,1.2674964823800332,2.579788699782645,-0.6141710794612538,2.655687093292592,-3.4876268603385343,2.333175307283227,2.1344431540035442,2.392160406965114,-3.0158622519362153,0.6566785731837876,1.871168648429437,-0.9027810088381681,2.134443154003544,-1.1503501530781655,1.1482121682474413,0.6470644785242702,1.1129969062313656,-2.619681122102415,0.56427245001526,1.6832001918764656,-0.08763244071108607,0.6470644785242706,2.0559135222110525,1.889996962654396,0.507700981906871,2.085842135906574,0.40040244373005734,2.2065891930074493,1.6344614944892109,1.4694286909211631,2.17136680787039,1.9351757502655234,0.5646365868642004,1.8738969247527522,3.0909529502137643,jumping,Jumping_10-2026-03-04_16-22-19,1,1.198137451171875,3.10918310546875
-1.8473052789267448,1.6079020456419866,0.8873684741815333,1.6011939621300402,-1.410307249365156,1.6487799759266686,1.630879306453691,-0.41952607082950055,0.8873684741815336,-0.5953865171384655,1.3243609136291223,0.9348048218607224,1.2270379055605343,-2.7014494953854222,0.8488672613256157,1.7605774671229728,-0.5860043799247507,0.9348048218607229,-0.4645416249165788,2.4312465286068403,2.4619802763348373,2.4249831927817254,-2.4858409564966033,2.2110878338883313,2.3133217307711234,-0.34765123433923617,2.461980276334838,-3.6387858493729146,2.630428713562925,2.953202599601625,2.659857036082224,-3.7294061532059843,1.2674964823800332,2.579788699782645,-0.6141710794612538,2.953202599601624,-0.2317628508485862,2.8276540869327778,3.047628142399939,2.7594050205003215,-3.0158622519362153,3.0779194780413164,3.1417421079552024,-1.0941943326663672,3.0476281423999394,-0.04888582592221574,1.4678930813406477,1.0466356787994746,1.3781584454218856,-2.619681122102415,0.7657556359696915,1.7870392858377604,-0.31321100482289327,1.0466356787994746,2.2055088349793497,2.175936269389699,0.759848961553053,1.8108620870448495,0.5629299074527102,2.1359994612734643,2.1544504438053984,1.3157471629550967,2.369017889834955,2.2398170811796345,0.5646365868642004,2.1728388687289524,3.305724394402117,jumping,Jumping_10-2026-03-04_16-22-19,2,2.16332470703125,4.074373779296875
-1.2445951750140973,1.4083161451774637,0.6817229105597373,1.3519642208575693,-1.4565700355377282,0.649308267976159,1.0177600969227654,-0.41952607082950055,0.6817229105597371,0.2654196851673809,1.1222565965704872,0.6771116229080837,1.0287435840118593,-1.84097892095034,0.9198321818695,1.394022505197594,-0.5860043799247507,0.6771116229080838,0.7809642477374736,2.637415335614798,2.872220250907816,2.631302214345452,-2.5494911667741103,2.26364886184285,2.369698175177066,-0.34765123433923617,2.8722202509078167,0.12098912023079425,2.806569161005195,3.317189425565107,2.771539056495038,-2.1040738468925126,3.014520389033209,2.622295079556057,-0.4605148263957443,3.3171894255651058,1.1499197083819703,2.5858056059242833,2.5835050689908954,2.5320480522271565,-1.7331231137386847,3.0779194780413164,2.4924452068506167,-0.711367685009969,2.583505068990895,2.432265410535462,2.467754663597275,2.683558296112182,2.4746148116893156,-1.3393830684242267,3.4538779206713786,2.491933867834545,-0.20042172276698966,2.683558296112181,2.2274103510555534,2.733713496670418,1.001118539824882,0.25281391068419506,0.6661152560617093,1.773185737895403,2.1211473544312667,0.5558345762264413,2.449357325900818,2.595359519944756,1.211801884788123,2.66344028934448,2.4684662988009856,jumping,Jumping_10-2026-03-04_16-22-19,3,3.128500244140625,5.039552490234375
-0.8549889321104475,0.9892419760773853,0.3110277662000128,0.9304289211255854,-1.4565700355377282,0.6456407949489495,1.0154395758400747,0.19757148474154093,0.3110277662000129,0.010810694040856895,1.0551884688986304,0.5970698994335071,0.9606122713477514,-1.6657400843559502,0.9198321818695,1.3111484793161885,-0.7590955514819305,0.5970698994335071,5.962869991877836,2.3960903178584805,2.3947448806598692,2.4271555164966014,-2.5494911667741103,2.26364886184285,2.369698175177066,-0.34765123433923617,2.3947448806598697,2.1354423471939645,2.8990803376609606,3.5157201680067534,2.8841088508894934,-2.1040738468925126,3.014520389033209,2.622295079556057,-0.6141710794612538,3.5157201680067516,-1.3639721750018787,2.1518810270640407,1.8346990551762743,2.116789167956958,-1.7331231137386847,1.951542630066358,1.9013662582048678,-0.711367685009969,1.8346990551762754,-0.24970722179945065,2.956323459498043,3.6968281036608555,2.8272203995223752,-1.4891636922171139,3.4538779206713786,2.5715439051686504,-0.31321100482289327,3.6968281036608555,2.000788635975934,2.7795025734734207,0.3713122609460272,-1.395540351220273,0.7408069760555615,1.2604346323772917,1.2033050433437593,0.3795693307998108,2.2416110766235557,2.388972617629631,-0.29825047703436314,2.676498817953045,2.2035796042538087,jumping,Jumping_10-2026-03-04_16-22-19,4,4.093663818359375,6.004718505859375
-1.459269978202925,0.9801820106900401,0.30392786908610986,0.9894258366179302,-0.829684572969971,1.6491540952562977,1.3891823578649187,-0.2652516819367402,0.3039278690861099,-1.363113746582552,1.0171806685636873,0.5529207718116648,1.0020301509167697,-1.6657400843559502,0.6327385567333019,1.147791753556796,-0.41291320836757084,0.552920771811665,-1.6254973910934016,1.8796349210499073,1.4983477694828506,1.8772030956577574,-1.8493587791037556,1.3136879545213127,1.4876119256135354,-0.34765123433923617,1.4983477694828509,0.6095221979247747,2.140852698523176,2.038035065896152,2.1140807624015965,-1.6747408056940691,1.7713018723471448,1.768491254063543,-0.7678273325267634,2.038035065896152,1.7532841255459752,1.1464038858317998,0.5138008536459857,1.1554051330324324,-0.6865843879992546,1.6773447436223416,1.227740850688856,-0.5199543611817699,0.5138008536459856,-1.7852602250417169,1.6062208196719159,1.2381251201914112,1.6020679714927428,-1.4891636922171139,1.9346942241104619,1.7885968921740574,-0.31321100482289327,1.2381251201914114,1.7150734299561272,1.7325686133128746,0.22321213927081632,-0.06751227037569868,0.8089482439188449,-0.8866287650091172,-0.44117439269522896,-0.7357682593457423,1.8741640644111546,1.601069528099437,-0.08252871105972226,1.7865924975790106,1.058501132851326,jumping,Jumping_10-2026-03-04_16-22-19,5,5.058856201171875,6.969911865234375
-0.9327691406606793,1.2072175600589197,0.49350888244683977,1.138700467801639,-1.3343323860588672,1.6491540952562977,1.5994588420946902,-0.41952607082950055,0.49350888244683977,-1.4242938850556417,0.845180782242061,0.3640807707889051,0.8542881585337593,-1.3072503851860047,0.509441657994921,0.9080985210705723,-0.41291320836757084,0.3640807707889051,-1.5991436503328806,2.0864818153005737,1.8368393714567883,2.0833972378003116,-1.821132577526002,1.6566301530792797,1.720660293178324,-0.34765123433923617,1.8368393714567877,-1.3120148091776145,2.276039474746752,2.276552408264347,2.254723604824411,-2.118463504604556,2.214998215665698,2.224057481516016,-0.6141710794612538,2.276552408264347,0.7716952213974559,0.8466672791125124,0.23200320206104225,0.8261218271430677,-1.0037626310646888,0.5098383323760957,0.7756279841585373,-0.13712771352537156,0.2320032020610421,-0.29141204411099153,2.0495286885833206,1.9274724832559957,1.9459296133317852,-1.5568904901460345,1.915553382391198,1.8147297424168498,-0.31321100482289327,1.927472483255996,1.8678295640538114,1.752935304125159,0.656582689757359,1.048782308138206,0.7926352933109874,-0.8877986575602993,1.2541978133381484,-1.582286357460839,2.0531144589034827,1.8188064078246078,0.5646365868642004,1.7348350843110978,1.436548448227892,jumping,Jumping_10-2026-03-04_16-22-19,6,6.024035400390625,7.935091552734375
-0.7535047441715017,0.8085297568285409,0.17672214714593665,0.7547168256882125,-1.3343323860588672,0.6833309446758876,0.9883533298128809,-0.2652516819367402,0.17672214714593673,-1.6429124961976844,0.8576987097918469,0.3772190090810358,0.8964601931367664,-0.9048190988111082,0.8290856493401149,0.8996584797409379,-0.06673086525321109,0.37721900908103584,-0.38095600274537406,2.2209086499390045,2.071524601195254,2.214899090309678,-1.9083725427029528,1.6566301530792797,1.7471728969105982,-0.34765123433923617,2.071524601195254,-1.7556570461082062,2.016186530613491,1.8276735282462506,2.0059826960649447,-2.186165957480628,2.214998215665698,2.259214078687647,-0.6141710794612538,1.8276735282462495,1.6491332971888193,1.578530271922504,1.0105776628914482,1.5661660827708457,-1.0037626310646888,2.2033719968889254,1.6643288658537554,-0.13712771352537156,1.0105776628914485,1.3183703833892135,2.289361882071567,2.3484967541237607,2.2163730444069563,-1.5568904901460345,1.915553382391198,1.8147297424168498,-0.31321100482289327,2.3484967541237594,1.9361648460646885,1.9214902138070427,0.6425245593914782,0.632986349554806,1.5157166165239715,-1.5154949887854248,1.2498149892993315,-1.8252858097119007,2.1820526707078765,1.8860096962940136,0.7803583528388411,1.8878756963247116,1.8362812328058697,jumping,Jumping_10-2026-03-04_16-22-19,7,6.989201904296875,8.900258056640626
-0.9790660541926455,1.1435908590835684,0.4379284427204919,1.0837223227866926,-0.9118995104117655,1.3108116095080065,1.209360129212817,-0.5738004597222609,0.437928442720492,0.7141838819501527,0.6879007469126767,0.20710395203728638,0.6459838461413506,-1.950233436389448,0.5716882839159299,1.2475967702379345,-0.41291320836757084,0.20710395203728604,-0.4212134504905537,1.8813627313371182,1.5010616243399908,1.8759117078774852,-1.5966404122001656,2.9494593872822485,2.5633235163992683,-0.34765123433923617,1.501061624339991,0.04529875258983315,1.18019177507037,0.6548569325798141,1.1599245325301346,-1.6653048377829243,1.0359922590250583,1.3904655103668524,-0.4605148263957443,0.6548569325798138,1.0673711092857552,1.2064662672008468,0.5764534455921034,1.184792494668642,-0.9751492700741432,0.920233433867235,0.9765039289006253,-0.9027810088381681,0.5764534455921037,-0.38106660132213316,0.6891873472817153,0.17822502465512077,0.6270348355245609,-0.6754645550529413,1.1237241614456108,0.9381544377076909,-0.20042172276698966,0.17822502465512086,1.255501250365936,1.0081986383483932,0.024783735867649072,-0.1394182663247042,0.29117850004355883,1.0899545918895637,0.4742944567826201,1.1521053987830105,1.3870169417050668,2.40219356787034,-0.513972243009004,1.0125908824642542,1.2194783581625301,jumping,Jumping_11-2026-03-04_16-30-13,0,0.18605908203125,2.097046875
-1.8934908716316998,1.828073797746689,1.136005859622933,1.8049471585476715,-1.8753843184034371,1.3108116095080065,1.6108246610676222,-0.41952607082950055,1.1360058596229328,-0.05296508807604282,1.6121661462006254,1.3445208723621476,1.488519045706613,-2.0284480696100475,1.1919693854852866,1.637526993826672,-0.5860043799247507,1.3445208723621478,-0.4290724522872623,2.680074131778248,2.9605060583018923,2.6733998284879728,-2.0461594072748874,2.9494593872822485,2.6999342883358772,-0.34765123433923617,2.9605060583018936,-0.17099854487669175,1.6023408461628768,1.1953509588768425,1.5783322235362225,-1.6653048377829243,1.0359922590250583,1.3904655103668524,-0.6141710794612538,1.195350958876842,-2.0562098635200994,1.9264251962624315,1.488185884468075,1.9243661284576379,-2.020565937575657,0.920233433867235,1.5056729410238747,-0.9027810088381681,1.4881858844680755,-0.5778101293917984,1.8411282042061439,1.5890413766764226,1.7497715799160152,-2.7007580213899876,1.1237241614456108,2.01462003375543,-0.31321100482289327,1.589041376676422,2.3883707515898753,1.8605088277808959,0.08081869236057589,0.3822087574072665,0.5305253309801212,1.737961128251022,1.8841307163356493,2.2074668885615183,2.5252505100642444,2.6687556108240256,0.5646365868642004,1.719973405267115,1.9220197073831478,jumping,Jumping_11-2026-03-04_16-30-13,1,1.151203857421875,3.062195556640625
-1.7405738175587293,1.6676855054563011,0.9526214338227633,1.6418426543623867,-1.8753843184034371,1.2334973669472207,1.5619056019433966,0.043297095848780554,0.9526214338227637,0.4952152528899722,1.978527034602579,1.9387314653625638,1.8455959276711802,-2.0284480696100475,2.7222077754579073,2.508235052560693,-0.23982203681039096,1.9387314653625638,0.36594712882369884,2.5108470341292586,2.617142173033182,2.504437949797902,-2.0461594072748874,2.139428419665822,2.1292116014066553,-0.34765123433923617,2.617142173033182,-2.6031943419354535,1.5657521045790948,1.144327125599661,1.588535872046725,-1.5181048800692554,0.6915121460315077,1.1392242337241356,-0.7678273325267634,1.1443271255996605,-1.7640453837648278,2.2604198162980094,2.0118923205176555,2.23509174062336,-2.020565937575657,2.772152585986271,2.4774883928235223,-1.0941943326663672,2.0118923205176555,-0.8521715054842516,1.7206425216366352,1.4050081161472223,1.6435908024743164,-2.7007580213899876,0.8339241267725825,1.8652647767008534,-0.4260002868787969,1.4050081161472228,2.342524854760372,1.9255383026670225,0.2081180149971528,0.22896053729245436,1.3150759789850601,1.518588947790828,2.1058008801210195,1.8808022244591205,2.4172573820675645,2.4485216273200163,0.5646365868642004,1.8357237142722411,2.098656223539621,jumping,Jumping_11-2026-03-04_16-30-13,2,2.116349853515625,4.027347900390625
-0.8005111826283489,1.7432300227113733,1.0374867978438664,1.6299912797426972,-2.1142791450034304,1.7331164051966903,1.9775722926200088,-0.41952607082950055,1.0374867978438664,1.045799557099848,2.446051191045807,2.8152249940480543,2.3119728886247586,-2.7121694375872516,2.7222077754579073,2.831580855617838,-0.41291320836757084,2.8152249940480543,2.8228846412585202,2.223504088886548,2.0761697619947004,2.2264341976817303,-1.8519777808317412,2.2958759434658838,2.1804270342322924,-0.34765123433923617,2.076169761994701,0.16953205494069393,2.5672792830175544,2.8271820791286175,2.5345188992916396,-3.123385800607843,2.5049215376464953,2.8930133470296644,-0.6141710794612538,2.8271820791286175,0.1361121711645184,2.0993033503567373,1.7512886451907947,2.044665481258525,-1.5341385087618202,2.772152585986271,2.2312685553397302,-0.711367685009969,1.7512886451907939,-0.7909243854324605,2.356586547148405,2.4725665570476467,2.256183117619638,-3.7433609555699747,2.1059549387251058,3.0749905894905583,-0.20042172276698966,2.4725665570476463,2.1802994927078156,2.23221552436635,1.0869064569438762,0.6670037933982899,1.3647252169936785,1.5216318647895697,2.0820330169771193,1.6136594882046131,2.1886773720537724,2.225408709026746,-0.08252871105972226,2.17436733416248,2.5691589435258684,jumping,Jumping_11-2026-03-04_16-30-13,3,3.0814853515625,4.99248974609375
-0.537964101180516,1.731521338317029,1.0241573177705743,1.6070016017373865,-2.1142791450034304,1.8943194581481537,2.0795703387385918,-0.41952607082950055,1.0241573177705745,-0.5371826886947174,2.3844781102918873,2.692211991119587,2.226992856096529,-2.7121694375872516,1.9645867429984776,2.4004932925613285,-0.23982203681039096,2.6922119911195876,-0.13863382713012032,2.3602938432670344,2.327099076061481,2.353956308809697,-1.9323536890389676,2.2958759434658838,2.204853621285572,-0.34765123433923617,2.3270990760614807,2.459660113522001,3.252370693050564,4.3205307602165,3.238507982694554,-3.123385800607843,2.5049215376464953,2.8930133470296644,-0.6141710794612538,4.3205307602164975,1.2096133606789643,1.9421688798686803,1.5114381281633722,1.905063886034117,-1.5341385087618202,3.422651278803062,2.57262507748136,-1.0941943326663672,1.5114381281633726,-2.8990962249024155,2.837736984900759,3.4380092063064094,2.8670789996673545,-3.969985553779876,2.1059549387251058,3.195444038457792,-0.31321100482289327,3.4380092063064094,2.273200216176733,2.5230362632757295,1.3107104257936624,1.7115458200979314,1.3157813663157278,0.8384428721024154,1.731171212292748,1.5808338333901337,2.308300159301843,2.31244323040968,-0.08252871105972226,2.5666338110256963,2.8639895513982467,jumping,Jumping_11-2026-03-04_16-30-13,4,4.046651123046875,5.95765966796875
-0.5006831542029879,2.3620381931800143,1.8339083684225057,2.200676990733185,-2.250133314616899,1.8943194581481537,2.136178009302782,-0.41952607082950055,1.8339083684225055,-1.640050881316569,1.7837436690033215,1.6126742102828244,1.7330660952306467,-1.5253004472132605,2.1704438012718885,1.9563316907944999,-0.5860043799247507,1.6126742102828242,-1.3403214858329586,2.7559493921284828,3.1204187208577356,2.7506050542893057,-1.965483669506555,3.077306089791374,2.765493401663514,-0.34765123433923617,3.1204187208577356,-1.3556272118303976,2.20529692846356,2.15038737629785,2.1854711894756584,-3.11678088087331,2.27848678147569,2.7746813881501056,-0.30685857333023475,2.15038737629785,0.5745231492740851,2.106640513874641,1.7628334862546648,2.0545359723521672,-2.265743107911648,3.422651278803062,2.9429486958355504,-1.0941943326663672,1.7628334862546644,-0.7983512569554949,2.078401920809598,1.9763715543340115,1.9871221493806785,-3.969985553779876,2.2087113674938923,3.248401978404514,-0.4260002868787969,1.976371554334012,2.5792757325802675,1.7526979078098035,1.4656945617794621,2.263474133660503,1.7155897965360996,-0.34887005143819094,0.05117301997875133,0.05506045455956723,2.609108509259919,2.7998706715855968,0.5646365868642004,1.980762088731663,2.409885203366485,jumping,Jumping_11-2026-03-04_16-30-13,5,5.01180615234375,6.922816650390625
-1.883163910691743,3.1372503309730724,3.086312559261859,3.0042816992368766,-2.7315966949948485,1.4697993021577065,2.0681872722720565,-0.41952607082950055,3.0863125592618577,-2.1482114666432084,1.6388136363650496,1.384996490931451,1.6629029764431151,-1.5253004472132605,2.1704438012718885,1.9563316907944999,-0.41291320836757084,1.3849964909314514,0.17942223965602241,2.6454533519245618,2.8887663760564566,2.6387269596558127,-1.965483669506555,3.077306089791374,2.765493401663514,-0.34765123433923617,2.8887663760564566,1.2631314468388513,1.5231278917941493,1.0858866066236101,1.511644502174501,-1.0934898228263854,2.3538040412347425,1.762243814542001,-0.4605148263957443,1.0858866066236104,-3.2735345613669704,2.932547763548173,3.2593353676254955,2.9491387560981,-2.5430871156328143,1.6870859707990171,2.172577226116316,-0.9027810088381681,3.259335367625495,2.517329795195598,1.620986282286618,1.2592285822801554,1.702563063274718,-1.2508171188837887,2.2087113674938923,1.8031342586016335,0.025156841344817524,1.2592285822801557,2.7272227527348605,2.087282422820856,1.4420551020711707,2.190274835581791,1.7311834354339128,0.2777179084465494,0.31522654292700303,-1.7665395833750022,2.6514060075565498,2.55312233129809,0.34891482088955944,2.228123527809698,2.372719093444839,jumping,Jumping_11-2026-03-04_16-30-13,6,5.976949462890625,7.88796826171875
-1.2491197081691632,2.82926392330037,2.5548273641355483,2.672858015787989,-2.7315966949948485,1.4697993021577065,2.0681872722720565,-0.41952607082950055,2.5548273641355483,-1.3826068861229839,1.2455747387968759,0.8314027164692415,1.212614128588602,-1.4043189756789338,1.073069404383936,1.2747093177306539,-0.5860043799247507,0.8314027164692418,0.6161545540131724,2.4682687369999945,2.5336408476759886,2.4621945585126435,-2.293324285503936,2.5994987655613504,2.5284773708304114,-0.34765123433923617,2.53364084767599,-0.07391284120315761,2.5767331721812425,2.8458978531191597,2.543709711817918,-4.391569796709189,2.3538040412347425,3.4748740687790725,-0.30685857333023475,2.8458978531191583,0.6646694972467804,3.2297528305272687,3.8933877873766667,3.155615870939904,-2.5430871156328143,2.907267192115066,2.812881077131558,-0.9027810088381681,3.893387787376667,0.24356011343386846,2.274384754507825,2.3212162777688583,2.1640986120525105,-1.720021088209427,2.407508324172133,2.1549759751690054,-0.08763244071108607,2.321216277768858,2.451512563136801,2.6990686506915824,1.166650915222755,1.4592615353148968,1.2622065364132107,0.10988064480174711,1.0303880872366273,-1.3211176626588212,2.446690058373142,2.3660768331570545,0.5646365868642004,2.833487914191624,2.553724579843752,jumping,Jumping_11-2026-03-04_16-30-13,7,6.94211962890625,8.853137451171875
0.05830590022510661,2.075829850589763,1.4431163404664686,1.923272421714683,-1.6297347741060573,1.858019067925057,1.854702195608798,-0.41952607082950055,1.4431163404664684,-1.4431776107640555,1.2875449438455564,0.886017593810315,1.2575575294398929,-1.5341004200474395,0.7695534675493637,1.1633845671214855,-0.41291320836757084,0.886017593810315,2.491348011635504,2.367850475407942,2.3413106997089272,2.3682381883109005,-2.293324285503936,2.5994987655613504,2.5284773708304114,-0.34765123433923617,2.341310699708927,-1.3653053857990134,2.6187335077281633,2.929685523064589,2.594071147689104,-4.391569796709189,2.228999457647107,3.411543177469814,-0.7678273325267634,2.9296855230645895,3.0204049065811955,1.8372611531416017,1.3591743708430224,1.8863916755824548,-0.8143159590719534,2.907267192115066,1.9378116875351339,-1.0941943326663672,1.359174370843023,-2.421076552318279,1.7250172529089491,1.4115411371243625,1.783364836204492,-1.720021088209427,2.407508324172133,2.1549759751690054,-0.08763244071108607,1.4115411371243627,2.100214606641071,1.9884692555495522,1.2870189953393365,1.2248696277552265,1.2107323286270313,0.5227766045057848,0.8529652364053963,1.0749713564200756,2.1511571548625477,2.5505514993451213,-0.08252871105972226,2.080416459895037,2.3249739548062633,jumping,Jumping_11-2026-03-04_16-30-13,8,7.90728466796875,9.81829248046875
0.023289068425887374,1.198636734471149,0.48590187258063894,1.0929824855585066,-1.5034671186434536,0.7436155843590644,1.0969722488099387,-0.41952607082950055,0.4859018725806389,-0.0459057641016827,0.7240399093908533,0.24184608211619127,0.6463688047399695,-1.2507229360328378,0.808420512894502,1.0514849757845754,-0.41291320836757084,0.24184608211619124,-0.7925583789684325,1.5414495358774114,1.004008462710862,1.5371566574010413,-1.494805341750028,2.1190995891014097,1.947329646681268,-0.34765123433923617,1.0040084627108627,0.5519098695243074,0.8389531921308293,0.29510194428711767,0.8251775139276851,-0.44076214723432494,0.7108242494229039,0.5895803682272227,-0.7678273325267634,0.2951019442871176,0.3133246759043931,0.979533698901761,0.3505722279066467,0.947872898072443,-0.47132957360440425,0.891731303858738,0.7065236592916526,-0.711367685009969,0.35057222790664677,-0.7151779555251917,0.9000682731133829,0.37825808980410175,0.8459849017691861,-1.3725952677298545,1.3184913154731681,1.4090648541250712,-0.4260002868787969,0.3782580898041017,1.155403781336397,0.9884834789213115,0.12954796535395177,0.3381056691154554,1.4305864410124327,0.9378712702591426,0.8573433817909945,-0.9169087902136082,1.2296277528832273,1.8672971122952184,-0.513972243009004,0.9549867830633193,0.6002741492488433,jumping,Jumping_12-2026-03-04_16-30-42,0,0.24307958984375,2.154085693359375
-1.1708209681349662,1.7280879154192346,1.020260869798564,1.640698457125102,-1.8569830040718964,0.848960083124139,1.3109297811076905,-0.41952607082950055,1.0202608697985638,-0.8272800971551766,1.6666719212608374,1.4277716001031766,1.5605568831814507,-1.7132528719558373,1.992444177623361,1.9439361654906808,-0.41291320836757084,1.4277716001031775,-1.0965145690376892,2.199491169969424,2.0333577247587553,2.1946433610299874,-1.9650379576827268,2.1190995891014097,2.0902353778209695,-0.34765123433923617,2.0333577247587553,-1.4674128436895233,1.3357168593415587,0.8417014529702481,1.3302661869138717,-1.8125047954965943,0.6973057958931284,1.295040447240556,-0.6141710794612538,0.841701452970248,-3.716237201742602,1.7264897837039184,1.2052377037306647,1.8448421972292508,-2.4342439628602124,0.5558386500537383,1.5238482145583712,-0.9027810088381681,1.2052377037306645,-0.09236364531030314,1.3189804331515254,0.8530460668559497,1.2334767807680476,-1.1642048954079944,1.3372964932170077,1.307994785557064,-0.31321100482289327,0.8530460668559497,2.1051021680500175,1.4648924013166849,0.37598932921779893,0.5437511054936548,1.5117849639461463,1.5494724544726148,1.4963112269799035,0.21689381158864762,2.151611315244391,2.0924033159875504,0.5646365868642004,1.4551576110385303,1.816173169254339,jumping,Jumping_12-2026-03-04_16-30-42,1,1.20823291015625,3.11924462890625
-0.5069264387963744,1.7227601278803877,1.0142255875561526,1.5976338162677992,-1.8569830040718964,1.0540313312868992,1.4406845608388066,-0.41952607082950055,1.0142255875561526,-0.2721714942438161,2.022288028065073,2.015150119428459,1.8787582278075061,-2.281503867071936,1.992444177623361,2.212673670210532,-0.41291320836757084,2.0151501194284602,0.9853408660786978,2.227656394863944,2.0836102905446454,2.2226617652901495,-1.9650379576827268,1.7951974570667992,1.8620239853098222,-0.34765123433923617,2.0836102905446463,-2.972972385431335,1.6182392904886478,1.217768827817635,1.6533897008209946,-1.8125047954965943,1.0326127398636238,1.4651887463927598,-0.6141710794612538,1.2177688278176353,-0.13139031824165306,2.558260927582916,2.5327687295639243,2.4949102124392644,-2.4342439628602124,2.57534335331451,2.583606073515234,-1.0941943326663672,2.532768729563925,1.3651577926907372,2.0728603236804255,1.9669484835695386,2.011629243938392,-1.2599342953718817,1.7516804208569028,1.572438500657582,-0.4260002868787969,1.9669484835695392,2.1916438652106836,2.1549559212183107,0.7986757971713949,0.4922774535809769,1.5982076545892325,0.9292777952224439,-0.07862980415990034,-1.5785186142775254,2.2217052114565314,2.068643081963035,0.5646365868642004,2.201580731035685,1.8765143917452025,jumping,Jumping_12-2026-03-04_16-30-42,2,2.173388916015625,4.08440625
0.3730842385501417,1.5872771357005857,0.865247471892171,1.4661801167453474,-2.4666432410470485,1.0540313312868992,1.6947175872005829,0.043297095848780554,0.8652474718921708,0.4889581580555453,2.0840778685508243,2.1250294872423643,1.9451326165827014,-2.545384082539885,1.7547250263498333,2.202205442852798,-0.41291320836757084,2.125029487242364,3.3890674905435554,2.1773744095814793,1.9942533107105804,2.184532813682096,-1.7041293098567656,2.000965272695911,1.927710334337028,-0.34765123433923617,1.9942533107105807,0.29927386109887383,1.734680733195986,1.3865226627788838,1.7100151061703437,-1.0769769710544776,1.6245296604421113,1.3836057005221096,-0.7678273325267634,1.3865226627788834,1.162692218680291,2.344228314728239,2.153326182440848,2.296307131569025,-2.2917381870264424,2.57534335331451,2.511472499444679,-0.711367685009969,2.153326182440849,1.9771174350242342,2.202199253675521,2.191578592282172,2.1819162156606646,-1.2599342953718817,1.8759282566457196,1.636472542177456,-0.31321100482289327,2.1915785922821733,1.956882620983743,2.1597742316242985,0.3243243783746387,-0.23202724113855205,1.3546428407751694,0.12703737775009893,0.45527608268898306,-1.3209572607379008,2.025309518269151,2.3376774798314113,0.5646365868642004,2.2004316692054546,1.6801371416057445,jumping,Jumping_12-2026-03-04_16-30-42,3,3.1385478515625,5.049569580078125
0.058601837239912455,1.3383972238249366,0.6141221404579392,1.2254004389278526,-2.4666432410470485,0.8868986525003382,1.588967687513964,0.660394651419822,0.6141221404579391,-0.7482436520601224,2.285929337675706,2.500111907508124,2.140599297362463,-2.545384082539885,1.7547250263498333,2.202205442852798,-0.41291320836757084,2.5001119075081237,0.9273392118843561,2.3538851262128895,2.315075002619987,2.348531325356508,-2.077151916084936,2.4668444697876053,2.369317549401585,-0.34765123433923617,2.315075002619987,4.433178945236047,1.7825141105188402,1.4581727157860227,1.8824721402143236,-2.4324428416805493,1.6245296604421113,2.087473368075066,-0.6141710794612538,1.458172715786022,0.6473179477919555,2.456296881474203,2.348733838568211,2.397777076252383,-2.2917381870264424,2.4092009052158327,2.42428737687744,-1.0941943326663672,2.348733838568212,-2.497689706883943,1.9404416816034915,1.7471417169039598,1.9904875394822206,-2.416174874309945,1.8759282566457196,2.2510270374488153,-0.31321100482289327,1.74714171690396,2.077582758879979,2.2266699159774923,0.14006026248549444,-0.2205199506367081,1.5091192141512215,0.871719491897747,1.6033415060704201,-0.2752340365366342,2.176462788357194,2.4841674312700075,1.211801884788123,2.2305703774941406,1.8644564366033392,jumping,Jumping_12-2026-03-04_16-30-42,4,4.103709228515625,6.014734130859375
0.4194675184403852,1.2936751340927282,0.5720911162648329,1.1907130331622786,-1.5594417701177492,1.5507536485440059,1.6309964078576293,-0.41952607082950055,0.572091116264833,-1.3165852858222429,1.670444635285105,1.4336006096852594,1.5980662776170023,-1.9993935296251326,1.4435243967923916,1.766921706703582,-0.5860043799247507,1.4336006096852592,-1.614065451088896,2.5653311479027443,2.7256873187900514,2.561147610405024,-2.077151916084936,2.4668444697876053,2.369317549401585,-0.34765123433923617,2.7256873187900523,-4.226322000785271,2.203992221016177,2.1480883480899715,2.270967765085304,-3.4100011622028616,1.0314057687345404,2.2941257851038563,-0.7678273325267634,2.148088348089972,2.1830501389704797,2.007306808003401,1.6091498107687947,2.0024280119948554,-1.8068071278377213,2.4092009052158327,2.178824971775309,-1.0941943326663672,1.6091498107687945,-2.3765743102332513,2.485619792384225,2.7181419514953404,2.484770723852907,-3.4685460575487133,1.3614743916483127,2.5452379275118364,-0.4260002868787969,2.71814195149534,2.2442127253998287,2.2979899699580444,0.6288023350080187,0.2761555150173689,1.5940901799674154,0.4945761718376714,-0.20780035626853513,-1.8526364225708962,2.451906806002346,2.4462380823291787,0.5646365868642004,2.2657887276928617,2.032521824817511,jumping,Jumping_12-2026-03-04_16-30-42,5,5.068859619140625,6.979885498046875
1.4418646057303341,1.0801887423658394,0.38444230243953065,1.0787267774684914,-1.2382844128582553,1.5507536485440059,1.4971766662130637,-0.41952607082950055,0.3844423024395306,-1.789151514521359,1.8342358219576635,1.6949865166039817,1.7950950797792034,-1.9993935296251326,0.9215029854750095,1.4698906998721013,-0.41291320836757084,1.694986516603981,-0.7764178590675876,2.411620065787431,2.4243474516086962,2.405767290084632,-1.9759319232075425,2.3547666077046117,2.259589770446193,-0.34765123433923617,2.4243474516086976,-2.594337989524673,2.8004107381205965,3.304153288082016,2.7957938102418396,-3.4100011622028616,2.145715811552066,2.859571750130769,-0.4605148263957443,3.304153288082017,-4.163847616693144,1.8633844295207636,1.3965008340789806,2.0085936577742665,-2.6302362665486867,1.0131360086244308,1.8630275435038177,-0.711367685009969,1.3965008340789802,1.390354094795445,2.429888460928174,2.610875496781844,2.35556802226524,-3.4685460575487133,1.6798179224462957,2.7093037459567477,-0.31321100482289327,2.6108754967818446,2.2180079079111192,2.37392881951991,0.24684347587147606,-0.32753804825286803,1.9519009863331804,-0.050523598493580485,0.6166389238568898,-2.0014858051065243,2.3805088183784373,2.171825761968756,1.211801884788123,2.425498888146251,2.2640381071868716,jumping,Jumping_12-2026-03-04_16-30-42,6,6.03403759765625,7.9450625
-2.464584834888852,1.2513262201258066,0.5331594922475197,1.3890169077204744,-2.1502730241290213,0.9880980415247416,1.5211745634666285,0.043297095848780554,0.5331594922475198,0.6652703406717025,2.059237444117979,2.0805780826936737,1.9284594949376674,-1.4235576213171337,1.8591877083127468,1.7311102217839993,-0.41291320836757084,2.080578082693673,-2.314429531381058,1.6014479630712797,1.0863608350993736,1.6036434996151143,-1.7448544190562056,1.629457653955154,1.6783341302391148,-0.34765123433923617,1.0863608350993739,0.73701190962968,1.3051427328839251,0.8038389791312731,1.2883252189605687,-0.960679706969952,0.9664686491276288,0.9892879801614791,-0.4605148263957443,0.8038389791312729,-3.371032168046729,1.9841125306507568,1.5740782587250406,2.056482438215909,-2.2876239734874164,1.0970190485444984,1.7336226227118972,-0.711367685009969,1.574078258725041,2.211822809524974,0.5760777360482506,0.08168839165550981,0.7373028309875075,-0.8438048774751401,1.0568989818821284,0.993189231135301,-0.31321100482289327,0.0816883916555099,1.5459433315783084,1.5489981495796068,-0.14101222203143082,-0.9479608066759245,2.135451945302105,1.5404760577465546,0.6621854504517893,0.3529907752857754,1.4993091565791257,1.8138015991009453,-0.513972243009004,1.5725154181285381,1.5354116376311004,jumping,Jumping_13-2026-03-04_16-31-05,0,0.2312978515625,2.14230322265625
-2.9233874841843206,1.5397919163448779,0.815079995219994,1.7163582749201032,-2.1502730241290213,0.9880980415247416,1.5211745634666285,0.043297095848780554,0.8150799952199939,0.45236880856690015,2.5496560631962795,3.0273993075061374,2.3843681796107274,-1.6106700122811772,2.4145502785031816,2.1356016729438347,-0.41291320836757084,3.0273993075061387,-2.0276936858681482,2.1592882894454557,1.9625084859477975,2.1577526392289457,-1.7448544190562056,2.327167658237272,2.1699189513886297,-0.34765123433923617,1.9625084859477986,-0.7555521125950283,1.766714164349246,1.4343559429033215,1.744534883495147,-1.8861046822808323,0.9599508165885574,1.466536171474617,-0.6141710794612538,1.4343559429033217,1.0878439589830513,3.250230362517928,3.9389360501128405,3.1807286070890375,-2.2876239734874164,3.9858397027905417,3.2495638267660465,-1.0941943326663672,3.93893605011284,-1.2183544148173868,1.647096790287789,1.2968601082501283,1.5936802354853874,-1.2026269461605743,1.0568989818821284,1.1839070794188582,-0.4260002868787969,1.2968601082501285,2.2503523037970616,2.4501227358270334,0.19905158172611612,-1.0263527879192873,1.984128674558242,-0.7900770381969212,-0.7412299394115013,-1.8276419892406168,2.1653471419680113,2.1148685887870564,0.5646365868642004,2.4910705214767113,2.2668908025214543,jumping,Jumping_13-2026-03-04_16-31-05,1,1.196458740234375,3.107478759765625
-2.8218562509912877,1.420838810487212,0.6940736987647893,1.5983277461715644,-2.7208228641276317,0.6957210264273562,1.573915304068215,-0.11097729304397982,0.6940736987647893,0.1866758419647343,2.988435323089889,3.998139504968958,2.7949892364887003,-2.0317052386859062,2.4145502785031816,2.334717833083681,-0.41291320836757084,3.9981395049689588,1.43849227917902,2.3355102665655902,2.2807459446453917,2.331521692536048,-1.7805756480408226,2.327167658237272,2.180774787781709,-0.34765123433923617,2.2807459446453926,-1.9387199704560285,1.466318315120605,1.009669934505148,1.4703248272227154,-1.8861046822808323,0.6480598662903614,1.308270094173002,-0.6141710794612538,1.0096699345051479,2.232620317299006,2.528865693174011,2.4791027606203913,2.507889785189412,-1.2811066387858547,3.9858397027905417,2.7400848790447734,-0.9027810088381681,2.479102760620392,-2.206012037943187,1.6233793504116798,1.2626609129122202,1.6638394999751616,-1.2026269461605743,1.2523377259956192,1.2846310282562965,-0.4260002868787969,1.26266091291222,2.4376945651216384,1.8505969397913695,0.5543112895047946,0.023354475962254564,2.0843690137717603,-1.929907125252099,-1.4491808956157077,-2.279831942938569,2.359712916470222,2.2538622904707104,0.5646365868642004,1.8464374463288313,2.45987221022016,jumping,Jumping_13-2026-03-04_16-31-05,2,2.161619873046875,4.07264208984375
-1.9038597502418273,1.3245311607263435,0.6009896062888168,1.3572792474335884,-2.7208228641276317,0.6957210264273562,1.573915304068215,-0.41952607082950055,0.6009896062888167,0.5548263473704045,2.4095461943266026,2.742016491040869,2.2549345623872035,-2.0317052386859062,1.8699124730559453,2.0248180623018195,-0.5860043799247507,2.742016491040869,-0.11175912064359274,1.9738910478684193,1.649190342671397,1.9681215594101926,-1.7805756480408226,1.900084392321158,1.8798651697415598,-0.34765123433923617,1.649190342671398,0.3448341802833039,1.9340798829083055,1.694154728460881,1.9077397093955508,-2.537417017929778,1.9277302301688857,2.2958406897534926,-0.6141710794612538,1.6941547284608804,-3.1988916948556545,1.5596151948754615,0.9865957855034694,1.6488932497163526,-2.0955590196189293,0.899848899293956,1.5329359252214614,-0.711367685009969,0.9865957855034695,0.14358280090662665,2.0536239754661714,1.9343783920803599,1.9484714406060961,-1.8219368849322244,1.4840433832898383,1.7332159790158785,-0.31321100482289327,1.9343783920803594,1.9766245958838125,1.7533166196178445,0.9799259991669163,0.6598417893479868,1.5473467341230376,1.5796601796084828,0.8629218953471878,-1.2818398850647441,1.9583744035467836,1.9428535853459266,0.34891482088955944,1.7454378432891926,1.9970280500995636,jumping,Jumping_13-2026-03-04_16-31-05,3,3.126781982421875,5.0378056640625
-1.116208886996482,0.8803715623327306,0.22827176192797952,0.8564249887302413,-1.2596148886414686,0.3488223543586646,0.7455663675595442,-0.41952607082950055,0.22827176192797938,1.902859164324271,1.7574035731400024,1.5703481806240198,1.7534520713349715,-1.1749314771733919,1.6634528463323912,1.5021563935383766,-0.41291320836757084,1.5703481806240192,3.4920162966628725,1.7739595224854494,1.3360023328374446,1.7849224423184753,-1.475475348922061,1.900084392321158,1.7871438657758036,-0.34765123433923617,1.336002332837445,-1.859894851092028,2.940931426614281,3.6071987101539578,2.9195543708473233,-2.537417017929778,1.9277302301688857,2.2958406897534926,-0.6141710794612538,3.607198710153958,0.3445371118790019,2.2694607680764123,2.0269562215993857,2.2122218867877392,-2.0955590196189293,2.36771056618378,2.303212882158633,-0.711367685009969,2.0269562215993857,-0.4354582045866116,2.307724734488572,2.382123912432061,2.19924919738944,-2.119218679535793,1.4840433832898383,1.8912244995296241,-0.4260002868787969,2.38212391243206,1.6596402179458907,2.5960886776001515,1.018299815585576,-0.2687956515378472,1.1461747645382434,-0.17892241635871256,0.4570929702689734,-1.9936904007320513,1.6943068885341201,1.8144355311566178,0.7803583528388411,2.631883538801166,1.9908031457519884,jumping,Jumping_13-2026-03-04_16-31-05,4,4.0919453125,6.00296923828125
-1.3387433902756598,0.8739162266845473,0.22354030112404505,0.8784604257387245,-1.5122951577825747,0.655716192682824,1.0450341101981344,0.660394651419822,0.22354030112404494,-0.5336098158803773,2.753073506203809,3.4629171755183,2.575807961480638,-2.6824512044875934,2.021172713910238,2.4186364397434823,-0.41291320836757084,3.4629171755182995,0.8941491807630453,1.7352333267469695,1.2783010258822116,1.7309754087289473,-2.0695475362827644,1.532469258430983,1.708674762367145,-0.34765123433923617,1.2783010258822116,1.0347212413730804,3.161076638687845,4.1054754726403715,3.1274459542142656,-2.5249146642870777,2.674385560546378,2.668231555498038,-0.7678273325267634,4.1054754726403715,0.0954129034565711,1.5802021162865643,1.0127071963158312,1.5356805393266808,-0.8676153312330573,2.36771056618378,1.6816523420162117,-1.0941943326663672,1.0127071963158312,-1.9855103602239568,2.1579079299897486,2.1135499342364166,2.1398349143230257,-3.4496607590899857,0.9984688094603525,2.3481167291152816,-0.20042172276698966,2.113549934236416,1.7628512529681901,2.2665472277641263,0.0354820082301582,-0.429781690737036,2.067019779079158,-1.689978212777856,0.5480172392427837,-2.0264545581288624,1.7174337032581195,1.7994278252686886,-0.513972243009004,2.351573690246741,2.202637275274686,jumping,Jumping_13-2026-03-04_16-31-05,5,5.05710888671875,6.9681328125
-1.0039614424314245,1.0446880877621234,0.35532137385403717,0.994837354558113,-1.8585470445678332,1.390996086736933,1.654544054751866,1.2774922069908636,0.35532137385403717,-1.4732330093818409,2.670812880167529,3.283774961114963,2.54190507980646,-2.6824512044875934,2.021172713910238,2.4186364397434823,-0.41291320836757084,3.2837749611149625,-0.8486082597687202,1.8143019604918702,1.3971342189032325,1.8096232057541721,-2.0695475362827644,1.3713000862531304,1.595119964251008,-0.34765123433923617,1.397134218903233,6.427454017587439,2.9924506323479623,3.7212345086915883,3.1344917236331904,-3.437129431838509,2.674385560546378,3.1419273486995447,-0.6141710794612538,3.7212345086915875,-0.9794436281814215,2.0415621246042686,1.6615097428589403,1.9994640863508335,-1.4707403204849094,2.9478557325632235,2.2913798670651926,-1.0941943326663672,1.6615097428589407,-2.809165828024126,2.379635051216291,2.515715469413003,2.4320575081403204,-3.7892718023991296,1.5478465385341635,2.811758428544505,-0.20042172276698966,2.5157154694130037,1.9006442301761304,2.4594462196686595,-0.14282031287880775,0.3431619163075946,2.2440115404207237,0.7234540689037667,2.1450557009680598,0.1632820470450744,1.8754195023229319,1.6952452129030353,0.5646365868642004,2.4806928497708345,2.710750506054194,jumping,Jumping_13-2026-03-04_16-31-05,6,6.0222724609375,7.9332841796875
0.49511882806326285,1.739811291560277,1.0335881433453062,1.6139555474905896,-1.714757041065469,1.5580894774758989,1.7003547244924861,-0.41952607082950055,1.0335881433453067,2.0963154888932576,1.5425195737390123,1.2407661282007585,1.587876530397628,-0.7844733897213185,2.0712897950382043,1.5495606545005687,-0.41291320836757084,1.2407661282007583,2.970885813194917,2.6532117368998542,2.904776166124922,2.655133397079403,-2.306214821769124,3.100553772417016,2.8854226722839473,-0.34765123433923617,2.904776166124921,0.9004446422488476,2.2516305031669677,2.2326855591049988,2.2262493489344237,-1.6313355742770335,2.677282291256179,2.2056828337653647,-0.4605148263957443,2.232685559104998,-2.0803584027443143,1.960571001929588,1.5387965218762412,1.9583154368309432,-2.445651992907535,1.6100579519695086,2.0828361941620632,-0.9027810088381681,1.5387965218762407,-0.18353506395597138,2.6585409536114706,3.0625678010858626,2.5370570792496427,-2.743738469754395,2.4461258026536274,2.7189953686076236,-0.20042172276698966,3.0625678010858626,2.074574114073562,2.2230107379653012,0.6689302132326629,1.2901135890308444,1.811424097054456,-0.015490962404501646,-0.3410612535600913,0.9359616786632742,2.138536643327452,3.2414345694721716,0.5646365868642004,2.2447086781876675,2.0071010019638855,jumping,Jumping_14-2026-03-04_16-31-36,0,0.233025390625,2.144034423828125
-0.6568220522502358,2.75835937969456,2.438800470691213,2.5793388151561296,-3.524907931118283,2.0619478726363947,2.7734142425005803,-0.41952607082950055,2.438800470691212,0.6211281905745327,2.7700879489732757,3.5004823270043914,2.597900389502346,-2.136492054704749,4.516491986538581,3.580281808035373,-0.41291320836757084,3.5004823270043914,0.13630540439537064,2.6269271574655733,2.8506927870563543,2.6202122401153183,-1.8458497769697009,3.100553772417016,2.745515738802245,-0.34765123433923617,2.850692787056355,0.7678115560375935,1.8382991545191791,1.5434454934421358,1.8159821458505516,-1.7327714006684765,2.677282291256179,2.25835653073973,-0.6141710794612538,1.5434454934421358,-2.16553538442217,2.568429594904048,2.551448492180667,2.5482663179589022,-2.89018793362031,2.6749205612818834,2.8666500565201227,-1.0941943326663672,2.551448492180667,-1.1771223908632422,1.92312289413692,1.7191546402218874,1.8556568299355973,-2.186619877635297,2.1536394076368666,2.2721410165008855,-0.08763244071108607,1.7191546402218874,2.509743272780725,1.9642110369108752,1.0028734091703846,1.3232051700556382,1.6179648957451849,0.5999647375305598,1.0563510651300405,0.5847729875551364,2.430164749063376,2.969652036284109,1.211801884788123,1.9778240250974912,2.6961444595700232,jumping,Jumping_14-2026-03-04_16-31-36,1,1.198181640625,3.1091767578125
-0.6370363662635984,2.7422587983730837,2.4127839188259177,2.563530369202167,-3.524907931118283,2.0619478726363947,2.7734142425005803,-0.41952607082950055,2.4127839188259173,-0.2695928266009788,2.9414077924581066,3.888511635700309,2.749961560919038,-2.958426155037912,4.516491986538581,3.968991235851793,-0.41291320836757084,3.888511635700311,-1.5058417935769475,2.330672049845483,2.271742884442199,2.3266823591477466,-2.168130974119259,2.2933945918047463,2.2747590772751973,-0.34765123433923617,2.2717428844421987,-3.7691667298484246,1.2150058303021294,0.6954372454506085,1.3079379510370375,-1.7327714006684765,0.5807088044252822,1.194470383296054,-0.7678273325267634,0.6954372454506083,1.029238558208976,1.9249660430685422,1.486038008352199,1.884074564689412,-2.89018793362031,2.6749205612818834,2.8666500565201227,0.43711225795922587,1.4860380083521985,-0.19192726077283712,0.9970799485447241,0.47904505141186604,0.9214016909474747,-1.2677489454541646,1.2019668967401258,1.2932842917154659,-0.4260002868787969,0.4790450514118659,2.5410835703894246,1.3060549177807002,1.1558619905366296,1.6453922811809827,1.5775568681847325,-0.18794443732828292,-0.5526460602371557,-2.102436669625942,2.453719108658667,2.200176025071874,0.5646365868642004,1.33991376007077,1.959220299037046,jumping,Jumping_14-2026-03-04_16-31-36,2,2.163337158203125,4.07434619140625
1.183476162174924,1.9514097129090648,1.2852725450251856,1.8504935549356227,-1.5677997424411518,1.7463688375209387,1.7582506501558146,-0.41952607082950055,1.2852725450251854,1.3645873913200819,2.2832070276767515,2.494888925173455,2.1816396856155906,-2.958426155037912,1.9668225956941567,2.5182253288773757,-0.41291320836757084,2.494888925173456,-1.1112765337905308,2.436567501157135,2.4722255399806095,2.431301651778789,-2.3288189818692038,2.2933945918047463,2.323592859651906,-0.34765123433923617,2.4722255399806095,2.9005632736473004,2.374843210083128,2.457723905270006,2.3883798441831217,-0.606833764552496,3.2518182622498046,1.9652212924583505,-0.7678273325267634,2.4577239052700057,-3.0333427423268895,3.416301081909178,4.317194395658234,3.4025462743339943,-4.988314209207951,1.1956941762919435,3.152438900580309,-0.9027810088381681,4.317194395658236,1.1630953217333515,3.4342449365377594,4.823570399763009,3.3134241914936076,-2.2341589777878252,6.031520359548505,4.2959656312674355,-0.31321100482289327,4.823570399763009,2.405102372182701,2.707495634256312,1.0996897742830716,1.3139834604387495,1.4277551969876376,-1.740100504113387,1.4327679047949384,-4.175266424049774,2.4429698598924823,2.278664633862932,0.5646365868642004,2.6069277755425895,4.216055215827532,jumping,Jumping_14-2026-03-04_16-31-36,3,3.1284931640625,5.0395029296875
1.3044369058088787,1.9997909268889364,1.3457836466660726,1.9048262977034787,-1.7963048355506241,1.37953280561385,1.6213558270403916,-0.41952607082950055,1.3457836466660726,1.9632687875891182,2.089566498472309,2.1349017434008473,2.061717683711331,-2.59739582171535,1.9668225956941567,2.347486708550879,-0.41291320836757084,2.134901743400848,1.1005175720049456,2.392329185670769,2.3875987229495506,2.3872869130656373,-2.3288189818692038,2.1618129700708897,2.23088453156486,-0.34765123433923617,2.38759872294955,6.0598065668345695,3.198500458684968,4.193035211821599,3.311304339095145,-2.88347849858751,3.2518182622498046,3.1474396378393314,-0.6141710794612538,4.193035211821598,0.6529238712902284,4.6373166062822415,7.583018012014981,4.534839627204412,-4.988314209207951,3.9291962185343117,4.586874912075414,-1.0941943326663672,7.583018012014979,0.89866270123455,5.005145808956859,9.471632954875759,4.829111516975243,-3.6534923525355802,6.031520359548505,5.05035682080778,-0.4260002868787969,9.471632954875755,2.412423548245403,4.411110938445441,0.41521257428065284,-1.0285599750150158,1.3469532952989314,-1.369255027916794,1.6182511928365162,-3.773342827224012,2.4351039219349735,2.159278872903269,0.5646365868642004,4.254818145987315,4.15452617469796,jumping,Jumping_14-2026-03-04_16-31-36,4,4.09363623046875,6.00464599609375
0.8896569261133193,1.7690016930424342,1.067053605538735,1.6603659436150346,-1.7963048355506241,1.5097987282777101,1.7037790153378782,0.3518458736343013,1.067053605538735,0.7698918592868979,1.7780436942416973,1.6034792226102208,1.668927513463239,-1.917370662754331,1.795634680864366,1.9284827245629992,0.27945147786114866,1.6034792226102212,3.6710567819449778,2.466335090789403,2.529876314911173,2.473860673795387,-2.051079553442978,1.9033300395830173,1.9643592619879364,-0.34765123433923617,2.5298763149111743,-1.7689872075782236,3.5421810399245963,5.035926703310843,3.5119994179311647,-2.88347849858751,3.620921528486758,3.3347375572264912,-0.6141710794612538,5.035926703310844,2.913050658018143,3.375358739860119,4.222474037339078,3.353023511560288,-2.7559105848645924,3.9291962185343117,3.4568768383146216,0.24569893413102672,4.222474037339077,0.2828418143724263,4.010893466942178,6.361532862987534,3.8532620110950075,-3.6534923525355802,3.9602725735700446,3.982890607949779,-0.31321100482289327,6.361532862987532,2.3415909825984675,3.8681169287351596,0.47605462173404073,-0.46436543760799437,1.3570878491241567,-0.20813198723140142,1.1535938801667582,-3.113892190478133,2.429544001910043,2.3177331388237348,0.7803583528388411,3.745908830127374,2.8156010947112353,jumping,Jumping_14-2026-03-04_16-31-36,5,5.05880615234375,6.96981494140625
0.6473407822198354,0.9828610759764089,0.30602330607325917,0.910416612050671,-0.7535697789003579,1.5097987282777101,1.2692925160237016,-0.41952607082950055,0.3060233060732591,-0.9020529450036082,1.0725796805316588,0.6175633090903182,1.0087145989369386,-1.0177944324515018,1.201952044894427,1.165248390541802,-0.5860043799247507,0.6175633090903178,-1.9881433078825745,2.010724755543865,1.7096847300430913,2.0094810605436177,-2.2501834609165954,1.9033300395830173,2.024867802880729,-0.34765123433923617,1.709684730043092,-2.3200325920391447,2.944709660337478,3.61550826808098,2.9317033194781885,-1.4935715844745094,3.620921528486758,2.612985310303021,-0.6141710794612538,3.6155082680809776,-1.319350760447193,2.2282465152034767,1.9586651392568701,2.189881156003777,-2.7559105848645924,2.2181643663523376,2.5589935853825665,-0.9027810088381681,1.9586651392568701,-0.21113472583074014,2.526383529246145,2.7977545343594064,2.4087333341253663,-1.8948735343080971,2.071702795802177,2.074846690690309,-0.31321100482289327,2.797754534359405,1.6990934148313963,2.759600530678523,1.10871873578065,1.7213876357785272,1.5157805657089953,0.8129112156526084,0.8717255524907924,-1.3022426682433172,1.858704173382672,1.995783643285478,0.7803583528388411,2.63070661648774,2.17060372537517,jumping,Jumping_14-2026-03-04_16-31-36,6,6.02396240234375,7.934970703125
-2.427950923234664,1.5029111686326615,0.7768492995458958,1.5953751587271987,-4.336320342654559,1.00470916047965,2.442566396034579,-0.41952607082950055,0.7768492995458958,1.3469465009442139,3.530462569158157,5.358486990628967,3.3474618320156937,-2.1449739198517657,5.4099863068132645,4.092692733586741,-0.41291320836757084,5.35848699062897,2.317445751583154,2.832622354966249,3.2857615305650802,2.830627803556023,-2.2306155495365796,3.698773566445533,3.283934831507537,-0.34765123433923617,3.28576153056508,4.065044386870228,2.9086545176451803,3.5365559918288705,2.9471066588486323,-1.073202731206173,3.354414011736242,2.2594590650661663,-0.7678273325267634,3.536555991828869,-3.424627235438092,2.303683584213035,2.084401524988285,2.360260189687216,-2.8757877482718777,1.2849889934414955,2.1299787117008044,-0.5199543611817699,2.0844015249882855,0.6083837530908832,1.9212912712649335,1.7162050402942226,1.8287757175727195,-1.2172793197487446,2.399448981005851,1.8836096628108985,-0.31321100482289327,1.7162050402942226,2.4402789420781277,2.542120109856445,-0.5534652555855749,-0.547426996314927,2.2463892819724673,0.4409961201821229,-0.07085209695130247,-0.5029870861364653,2.4582301908323316,3.408032718627734,0.996080118813482,2.535755020088276,2.35143381702531,jumping,Jumping_17-2026-03-04_16-33-08,0,0.24744091796875,2.15844873046875
-1.6185081221543987,1.5784202499301707,0.8558096634001171,1.546806158714976,-4.336320342654559,1.00470916047965,2.442566396034579,-0.41952607082950055,0.855809663400117,0.5787500604681013,4.0217769133516965,6.745488347512769,3.780888945552066,-2.1449739198517657,5.4099863068132645,4.092692733586741,-0.41291320836757084,6.745488347512767,-2.6870937347254786,3.19039175006222,4.1070986832706335,3.1886198894873248,-2.265857620520061,3.698773566445533,3.2946450497062094,-0.34765123433923617,4.107098683270633,2.8862894786569537,2.3176219975690597,2.3520955539590567,2.3320567856634575,-3.2333142190935464,2.8315379126035505,3.115835438779332,-0.6141710794612538,2.352095553959056,1.0898974043833431,3.621611208044136,4.80665035200114,3.5441981728683243,-3.4684397560080034,3.9580591243035737,3.8326909916336707,0.24569893413102672,4.8066503520011405,-0.4515727375957435,2.1079214276369167,2.0268709991528198,2.0054868459281283,-1.2172793197487446,2.399448981005851,1.8836096628108985,-0.31321100482289327,2.0268709991528198,2.900491439688296,2.5698960903501473,-0.07236483016778932,0.24079708776305123,2.1723585015594176,0.7405267146258214,0.7714019872658765,-1.7015777306593047,2.95833502587253,3.5184997002381473,0.996080118813482,2.66183745288911,3.4449510502550833,jumping,Jumping_17-2026-03-04_16-33-08,1,1.212603271484375,3.123624755859375
-2.0830408112097016,1.6373693131666736,0.9193211197940768,1.659175966036505,-2.357529086186987,0.9720258089080573,1.5973645634382128,-0.41952607082950055,0.9193211197940767,-0.43852547254747726,3.5429105865127624,5.391820956625906,3.3221797944460048,-1.7996982962447878,3.5419814472141975,2.866507124372654,-0.41291320836757084,5.391820956625905,-3.9541004257203203,2.8321218840502964,3.2846700619444555,2.839072833526853,-2.509179509255848,3.3449875787380514,3.1193249968442562,-0.34765123433923617,3.284670061944455,-3.17012648345115,1.8196591992529352,1.5147474893656705,1.85595533043552,-3.2333142190935464,3.067870208916879,3.2357600003654645,-0.4605148263957443,1.5147474893656703,2.9538937585389125,2.8635156547167138,3.119299137126191,2.8612866033648032,-3.4684397560080034,3.9580591243035737,3.8326909916336707,0.24569893413102672,3.119299137126191,-0.31912989059497127,1.989960757572034,1.8281356078389204,1.8884330488812051,-1.3071476686068473,1.8416761137227908,1.6439143190308971,-0.20042172276698966,1.8281356078389204,2.814255891296153,1.9734713827067145,0.9365262271141405,1.1556554191585846,2.253751589109538,1.0371868574096688,-0.18984007779209244,-1.8733286945198186,2.750547551430248,2.9423623089612616,1.211801884788123,2.0170213220100197,3.1934971821653995,jumping,Jumping_17-2026-03-04_16-33-08,2,2.177765380859375,4.0887880859375
-1.5289516400486374,1.8958138250617433,1.2171003203746265,1.8270887712657784,-2.357529086186987,1.515241667905237,1.9410736633832517,-0.41952607082950055,1.2171003203746265,0.5072598545468809,2.9198027367132333,3.83859675367502,2.736082320417386,-1.7996982962447878,2.7872716159299706,2.4370760393789443,-0.41291320836757084,3.8385967536750187,0.7324881266826151,2.765715733438396,3.141270086067421,2.75931620487169,-2.539615293398241,2.921934923383493,2.830504788733177,-0.34765123433923617,3.1412700860674208,-1.293662869454629,2.2066128692626084,2.152707220129025,2.1858785190450716,-1.737961164605087,3.067870208916879,2.459251576627115,-0.6141710794612538,2.1527072201290247,-1.6433436847557024,2.245089189885466,1.9864555892100604,2.216070631889861,-2.0802236397516194,2.090806579897996,2.1501419311798315,-0.9027810088381681,1.986455589210061,1.545471547798008,2.3292786780428845,2.4218472775159126,2.268976749565426,-1.3071476686068473,2.6190657546181884,2.0445603361319535,-0.31321100482289327,2.421847277515912,2.6487251095719846,2.2412586936312113,0.5888343184890216,0.5318664381998027,2.289667028861776,1.2213231763131607,1.479853554889986,-1.1315823804324516,2.6291750101622253,2.8784994586033763,0.5646365868642004,2.1540085376686275,2.422228014966765,jumping,Jumping_17-2026-03-04_16-33-08,3,3.14291455078125,5.053938720703125
-0.27278763205895495,1.4808715765442215,0.7543090363068529,1.3627494094142794,-2.2899256017442995,1.515241667905237,1.9129046657940634,-0.11097729304397982,0.7543090363068529,2.033116372958066,2.703680013413588,3.354858803936311,2.6309862045385537,-1.3540759273222176,5.450626173287855,3.7417850633623417,-0.41291320836757084,3.354858803936312,4.760702136566374,2.6167611919629152,2.8298939791646918,2.6323903676122877,-2.539615293398241,2.921934923383493,2.830504788733177,-0.34765123433923617,2.8298939791646913,-0.49259886859766727,2.8031754947414855,3.310002940803468,2.7690876003166007,-3.566872609527811,2.9898974242318253,3.3694039903948854,-0.6141710794612538,3.3100029408034666,-0.5498624036920916,2.9981431076672562,3.3949273036835614,2.9287738170137287,-2.7082217958676305,3.3988395153205384,3.1544270682123665,0.24569893413102672,3.3949273036835623,1.7110497401583464,2.2768091905836183,2.325623398406668,2.2307708381702116,-1.1944866962488754,2.6190657546181884,1.9846797989276432,-0.31321100482289327,2.325623398406668,2.334613311617823,2.605109127796131,-1.0738816033030676,-0.6421613085555751,1.8537337040265156,1.0315210216269417,1.6426241095333287,-1.4076975607679745,2.436228932249275,2.831904210857088,-0.08252871105972226,2.650272046962695,3.028659609184105,jumping,Jumping_17-2026-03-04_16-33-08,4,4.10809130859375,6.019115966796875
-0.5924339805193466,1.1124180684051237,0.41139424087165577,1.027229984269514,-2.2899256017442995,0.6026931098640356,1.3355075991482,-0.2652516819367402,0.41139424087165555,0.5882788945736681,2.7111337728802463,3.3710706468662988,2.5410999155317398,-1.3540759273222176,5.450626173287855,3.7417850633623417,-0.41291320836757084,3.371070646866299,-0.20826940364772772,2.3267384244124405,2.2644341672852613,2.3204713111089617,-2.019396772462977,2.4207405630327563,2.3192821285681537,-0.34765123433923617,2.264434167285262,0.7871069726409432,2.9666878031378223,3.6640129558906365,2.933022509794888,-3.566872609527811,3.459182497697048,3.607538208917514,-0.7678273325267634,3.6640129558906365,-0.5782000082104916,2.4671054418063503,2.3679602263315522,2.4089516063756133,-2.7082217958676305,3.3988395153205384,3.1544270682123665,0.24569893413102672,2.3679602263315536,0.5313568799702071,2.7115422350043565,3.171650240008758,2.593682801689191,-1.7711417864855337,2.7909980593187655,2.3797876301446492,-0.4260002868787969,3.1716502400087583,2.0423143217210575,2.5164325564293035,-1.2261392367540183,-0.5873252747215977,1.625737167062273,0.28377515209130655,1.905168717319512,-1.2417280555724688,2.133042102001436,2.536011386704345,-0.08252871105972226,2.5920218489732623,2.822650988433335,jumping,Jumping_17-2026-03-04_16-33-08,5,5.07325537109375,6.98427978515625
-0.8051895360042863,1.412932383972541,0.686267188458754,1.3210629334084938,-2.485095667813096,1.4270814962950986,1.9384464581228054,0.5061202625270617,0.686267188458754,-1.1210330005235365,1.9556810003780987,1.8992974177407764,1.8491999839302276,-1.1518818803062671,2.4966604566841486,1.9653522134452792,-0.41291320836757084,1.8992974177407764,-6.538685518106526,1.9825435908698068,1.663322819585894,2.0277389555827665,-2.019396772462977,2.2102285896507325,2.1709619236840196,-0.34765123433923617,1.6633228195858942,2.1666376080352316,1.8544084190295356,1.5684130355664934,1.8580809803159077,-1.138782174167573,3.459182497697048,2.346676988888962,-0.6141710794612538,1.568413035566493,0.29985405346924954,2.058729927190703,1.6880037337209943,2.0054303895513135,-1.8062460987187634,2.7515878043506268,2.358212375110068,-1.0941943326663672,1.6880037337209943,-2.946809493359119,2.3569250324279154,2.4731979766312437,2.427530545609595,-1.7711417864855337,2.7909980593187655,2.3797876301446492,-0.31321100482289327,2.473197976631245,1.8766889464970384,2.0059873822253,0.8426027233726844,0.8616656006406177,1.7618172500548688,-0.2301410037964109,2.3626060224527374,-0.6617443023207153,1.9187904887060079,2.097910797376354,-0.29825047703436314,2.062960400625535,2.0242092129225577,jumping,Jumping_17-2026-03-04_16-33-08,6,6.03840576171875,7.949430908203125
-0.418088443516769,1.1444585090002193,0.438673535957683,1.0493501662396973,-1.3717515479893376,1.2901498487021505,1.3878978036449747,0.043297095848780554,0.438673535957683,-4.028466116200398,2.621586659150057,3.178535526775167,2.824090517842018,-2.2838581961054456,3.256905334685538,2.933267474298502,-0.5860043799247507,3.1785355267751676,0.9444721043548306,2.0847221596938046,1.8338441375843952,2.079905809942993,-1.8105536228058934,3.641612440738879,3.116002234747808,-0.34765123433923617,1.833844137584395,-1.7286009074797823,2.7162138579393256,3.1281784948152134,2.6956500409661386,-2.941273203571398,2.5816871627604465,2.837399717889967,-0.6141710794612538,3.128178494815212,-3.1617859547667178,3.255558018516066,3.950825725413606,3.2534763915445097,-2.347468831356979,2.1322969189300474,2.3071886262560115,-0.9027810088381681,3.950825725413606,1.5174385153568426,2.667771419612003,3.081446542304538,2.5915233814272134,-2.764252021536496,2.4545209408628765,2.7342251771425494,-0.31321100482289327,3.0814465423045383,1.8099872362794347,2.9958642963708635,-0.2949376107526427,-0.7484635280543174,1.9118222463552825,0.9297844473930608,1.246810382983001,0.4922175329335049,1.7761532468354295,2.596350140449227,-0.513972243009004,2.9935037878277924,2.786893745320983,jumping,Jumping_18-2026-03-04_16-33-28,0,0.246351806640625,2.15739208984375
-1.4055364731312696,1.3439076922789557,0.6193662635876621,1.30986506222961,-2.0806156577278863,1.2901498487021505,1.6832670669736394,0.3518458736343013,0.6193662635876626,-3.7766078483357326,3.302192194429581,4.763872535632102,3.37461863097571,-2.2838581961054456,3.256905334685538,2.933267474298502,-0.41291320836757084,4.763872535632099,2.7136094929187986,2.592054628145099,2.779622346205276,2.5927829827820883,-1.612871059264355,3.641612440738879,3.0559256464396136,-0.34765123433923617,2.779622346205276,3.4372739860389814,3.302849366443414,4.441559383298615,3.311628729129528,-3.7548830087628073,2.5816871627604465,3.259891828011324,-0.6141710794612538,4.441559383298617,1.3642174102918043,3.5615887401851425,4.661061965777001,3.489782848236726,-2.785833305773934,3.685664975845363,3.344227356346833,-1.0941943326663672,4.661061965777002,1.2200084562967008,2.693611944212958,3.1345631967205203,2.600261959588749,-2.764252021536496,1.8940617132360837,2.4453793455495574,-0.4260002868787969,3.1345631967205208,2.3451463312646643,3.376005559248446,-0.16972033308061132,-0.358335909860857,2.0159641522450698,1.308077199103733,1.1687913215429124,-0.03000610886599966,2.3417874373843928,3.019516394449079,0.996080118813482,3.345005255403991,3.041882557673231,jumping,Jumping_18-2026-03-04_16-33-28,1,1.2115234375,3.122565185546875
-2.224647009959329,1.5084840390574275,0.7825850343972257,1.5670676073657317,-2.724624958927996,0.9117465768494092,1.7121854576857045,0.19757148474154093,0.7825850343972256,-4.058527117930239,3.060879219361144,4.169640674869831,3.2071150582595616,-2.1166126643943532,3.089340610490782,2.7588290530988075,-0.41291320836757084,4.169640674869831,2.3579843907966644,2.390035642692267,2.383245438275113,2.3896524776178896,-2.4063012027220507,2.497262411542908,2.4907789829447586,-0.34765123433923617,2.383245438275114,-1.9120898786348013,2.379050535356604,2.4655670199593995,2.3664661764035504,-3.7548830087628073,1.3568151725625113,2.638342261087675,-0.6141710794612538,2.4655670199593995,4.137767728062552,2.598159931982218,2.606402383003736,2.676750242940568,-2.785833305773934,3.685664975845363,3.344227356346833,0.24569893413102672,2.6064023830037364,2.8508895842137636,1.7032326229690464,1.3791202830764506,1.8232486785826791,-1.1869976459960092,2.1005822180376406,1.7134866139835583,-0.4260002868787969,1.3791202830764508,2.503302148391796,2.2266295173007857,-0.2706130003818772,-0.4810311398778987,2.324581839564222,1.279038988991047,-0.39901250224279916,-0.3503203014397614,2.429763388736556,2.3517185049077844,0.5646365868642004,2.2506201185773644,2.862263060866856,jumping,Jumping_18-2026-03-04_16-33-28,2,2.176695556640625,4.08773876953125
-0.5835167185567837,1.5875775456848025,0.8655682340865315,1.473240161845002,-2.724624958927996,1.4925764373913897,2.079694073793916,0.043297095848780554,0.8655682340865313,-3.445781835005943,2.538687003118596,3.0046274851536054,2.6526304710311024,-2.1166126643943532,2.2822796021422396,2.2996100657411227,-0.41291320836757084,3.0046274851536046,4.5189306174501445,2.314568374428665,2.2418849039909485,2.3305523219120263,-2.4063012027220507,2.5178681074213163,2.5052971169271876,-0.34765123433923617,2.2418849039909485,-1.6902839812633892,2.554666313645362,2.802294731145055,2.535599722852743,-2.1090277208386032,3.197744448130703,2.7178428271178108,-0.6141710794612538,2.802294731145053,-3.8396494206021208,2.308653629010612,2.0927998290853203,2.3932978971054704,-3.4027971592807,1.2393494515246173,2.372790472946332,-1.0941943326663672,2.0927998290853207,2.886605633243579,1.8556312282922542,1.6117682428630573,1.9650838331168599,-1.0010744244327476,2.308445640875979,1.7217936901634214,-0.31321100482289327,1.6117682428630578,2.2054539961945716,2.1287532203269817,0.32888261255935036,0.2621004947827585,2.1641770248921293,1.615709185587364,0.74166105178774,0.031338135299666364,2.165780067247934,2.57211488816682,-0.08252871105972226,2.1016670425439976,3.0687566703868097,jumping,Jumping_18-2026-03-04_16-33-28,3,3.141855224609375,5.05289892578125
0.12109034842129922,1.347770839342848,0.6230512219055804,1.2347860590505677,-1.825039073158594,1.4925764373913897,1.7048549237647588,0.19757148474154093,0.6230512219055802,-3.570791951419514,2.3483247473347673,2.6210546763731224,2.5090548505691204,-2.1864906719530097,2.2822796021422396,2.332656803093992,-0.41291320836757084,2.6210546763731224,2.9958607152666286,2.463374551534598,2.524117212362069,2.46627455364345,-2.1244215645177005,2.5178681074213163,2.419632672509422,-0.34765123433923617,2.5241172123620697,1.7692860214862043,2.8131575099462323,3.33116050037379,2.7928140774277135,-3.008739950602142,3.197744448130703,3.185046290042354,-0.6141710794612538,3.33116050037379,0.8026201469230042,3.1842536665478405,3.7930429394582528,3.1124215026536834,-3.4027971592807,2.9119575586410384,3.2505104325035177,-1.0941943326663672,3.7930429394582537,-1.1445780699791575,2.4723115985997315,2.692361900166025,2.3826284598619134,-2.1748980296000195,2.308445640875979,2.345693755903825,-0.4260002868787969,2.6923619001660253,2.255947873708765,2.8628582953468857,0.5283446351292036,0.9722759775384394,1.9927594315765444,1.3094747858797153,1.4404880972680658,-1.2583358372004378,2.323104462943467,2.5807836570573404,-0.08252871105972226,2.8419329652339367,2.9547280772005022,jumping,Jumping_18-2026-03-04_16-33-28,4,4.107042236328125,6.018085205078125
-0.3922871602092263,1.2321431677977366,0.5158025771264121,1.1310895633807159,-2.455804723623373,0.7752063750565185,1.5137804163202877,-0.41952607082950055,0.5158025771264121,-4.16349861279737,2.215377336340747,2.3662028561009896,2.509895072891915,-2.2645664067055553,1.7679752581125199,2.0769404297463328,-0.41291320836757084,2.3662028561009896,-0.4628476711272387,2.7153679657275163,3.0344313200446065,2.70866602805938,-2.1244215645177005,3.008036966576102,2.764990442187088,-0.34765123433923617,3.034431320044605,-2.685975907625745,1.6800065364271715,1.3062854596626654,1.702490633679817,-3.008739950602142,1.4842752810761488,2.3155627625860014,-0.4605148263957443,1.3062854596626652,3.5827209234997994,2.008800490417282,1.6114189286941834,2.0860067185893554,-1.3600272166363947,2.9119575586410384,2.2165011363559715,-1.0941943326663672,1.6114189286941834,-4.217575259793883,1.5890602064786177,1.2137591837259638,1.9633105951694765,-2.1748980296000195,1.8829802146831023,2.1264201517147563,-0.20042172276698966,1.2137591837259638,2.565857736099277,1.9742390744428429,0.4173878378620575,0.6589145686698494,1.8061456138881824,1.0316734595348032,1.0388530348864522,-1.3271396686994579,2.711385323449129,2.460025901478945,0.5646365868642004,1.9644308958077488,1.8327993095933834,jumping,Jumping_18-2026-03-04_16-33-28,5,5.072215576171875,6.983258056640625
-0.3723335088797349,1.5469779095388496,0.822603647888653,1.4275866811962585,-2.455804723623373,1.094742246291304,1.715960424291727,1.1232178180981032,0.8226036478886529,-3.3408197487639413,1.9608729345913984,1.908231313158139,2.1372486259003884,-2.2645664067055553,1.7679752581125199,2.0769404297463328,-0.41291320836757084,1.908231313158139,0.8980741753878688,2.6016518254660688,2.7991037467622606,2.5957997627770344,-2.079378103134764,3.008036966576102,2.7513015389424162,-0.34765123433923617,2.799103746762261,-1.6478280016708227,1.8565289308786384,1.5717110377334556,1.8465872915632882,-1.582976653059098,2.860023561902039,2.27330127356801,-0.4605148263957443,1.5717110377334553,-3.923738101290901,2.404200475473027,2.2570020819654846,2.4886081327581695,-2.750300293675011,1.0504774264076917,1.9433968830737391,-0.711367685009969,2.2570020819654846,-1.8089001939791598,2.579628542055297,2.9032123076991154,2.5257488307630283,-1.460509890523314,3.2806024357989343,2.4670125041974806,-0.31321100482289327,2.9032123076991154,2.400263583086034,2.2326170457624666,0.5252303132421108,0.026078979091711172,1.7574936488150072,0.9643783921190768,2.0301225250174517,-1.181982417638787,2.508611088869746,2.5324273539487936,0.996080118813482,2.2388465572260774,2.447456599170243,jumping,Jumping_18-2026-03-04_16-33-28,6,6.037388916015625,7.9484169921875
5.809886383860261,4.50456048159294,5.985701838854968,4.743622153679325,-1.770002376752953,5.779990135085207,4.394698542164168,-0.2652516819367402,5.985701838854968,-4.0737314362992745,1.6359186540086346,1.3805783726777001,2.025112045624871,-2.4679448651148546,1.0029540024588497,1.7378239559324962,-0.06673086525321109,1.3805783726777003,4.6289061318346905,2.127121151262949,1.9065667315314472,2.1460750045501342,-1.8898765694452786,2.0959501292035725,2.0510831148141238,-0.1323173956862967,1.9065667315314472,1.0473515290302318,2.8451383210044874,3.3993434369583597,2.814922291725238,-1.9040328739958539,3.2274368801162567,2.6264600392370854,-0.4605148263957443,3.399343436958358,-5.220325888135704,3.0299403229833506,3.4615415376880456,3.1674796654237287,-5.16822367815296,1.3001419978476547,3.2983156479543307,-1.0941943326663672,3.4615415376880447,1.7788767392430405,2.878603774704113,3.526270226655892,2.810126683571782,-2.853468916559475,1.9266348809441796,2.509586446934715,-0.4260002868787969,3.5262702266558916,2.5055108691792176,2.926468555648545,1.3556392528631995,2.555087374056794,1.674071637628702,0.006110531500836254,-2.0744060605259538,-1.3095034920893105,2.292831583280521,2.4981993510972926,-0.29825047703436314,2.8344637447420413,3.4124544473492207,jumping,Jumping_3-2026-03-04_16-16-46,0,0.23299072265625,2.144131591796875
4.833054861327028,5.961516081477098,10.044954640134781,5.8910179565798115,-2.356190107984637,5.779990135085207,4.6389510525784186,-0.2652516819367402,10.044954640134781,-4.6998598079230405,2.0050290121832344,1.984872480776571,2.459348388629959,-3.1750673034739973,1.0998325034291239,2.1273606231814854,-0.06673086525321109,1.9848724807765719,2.968465934182344,2.8841781921733296,3.3990590100084312,2.8851641119444804,-2.190279696911329,2.630565386581522,2.519050250771471,-0.1323173956862967,3.3990590100084326,1.0446732799094043,1.7147609559131556,1.3570843380028486,1.6971953022322162,-1.709417739171517,1.4598937105005823,1.628477235700221,-0.6141710794612538,1.3570843380028481,-3.7376136385070335,2.5084151350585073,2.442058554850443,2.5736371081295037,-3.0912293533921265,3.0856762977157692,3.1839619061798836,-0.13712771352537156,2.4420585548504428,3.4798503180677796,2.0730844164275557,1.9673291867978515,2.246122498374152,-1.3589196936299326,2.8242428171127947,2.1778205528739196,-0.4260002868787969,1.9673291867978513,3.4713838948569644,2.170009341439454,1.34532251417754,2.7063084103583734,1.4938333239252157,0.7741798653084595,0.5113206524752234,0.3489864962732205,3.2229115751013895,2.911576058474059,1.211801884788123,2.1542893447205786,2.4362010436268173,jumping,Jumping_3-2026-03-04_16-16-46,1,1.198199951171875,3.109341064453125
2.9202471547528925,4.935896898079941,7.08319643803323,4.757056281873746,-2.356190107984637,5.055888021651009,4.180789749747125,-0.2652516819367402,7.0831964380332275,-5.179158584482423,2.389211330454751,2.70158662545351,2.8711342312701937,-3.1750673034739973,1.8021816209555301,2.526998379417566,-0.5860043799247507,2.7015866254535092,-1.6933722399617521,2.6557319092125447,2.9099849622201943,2.6515924516122173,-2.759524146398369,2.630565386581522,2.6920461074918935,-0.1323173956862967,2.9099849622201943,0.2665264737659023,1.8986584020997497,1.6377865004404046,1.87233060737659,-1.0333360337921145,2.39484237871772,1.7518316065856265,-0.15320232026472522,1.6377865004404046,1.1984426135462192,2.0744468440787487,1.7124065852052592,2.033784091825662,-1.205552381636344,3.0856762977157692,2.229469930542693,-0.13712771352537156,1.7124065852052592,1.2621073094773634,1.8181264362913672,1.553249778784096,1.7610064161868872,-0.8307803759459054,2.8242428171127947,1.8971087375955058,-0.31321100482289327,1.553249778784096,3.143163379774539,1.7456017704177333,1.3696382318775262,2.7322609831417064,1.7358713755753075,-0.3373515647638839,0.8896419886086494,-0.9766023050383793,2.8866261334567596,2.727307215188116,1.211801884788123,1.794511375484572,2.2885542635357496,jumping,Jumping_3-2026-03-04_16-16-46,2,2.16343603515625,4.074578857421875
3.1755960622942676,5.092002323135722,7.502004119248801,4.923650934674429,-2.3371273484760415,5.819611468926948,4.65607760424276,-0.2652516819367402,7.5020041192488005,-5.264117636082314,2.821793148436668,3.615716382902646,3.235133725758532,-3.056542221151881,2.257840068276415,2.7302158221610906,-0.5860043799247507,3.6157163829026464,-4.008263848776609,2.4607371459519003,2.5189914301888625,2.470381247978531,-2.804962082907983,2.288347580641106,2.4647388453739434,-0.1323173956862967,2.518991430188862,-0.6315318936217434,2.336131752202127,2.386051708921259,2.307245444911943,-1.3454282509439555,2.39484237871772,1.9138951640004904,-0.6141710794612538,2.3860517089212596,0.7009129116487754,1.5269922008121275,0.9457152330885955,1.48887343099388,-1.2788623763227418,1.5579243055408531,1.4648729036137158,-0.3285410373535707,0.9457152330885958,-1.6519308500304697,2.244678523624708,2.2674966364608515,2.194888695966004,-2.1436394292708894,2.270499752480418,2.309523163279588,-0.31321100482289327,2.2674966364608515,3.185401284227149,2.070448654852158,1.7207174886634944,2.7517575616277457,2.154657873420356,0.1960324387810222,2.173107486204116,-0.42325494782778733,2.8825783057006733,2.3792624968381277,1.211801884788123,2.0447534528397537,1.6763906841031846,jumping,Jumping_3-2026-03-04_16-16-46,3,3.128658935546875,5.039804443359375
6.280742708952506,5.305299387152311,8.092818031893627,5.5108990405012985,-2.3371273484760415,5.819611468926948,4.65607760424276,-0.2652516819367402,8.092818031893628,-3.8415266276139604,3.2924921318701412,4.739305012462183,3.3757098007060997,-3.507296435539247,2.257840068276415,2.943386698864384,-0.5860043799247507,4.739305012462182,2.98445688630779,2.917713091805864,3.4736688591269362,2.918657185755501,-2.804962082907983,2.4342971411457954,2.5675703773244836,-0.1323173956862967,3.473668859126937,-1.4913038466642607,2.1438282557022257,2.043168496556123,2.1269153740816047,-2.0333046399945016,2.1640623380401953,2.1539891779281763,-0.6141710794612538,2.0431684965561225,-0.48308434913842024,1.9500756016177025,1.523169283639568,1.9015498770116632,-2.1802771903399307,2.011794153566266,2.159324376312511,-0.13712771352537156,1.5231692836395685,-0.5530669578870618,2.399533576033347,2.5532181241047125,2.2909351303285352,-2.1436394292708894,2.223151078611624,2.28512091168964,-0.4260002868787969,2.553218124104711,3.660092604060405,2.146710751450785,1.5208888911841212,2.634353645275902,1.6733223216571755,0.9560992694612006,0.9317871982094498,-0.13303405108985672,3.3745680999608805,2.698849162118613,1.211801884788123,2.110953053676666,1.9471283305552827,jumping,Jumping_3-2026-03-04_16-16-46,4,4.093869873046875,6.005031005859375
7.019590104560888,3.128096347878593,3.069871041704468,3.8821831368606827,-1.7210388430573436,5.117864696013205,3.955349646212049,0.043297095848780554,3.069871041704468,-3.3640422673081383,2.6602738912512494,3.261120316369875,2.7461546684157754,-3.507296435539247,2.0013421636291198,2.797438986345692,-0.41291320836757084,3.2611203163698756,3.318482315612261,2.519657108383806,2.634564933831274,2.524368512741434,-2.779780432292887,2.4342971411457954,2.5599175645026486,-0.34765123433923617,2.634564933831274,-0.0686172390766235,1.8535279192835312,1.5670443892744554,1.8270944739386616,-2.0333046399945016,2.807880524705434,2.48068855410926,-0.15320232026472522,1.5670443892744548,0.5314829112839385,1.741958971400555,1.2263129826707628,1.6969034239780891,-2.1802771903399307,2.011794153566266,2.159324376312511,0.05428561030282759,1.2263129826707637,-1.892171996019625,2.7775594985516054,3.3098268512260844,2.7205883356393743,-2.5913531744143237,2.223151078611624,2.523085656816797,-0.31321100482289327,3.3098268512260822,2.858743916953659,1.9485565889451637,1.1291050761215047,2.1493356933942933,1.4703045375959782,1.034026224533052,0.5380204295376363,-0.3286486801791587,2.6910589420067597,2.538030960801232,-0.08252871105972226,1.954971073432465,2.094954257975852,jumping,Jumping_3-2026-03-04_16-16-46,5,5.059109130859375,6.97025830078125
5.588026009014907,0.8804252897921505,0.22831122407676874,1.9934430216950128,0.36755063698393065,1.883336241651586,1.0384929109641994,-0.2652516819367402,0.2283112240767686,-3.1647820630835675,1.218891665020573,0.7972360514082001,1.4888908803633436,-1.5555335105042918,1.1124978598177748,1.3686566138622147,-0.41291320836757084,0.7972360514082,-0.0822373784527024,1.647075825053929,1.150533278453195,1.6417862760432154,-1.8963430675982207,1.4325092161293875,1.5856084288922407,-0.1323173956862967,1.1505332784531952,0.6461043286651384,1.7720474002918505,1.4423787090012326,1.7492789013282253,-1.4341254654117959,2.807880524705434,2.169546195456558,-0.6141710794612538,1.442378709001232,1.4025347750681436,1.897207434079001,1.445409406947184,1.866593663216357,-1.6110019798428468,1.901934695599088,1.8135186594130832,-0.9027810088381681,1.4454094069471832,-0.9790787254667119,2.8889402463272433,3.548749481936,2.778352439148088,-2.5913531744143237,2.195615098683111,2.508894342571052,-0.4260002868787969,3.5487494819359986,1.8704882110221568,2.210879113957757,0.27987550079923057,0.6607876050872216,1.6459420356004495,0.4543478370851267,0.8828507905602458,-0.8819780042654167,1.8204398863482867,1.2775116832783282,0.7803583528388411,2.2108106545976476,1.472980595653778,jumping,Jumping_3-2026-03-04_16-16-46,6,6.02433544921875,7.93548583984375
5.262214962593523,0.9098867493985467,0.25015523389017325,1.902062473211065,0.1655897393500883,2.259078741516905,1.3603895526477747,-0.41952607082950055,0.25015523389017313,-3.053316235950932,1.2276517951421155,0.808405462520374,1.4715724064603446,-1.8353456822111893,1.1591636617594145,1.527538421254885,-0.41291320836757084,0.8084054625203742,3.4448420532207886,1.737947892647676,1.2823143453326025,1.7487768496805511,-1.3905030820079072,1.2613456767668394,1.311284944563719,-0.34765123433923617,1.2823143453326027,-1.8116563541291217,1.5075873438625655,1.0648472157337046,1.507357471000877,-1.4341254654117959,2.1087813643499915,1.8147950183271055,0.0004539328007843344,1.0648472157337043,-0.036849709747397,2.2488979506497127,1.9927625642169124,2.1913671436336375,-1.6110019798428468,1.901934695599088,1.8135186594130832,-0.9027810088381681,1.9927625642169131,0.6038724134001231,2.7771967888636735,3.3090606977295822,2.6590617396395686,-2.8329556189536658,2.195615098683111,2.6373086804388426,-0.08763244071108607,3.309060697729583,1.978630897218992,2.272150912234236,0.7324396801402157,0.9161093485324048,1.123052496797297,-0.3705582169700236,0.12376034597855451,-0.06404821013814607,1.981237151172382,1.168358823832767,0.7803583528388411,2.2821501124018337,1.3649462818241853,jumping,Jumping_3-2026-03-04_16-16-46,7,6.989549560546875,8.900700439453125
3.3200828132564424,1.6933602080166645,0.9811621781875662,1.9249133177986364,-0.9137770963665998,3.3687444838377694,2.5122588392155567,0.043297095848780554,0.9811621781875659,0.8247229118889671,1.7611754694859174,1.5763834500902463,1.6562272956620523,-1.9041122000722246,2.0161943089350234,2.047711303128887,-0.41291320836757084,1.576383450090246,0.18509427095973457,1.5404904133210535,1.00271073413999,1.5354273878984623,-2.468990013307182,1.666001419834472,1.9241496811309042,-0.34765123433923617,1.00271073413999,-1.472495304053756,1.820373171794319,1.5158429284516637,1.807572200388408,-1.9092226379324644,1.9699753503389292,1.991068168188494,-0.6141710794612538,1.5158429284516635,1.2095518220255757,0.8549799421100097,0.2391250383362144,0.8495269714526918,-0.7860766174940466,0.6961847863496526,0.7632270795184564,-0.9027810088381681,0.2391250383362145,1.1322845461741018,1.1128375285883403,0.606535433307036,1.0788759074850562,-1.0271231733149255,1.0693237916745184,1.097028325096596,-0.4260002868787969,0.6065354333070363,1.3226574536082796,1.280309295177647,0.9432337142751562,2.287140102175682,2.022865759004898,1.159564945923275,-2.8464362711660964,-2.19608566563732,1.2839611157470845,2.039142272258883,-0.513972243009004,1.260397238534708,1.3551688969777456,jumping,Jumping_4-2026-03-04_16-17-42,0,0.23278564453125,2.14387646484375
1.9312199805754862,3.2343524434490916,3.263149818393546,3.0996939360676516,-2.9949118697303616,3.3687444838377694,3.3794253898296702,-0.41952607082950055,3.2631498183935452,-0.6225692553635163,2.8313150616819875,3.6371143891485627,2.6520820382321446,-2.1222205390654247,2.0847292548772787,2.1898556848954556,-0.41291320836757084,3.637114389148563,-1.9028893113533545,2.252636337085009,2.1286051689756094,2.2502837294043907,-2.977631887169478,1.8370616207021437,2.1992518623584307,-0.34765123433923617,2.12860516897561,0.775967873691801,1.5273583791710377,1.0916387732570731,1.5085070373685547,-1.6235510204447143,1.7372641558548707,1.7246372579620763,-0.7678273325267634,1.0916387732570734,0.72325440585165,0.752299914305304,0.15392756497022064,0.7328981543567442,-0.9715959396667948,0.6961847863496526,0.857133250613424,0.24569893413102672,0.15392756497022056,1.0370943146840021,0.8012293034037626,0.28125357282205704,0.7756656860414358,-1.5471222410872538,0.6230382864124603,1.1434097875162992,-0.4260002868787969,0.281253572822057,2.5869738610423045,1.0174514032418307,1.4872753373043415,2.528771461097259,2.073756788306398,0.36434226162102434,1.0968594025413143,1.1466053089357635,2.4040631422705356,2.196410776299672,0.7803583528388411,0.9528382344109659,1.3306213583240454,jumping,Jumping_4-2026-03-04_16-17-42,1,1.19798974609375,3.109095458984375
2.509876831556009,3.560835206594592,3.89031553786232,3.452611651733604,-2.9949118697303616,2.733251705928634,2.9773298929862038,-0.41952607082950055,3.89031553786232,1.3710188592079777,2.4774757343961493,2.8788921772525637,2.3631024263818725,-2.1222205390654247,2.4330205951317487,2.3880340071320747,-0.41291320836757084,2.878892177252563,1.9542329962160756,2.526968514224265,2.6490617152892986,2.5243439644412407,-2.977631887169478,2.617559878897598,2.7491667185418303,-0.1323173956862967,2.649061715289299,2.765434383319359,1.7935718762802946,1.4749290980775585,1.8174653395039138,-1.6235510204447143,1.7372641558548707,1.7246372579620763,-0.6141710794612538,1.4749290980775578,-3.355241168528519,1.5895650978744786,1.024662985291356,1.689110480728617,-1.5788352884449526,1.6858232556363413,1.6838296091082372,0.05428561030282759,1.0246629852913562,0.6411250264478958,1.7467791226599267,1.444206223915246,1.6607682210608508,-2.2289493805171645,0.7788520358480148,1.5861106353074743,-0.31321100482289327,1.4442062239152456,2.7514432267252,1.8342909623896204,1.567238055590063,2.497560586153365,1.699428812691812,1.2133582182967129,1.8036692941534178,-0.4785951408531132,2.5405398361775613,2.667636362457411,1.211801884788123,1.7488724483922609,1.674216214479468,jumping,Jumping_4-2026-03-04_16-17-42,2,2.16319384765625,4.074302490234375
3.1513614667458234,3.386150289418567,3.548500522507655,3.364753230119093,-2.796462228765447,2.8225669019942,2.9511523873709664,-0.2652516819367402,3.548500522507653,1.7530469279520147,2.052519589800583,2.0686209053159454,2.0044571697868228,-2.971110604703127,2.4330205951317487,2.789491461640075,-0.5860043799247507,2.0686209053159454,1.4528181379186402,2.6534461823850077,2.90526055596386,2.6487986375981953,-3.2658086577778542,2.617559878897598,2.836744888804614,-0.1323173956862967,2.905260555963859,1.6125488019526881,1.083643698276442,0.5460735761038842,1.0880113951961357,-1.2307820326478713,1.6911565396297403,1.4972829182097982,-0.30685857333023475,0.5460735761038839,-1.4712853401298425,1.8009438122419024,1.3079310415342584,1.7793160376705697,-1.5788352884449526,1.6858232556363413,1.6838296091082372,-0.9027810088381681,1.3079310415342584,1.7304738886785536,1.4292094013622783,0.9950947077110447,1.4320823322439784,-2.2289493805171645,0.7788520358480148,1.5861106353074743,-0.31321100482289327,0.9950947077110446,2.736331731206906,1.572763919159898,1.2739634774936663,2.4103923677154286,1.5854773970650575,0.3315897592313257,1.5986109705458826,-1.624360456929657,2.643816494156487,2.716452979020872,1.211801884788123,1.5305330976395708,1.3159086392720925,jumping,Jumping_4-2026-03-04_16-17-42,3,3.12838623046875,5.039510498046875
2.347641495870205,3.948350627995676,4.699931861080116,3.795209877689159,-2.796462228765447,3.414703553626988,3.325815152101168,-0.41952607082950055,4.699931861080115,-1.09509540712906,2.877487453560058,3.7416544218362633,2.7135220860193505,-4.162526104280345,2.6078402334276043,3.452408841578828,-0.41291320836757084,3.7416544218362637,-2.3761340462312908,2.989859340705085,3.636626675612504,2.9873577881499975,-3.648582840949916,2.9101541303368696,3.159224454200129,-0.34765123433923617,3.6366266756125056,0.6403827420486621,1.2418501134415076,0.7272179305800421,1.2246218211668383,-1.5360330717842774,1.1117924956777612,1.3618012434721853,-0.30685857333023475,0.7272179305800421,-0.2627083645483831,1.6186037822066044,1.0620622458342968,1.5746339146598283,-1.7140475397449877,0.5329286851551084,1.1472769244410295,-1.0941943326663672,1.0620622458342974,-2.2218508282168017,1.89037194173982,1.666710497101916,1.9126783189801169,-3.6652144547471495,0.5491611488115952,2.2311246125512105,-0.4260002868787969,1.6667104971019158,3.1729619083236043,1.5252955091193674,1.471870387022627,2.680140890920529,2.012039839098738,-0.5765423566108617,1.856157015429724,-0.7844580372683717,3.0380907303394356,3.0274662589743415,0.5646365868642004,1.5643265475445312,1.4420022994903592,jumping,Jumping_4-2026-03-04_16-17-42,4,4.0936064453125,6.004719482421875
2.4965237726807192,3.2029265264249918,3.205432170021243,3.12352401502428,-2.6205503225286426,3.414703553626988,3.2525162370593694,-0.41952607082950055,3.2054321700212425,0.36983099581167284,2.647604820332084,3.233975986826971,2.4750860197312483,-4.162526104280345,2.6078402334276043,3.452408841578828,-0.41291320836757084,3.2339759868269717,-0.4034858716843978,2.7583066947974446,3.125446018699304,2.751494867315953,-3.648582840949916,2.9101541303368696,3.159224454200129,-0.1323173956862967,3.125446018699305,-4.097158268936275,2.117803514972123,1.9984482639860288,2.1824285452581877,-2.133796906423869,1.1117924956777612,1.6722086429893293,-0.6141710794612538,1.9984482639860282,-2.512793870468643,1.4957672813598195,0.9071572181456142,1.5393833168232784,-1.7140475397449877,0.5273364496362328,1.1443423358111062,-1.0941943326663672,0.9071572181456147,-4.731862507298963,1.7339627656407903,1.4249349198831005,2.1865616539785715,-3.6652144547471495,0.7623975544724836,2.3410210044436717,-0.4260002868787969,1.4249349198831005,2.836585701870084,2.0111163039961806,1.312388117047714,2.60222380089185,1.8717733431761368,0.33071198347320585,1.462536987122918,-0.5276373854573119,2.802647871036568,2.6934703518072998,0.7803583528388411,2.019617271757303,1.6144105642214175,jumping,Jumping_4-2026-03-04_16-17-42,5,5.058814697265625,6.9699287109375
2.1496033111426396,1.1831879198747015,0.47229379419104645,1.277710309177896,-1.0001537590495897,1.4552552200889208,1.3375277205649743,-0.5738004597222609,0.47229379419104645,1.4750534786207758,1.1113677988875934,0.6639310351477841,1.116585273077218,-0.8561151058710653,1.6430696697592215,1.3397835586283542,-0.41291320836757084,0.6639310351477838,-2.8584037027020233,1.8425753548064574,1.4405994006968181,1.8472369624935125,-1.7750380522306752,1.771153761084583,1.7873417479261247,-0.1323173956862967,1.4405994006968186,-3.3918714475862175,2.538151334654713,2.769850573997584,2.5616775855782388,-2.402248002168154,3.2525426333692735,2.89791336146935,-0.6141710794612538,2.769850573997583,-0.6452861471268172,1.4587709280619112,0.8621947129898951,1.4233611989610897,-1.30672769848801,1.5833597007648343,1.4923252828546387,0.628525581787425,0.8621947129898949,-1.116604112467139,1.264385295704392,0.7853318077351316,1.2210184422590848,-0.6796974799234988,0.9974614243314528,0.8753318152448083,-0.20042172276698966,0.7853318077351318,1.794900629002363,1.8401244490607103,0.3838863329200977,1.742809417071311,0.9127433081150401,0.3676303326405674,1.4586090462918144,-0.3501971001212573,1.9127782721407012,1.479995186290275,0.7803583528388411,1.8459357917509893,1.8726981374186114,jumping,Jumping_4-2026-03-04_16-17-42,6,6.024023681640625,7.935124755859375
2.3745230401308914,0.9080976474467944,0.24881704770698648,1.0939996195487063,-1.4057248939252251,1.1844057375203834,1.3351463095453522,-0.11097729304397982,0.24881704770698634,1.509231155626222,0.8998182346630942,0.4221234566542084,0.9324577855101119,-1.6143251556633285,0.9622437401282566,1.3109655527301154,-0.23982203681039096,0.42212345665420825,-0.1785204440063043,2.006014573140989,1.7019003944970004,2.0002150716299743,-1.3356371188086338,1.7718272006620859,1.6542803834340907,-0.1323173956862967,1.7019003944970004,-1.1298039651617473,3.099602203312982,3.9634455097654704,3.067014964299524,-2.4385759814340444,3.359966267372046,2.971288885544104,-0.6141710794612538,3.963445509765468,-0.8756829055780718,1.5617097182886608,0.9892412878508093,1.5288449366027022,-1.30672769848801,1.5833597007648343,1.4923252828546387,0.24569893413102672,0.9892412878508094,-2.170217203118542,1.8797189333027018,1.649787515020063,1.8971905098527495,-2.882122718253275,0.9974614243314528,2.0459448826029663,-0.08763244071108607,1.6497875150200634,1.7909354695650328,2.184817809878246,0.26375072204293326,0.8506815388013567,0.26940355188264503,-0.15609114046926484,1.4700418323227293,-1.3602809183122098,1.9650342068683773,1.7693247189974346,1.211801884788123,2.2243130664217405,2.282795149479675,jumping,Jumping_4-2026-03-04_16-17-42,7,6.98923291015625,8.90034814453125
1.2413450872677996,1.7969257557535343,1.0994431414816785,1.711752981780083,-1.9088426856139398,1.253317304081569,1.58838769689911,-0.5738004597222609,1.0994431414816788,3.885412121327549,1.084264504493475,0.6314354503862402,1.5955493823870872,-0.6074096990145755,2.4905042700610696,1.7043573156706904,-0.41291320836757084,0.6314354503862398,-3.0165115449136186,1.1482892430632425,0.5214717795855959,1.1597346444272627,-2.7657233123397864,1.6347174810290348,1.9922865248524144,-0.34765123433923617,0.521471779585596,-0.3400007549900567,2.30223705819789,2.3240263067549165,2.2722360829744055,-2.9431603234955506,2.428397118316342,2.760594097646644,-0.4605148263957443,2.324026306754916,-0.7122490738628203,2.032038206773239,1.6468848337613173,1.9850200940977647,-1.5300242952227943,1.9408996043057893,1.7929766498473834,-0.5199543611817699,1.646884833761317,-1.2985529776235094,0.8334193897762244,0.3122165956879425,0.8298975338044585,-1.3999465430178433,0.9618659701691156,1.2398071046241528,-0.08763244071108607,0.31221659568794224,1.1062771441814236,1.4544476933866852,1.2091348070626644,2.286324213629105,1.5855660956058788,-3.1966631378348214,-1.9089613074068394,1.5277325658778649,0.9989015521542864,1.6022899023764108,-0.513972243009004,1.4471934446543149,2.95961943493621,jumping,Jumping_5-2026-03-04_16-18-44,0,0.2475126953125,2.158657470703125
0.9490420032474556,3.208038317729799,3.214788916122412,3.0145150435991837,-3.6218734144137468,2.658498028761966,3.191273110562544,-0.41952607082950055,3.214788916122412,3.926012574849658,1.9969101889914562,1.9706920295313217,2.307939396913435,-1.3755254742280023,2.4905042700610696,2.067614958052182,-0.5860043799247507,1.9706920295313228,-0.9033852448772343,2.6470291858746577,2.8920150603335175,2.6409832221831104,-2.7657233123397864,2.9541110519664793,2.9218902980739965,-0.34765123433923617,2.892015060333518,0.13839756909495485,0.5523365320796116,0.04622602097214973,0.5380837690484298,0.13978107358920644,1.0753408369273196,0.4730857593750109,-0.7678273325267634,0.04622602097214982,-1.401570821966146,0.34205789465950903,-0.1262428506687987,0.38168805300115305,-0.6508645121812926,0.524630561021491,0.6047604019402281,-0.5199543611817699,-0.12624285066879873,-0.0893495498011098,0.27078218344296656,-0.14138809808650898,0.2139395058603033,-0.4960534571661514,0.99141685142297,0.7746077988586324,-0.31321100482289327,-0.14138809808650896,2.5907426346290747,0.2661211347201217,1.2478150170525208,2.488559236201681,1.2849476500775148,1.4003602573758644,1.582929242400365,1.755897315591146,2.482316180497622,2.9628664308545463,0.7803583528388411,0.2904097409995499,0.6850627411585264,jumping,Jumping_5-2026-03-04_16-18-44,1,1.21274462890625,3.123901611328125
1.8542063925192167,3.1891499042672256,3.180276435995445,3.0515892961352247,-3.6218734144137468,2.658498028761966,3.191273110562544,-0.41952607082950055,3.1802764359954447,4.503780320649749,2.3524063653632603,2.629048457533169,2.7192915203327117,-1.3755254742280023,3.353880206453336,2.5588772283362444,-0.5860043799247507,2.6290484575331683,4.340674081992019,3.1355071863703894,3.975771012896851,3.1440393048326842,-2.6732382274989255,2.9541110519664793,2.8937836797304652,-0.34765123433923617,3.9757710128968515,-0.4096042792833699,1.2205493881694391,0.70196523969819,1.201098274433463,-1.3668947925167625,1.0753408369273196,1.2554739040093772,-0.6141710794612538,0.7019652396981897,-3.725683016968874,1.687809991221714,1.1531396476679823,1.8102936446446696,-2.050301210816839,1.1298506285001861,1.6307233276317445,-1.0941943326663672,1.1531396476679818,-2.05260844224918,1.6000538093315742,1.2293488360874123,1.6245434717717853,-2.7486227213719308,0.99141685142297,1.9718729636041736,-0.31321100482289327,1.2293488360874127,3.0932082044724285,1.3660362749727775,0.8476463633591975,2.155950758842762,1.0403446532631009,2.1190704450685787,2.2472098799882714,2.721136927793347,3.0455797905886652,3.275775516206667,0.7803583528388411,1.285468771243849,2.284072156131298,jumping,Jumping_5-2026-03-04_16-18-44,2,2.1779755859375,4.0891328125
1.3015217393646321,2.457063351296676,1.9721945766503577,2.3297005897514027,-1.8201627793248052,2.5609603740611906,2.3788218941699113,-0.41952607082950055,1.9721945766503568,4.648124616076646,1.9416756576805507,1.8752795805042788,2.4278911475903473,-1.1196181818029296,3.353880206453336,2.437853441669797,-0.5860043799247507,1.8752795805042788,3.736539457788128,2.911832322597576,3.460532951778218,2.9173450691677076,-2.95814272849064,2.743099165826071,2.8316949651637056,-0.1323173956862967,3.460532951778217,-4.6415689706756975,1.2842443898679954,0.7782773944676856,1.4279515669335356,-1.3668947925167625,1.2095601722058447,1.323582220945963,-0.30685857333023475,0.7782773944676855,-2.4992820912210036,2.6686970126507847,2.7388080880097805,2.6588188577079186,-2.050301210816839,2.587068987993407,2.395415089030311,-1.0941943326663672,2.7388080880097805,-2.4469425768849082,1.8445921552979372,1.5944583160489167,1.8962310712480275,-2.7486227213719308,1.3336026166768333,2.1482264377767017,-0.4260002868787969,1.5944583160489165,2.7986754782776777,2.1264273890020946,0.4327108894544838,1.800969010460296,0.9436380638380103,1.5711698810501402,1.401558548242018,1.6374751852388902,2.846258124254605,2.9028615281993755,0.7803583528388411,2.021055091312717,2.4101580542221597,jumping,Jumping_5-2026-03-04_16-18-44,3,3.1432060546875,5.054351318359375
1.1220958835712107,2.608381071744621,2.201186135440166,2.4597530282171896,-1.8752532694729938,3.0226523203416233,2.693903436645224,-0.41952607082950055,2.201186135440167,3.669148185289095,1.6499347549290675,1.4020160193388609,1.9726546858242417,-0.9174713904614368,2.4867889750440266,1.8488778152584635,-0.5860043799247507,1.4020160193388602,-3.7596844946448083,2.6701182318523102,2.939797165428494,2.6765868395604118,-2.95814272849064,2.5154434384593487,2.6712958031416836,-0.34765123433923617,2.9397971654284945,0.6901429805517926,2.065520637407339,1.909819217063669,2.0401308198522696,-1.073438621196692,2.724355861268614,1.939864580731443,-0.4605148263957443,1.9098192170636692,-0.052948691322544705,2.7921425651943212,2.9773821234194577,2.7239926927695906,-2.7686278288434307,2.587068987993407,2.7590176588567727,-0.13712771352537156,2.9773821234194577,-1.0604789085376662,2.408889185439401,2.5709309156767146,2.317505649024198,-2.882773917912108,1.4571789934472585,2.2832172531715114,-0.20042172276698966,2.570930915676714,2.616537756279882,2.479035117225857,0.9691673025315451,1.9300590614760775,1.1109615102775283,0.16284744123457853,1.1131621365365365,-0.5756104567257713,2.6756518831500533,2.545511441973981,1.211801884788123,2.4658004383052665,2.2738291384368643,jumping,Jumping_5-2026-03-04_16-18-44,4,4.1084375,6.0195966796875
1.869543436000642,2.589775903548416,2.1724487140719035,2.4991280347186513,-3.194523187403498,3.0226523203416233,3.2436163907042523,-0.2652516819367402,2.172448714071904,2.5138926836189346,1.827541111259203,1.683983899633106,1.9025290160145214,-1.1119669898855118,2.4867889750440266,1.9408587576896135,-0.5860043799247507,1.6839838996331065,-5.016521143994211,2.6330183671645897,2.863186688189057,2.6502496864173155,-2.694356760588555,2.5154434384593487,2.591130103591748,-0.34765123433923617,2.863186688189056,-0.22967601385552802,2.495532511286368,2.6868710143843884,2.4634486835743785,-3.067949995529146,2.724355861268614,2.975576434037491,-0.6141710794612538,2.6868710143843875,0.36819281495979356,2.7370735238920125,2.8698766192238527,2.6706914921676184,-2.7686278288434307,2.08773984511348,2.4969890621821618,-0.13712771352537156,2.8698766192238523,-2.5981398082173355,2.778352239229634,3.3115016301521494,2.7810079268320975,-3.058603163499027,1.4571789934472585,2.3766724174720553,-0.08763244071108607,3.3115016301521494,2.6219352593770027,2.8089982994263734,0.9796755791485279,2.007404826253217,0.9769765547895888,-0.44233385973611156,0.945256669010596,-1.8230589415512914,2.7376997207874894,2.334383478933465,1.211801884788123,2.7783929784879375,2.1392456484127886,jumping,Jumping_5-2026-03-04_16-18-44,5,5.07366943359375,6.984828125
2.225234973985808,1.8748832509309792,1.1918125380262936,1.8922457201974932,-3.194523187403498,1.992361898044718,2.5917204862227483,-0.41952607082950055,1.1918125380262938,2.231686518417527,1.4205528413537454,1.0661541271060408,1.5018799219949601,-1.1119669898855118,1.673047010964013,1.477838295977635,-0.06673086525321109,1.0661541271060415,0.7018502868659121,2.6020319490748958,2.79987657726205,2.595857990298416,-2.584479900755011,2.423370681200381,2.492866441388055,-0.34765123433923617,2.7998765772620495,-2.0995353737226696,2.4794524666141085,2.655842429090979,2.469138055099236,-3.067949995529146,1.9214536034136127,2.5681513686874764,-0.4605148263957443,2.655842429090978,1.5611635487522744,2.4656434717794293,2.365355746970555,2.4243604243489782,-1.6889873631745094,2.092069154242654,1.9527685015622287,-0.5199543611817699,2.3653557469705553,0.32903831259698757,2.472548800974981,2.692820488352439,2.357855997924272,-3.058603163499027,2.780588150851717,3.058722421763926,-0.20042172276698966,2.69282048835244,2.427931484682055,2.5385442430542287,0.7325877507885273,1.8797789264634421,1.1759069602308296,0.8899212804349643,1.260972242003118,-1.1231283537583723,2.6124740618997992,2.2903273933088966,1.211801884788123,2.4026024191702837,2.528957060313437,jumping,Jumping_5-2026-03-04_16-18-44,6,6.038887939453125,7.95005908203125
1.7749316474593553,1.1981939702735882,0.4855102981523952,1.2299509202387762,-0.9768337527008829,1.1724717723439464,1.1488851097185673,-0.2652516819367402,0.48551029815239516,1.822352239612473,0.8786009076300944,0.3993687871913466,0.9640900607754994,-0.29000616669490753,1.1577524820862968,0.7959128302682466,-0.41291320836757084,0.3993687871913465,2.031821770836874,1.9350338454310052,1.5863153381060529,1.9346124785557344,-2.5380245837172453,1.9099676450450256,2.117020619182575,-0.1323173956862967,1.5863153381060526,1.6014098821366523,2.1236127997667174,2.0083960077466894,2.1098034678030544,-1.8882278763406952,1.9214536034136127,1.9555440914490845,-0.6141710794612538,2.0083960077466885,-0.11295048507960002,2.4208992250322905,2.2862361982438766,2.3601889116297987,-1.6889873631745094,2.1128144645766977,1.9636548370223559,-0.9027810088381681,2.286236198243878,0.613229978566515,2.51836707803029,2.782021167316964,2.4080562185703274,-2.258254127693505,2.780588150851717,2.6333281684398266,-0.4260002868787969,2.7820211673169637,1.7540696763494124,2.3655775932738554,0.9677781731881284,1.4361577790420812,1.3735638237990317,2.046446255052509,1.7617871347715557,0.7040043794586611,1.8811455159124197,1.780964265486839,0.5646365868642004,2.2596971026420842,2.3831739220431065,jumping,Jumping_5-2026-03-04_16-18-44,7,7.0041328125,8.915289794921875
2.226414737599546,3.132806967191973,3.0783268770727865,3.0321884927328546,-2.9366946392443207,4.906362568329455,4.328064910551174,-0.41952607082950055,3.0783268770727865,3.6297672498995044,0.9779051501597663,0.5082193839190414,1.4505366551482632,-0.9887013934346807,1.7163498736170568,1.4441828743366032,-0.23982203681039096,0.5082193839190414,-3.58749838557636,1.8486641059622253,1.4500268044147444,1.8592312392048655,-2.4504952260841635,2.3661315912035334,2.411819030879803,-0.34765123433923617,1.450026804414745,-1.3142364922653382,2.2042468577363747,2.1485369648956554,2.1838329494136763,-1.2154488149737508,2.0032888841537533,1.6477092401525921,-0.7678273325267634,2.1485369648956554,-3.5562325990254124,1.7662750748388973,1.259718208924933,1.8681614316841892,-1.590056162798676,0.9166255354415727,1.2858642164697873,-0.711367685009969,1.259718208924933,-0.08769474289031673,1.7309530000586728,1.420423267211145,1.6342030981650124,-1.6135466396985099,2.2127411701445756,1.998005813846966,-0.31321100482289327,1.4204232672111454,1.8321553369746757,2.0662566367590793,0.5972522790381466,2.531534213030718,0.4919695075820084,0.3272929019314625,0.5453963025624807,-0.25081927832145573,1.7521980175930925,2.2330905509153074,-0.513972243009004,2.1410501880248005,1.2040526297050596,jumping,Jumping_7-2026-03-04_16-20-00,0,0.231112548828125,2.14218896484375
1.6506693454032169,4.6142227563493465,6.256413475098034,4.369145336142861,-2.9366946392443207,4.906362568329455,4.328064910551174,-0.41952607082950055,6.256413475098034,3.2511275838068308,1.5247636498727486,1.2147850859318903,1.7813544260130159,-1.7240236932704214,1.7163498736170568,1.7919318122550418,-0.41291320836757084,1.2147850859318903,-4.564987229930063,2.367093132576977,2.3398847280241726,2.3823640938547075,-2.94803818763304,2.3661315912035334,2.5630244944832272,-0.34765123433923617,2.339884728024172,1.8814367341335008,2.1521826778873328,2.057609576229589,2.143536035282778,-1.8863405722713513,1.3375030691711154,1.6582439412982257,-0.6141710794612538,2.05760957622959,-4.019962622022486,2.1404390130440305,1.8164124794987406,2.2505262057261346,-1.730504831862933,2.8093136158891494,2.350165930758196,-0.711367685009969,1.8164124794987413,0.742658700323083,1.2256914072389815,0.7383991757766408,1.161492008114493,-0.38404368446701165,2.2127411701445756,1.3445115654606072,-0.4260002868787969,0.7383991757766415,2.676433557337244,2.099967105967903,0.7285350951965798,2.7933088382057045,0.7717476582725564,1.1295954445335397,-0.01853689430151505,-0.9007713033891627,2.528690039480147,2.4767523203582953,0.5646365868642004,2.1509996984382176,1.5720562111892782,jumping,Jumping_7-2026-03-04_16-20-00,1,1.1963095703125,3.107399658203125
2.2586467615968036,3.576110856398283,3.9208900722234086,3.443498890468292,-2.108610189480391,4.263252544293573,3.576103796481206,-0.41952607082950055,3.9208900722234077,3.61627660436498,1.565751577175471,1.2750486578744349,1.8938069418700114,-1.7240236932704214,1.2576268851280348,1.5309177079029146,0.10636030630396878,1.275048657874435,0.13391110481412125,2.1887472809722843,2.014322402112839,2.182684901759412,-2.94803818763304,2.2291131368550663,2.466485542824683,-0.34765123433923617,2.014322402112839,-0.1035254705372816,1.7732201443139979,1.444145122851604,1.7475463716211663,-1.8863405722713513,0.9635719184178273,1.4684961581258713,-0.6141710794612538,1.4441451228516038,-0.030689331281134716,1.9273343282715483,1.4895247446266555,1.876096035103072,-1.730504831862933,2.8093136158891494,2.350165930758196,0.43711225795922587,1.489524744626655,0.4615796275669895,1.06219752180731,0.5497949993462442,0.99149998926042,-0.38404368446701165,1.1039117296404137,0.7730502600710729,-0.31321100482289327,0.5497949993462441,2.339289655287132,1.7118837181552067,0.4354165477691444,2.1360813834659917,0.30622891694838983,-0.870984289598547,-0.7306010776738932,-1.8518194488663302,2.269439957380256,2.2445608534816905,0.5646365868642004,1.7301231573114852,1.4653634319686926,jumping,Jumping_7-2026-03-04_16-20-00,2,2.16150634765625,4.072597900390625
2.163871360759487,1.342487466457774,0.618013314502484,1.4165348464970866,-1.8350313027322236,3.0044632786212166,2.665635004113157,-0.41952607082950055,0.6180133145024841,4.348080423315098,1.083730889752137,0.6308001425582573,1.7240339807395275,-1.2768269404077823,1.9467250179948992,1.7115271524857893,0.10636030630396878,0.6308001425582573,0.5142415022068706,1.873549863967933,1.4888052675347183,1.8683064074063749,-2.168780921110898,1.6864411602290288,1.8473160430571582,-0.34765123433923617,1.4888052675347188,-0.5527067898834574,1.9947435125633692,1.7924184491151165,1.9686749691505705,-1.3857665441938607,2.5898949433222533,2.0338196299635243,-0.6141710794612538,1.7924184491151167,-0.7357815413529618,1.4032473200271567,0.7961858364699782,1.3709935204719526,-0.8375058925919571,2.5412490581961467,1.757477826254588,-0.3285410373535707,0.7961858364699784,1.3174642039455342,1.3608799684720405,0.9062005048589565,1.32930023489979,-0.759797452634676,1.1039117296404137,0.9727674915443684,-0.31321100482289327,0.9062005048589566,1.7798272997559337,1.687943702368034,0.48245795634574523,0.3198481425714585,0.3545118326515169,-0.42661906646489883,1.4206131069563703,-0.566969941822593,1.8474906928478771,1.8068125059330924,-0.08252871105972226,1.663085770649176,1.3613764249604408,jumping,Jumping_7-2026-03-04_16-20-00,3,3.126690185546875,5.037797119140625
2.921891520957385,1.0387927351674289,0.35054297454554084,1.3188898503847761,-0.1894409175390602,3.0044632786212166,1.9799509454372126,0.3518458736343013,0.3505429745455408,3.5891173862146752,0.8018064231671501,0.31929207787361086,1.3152444477783292,-0.10368504406898273,1.9467250179948992,1.1567243829103637,-0.41291320836757084,0.31929207787361047,0.2183432178100406,1.851792203092057,1.45487937600595,1.8462792065008808,-2.168780921110898,1.4473797278574825,1.6788807751738632,-0.34765123433923617,1.4548793760059497,-4.843988241997922,3.017576597437891,3.7774201949168202,3.080637474046311,-2.779211808164647,2.5898949433222533,2.7574092747258905,-0.6141710794612538,3.77742019491682,0.3548248734089766,1.9123648969250584,1.4675398063559977,1.8622914628442573,-1.4434360274385993,2.114798872078919,1.8404030013156811,-0.13712771352537156,1.4675398063559977,-2.8385778763887535,1.892019058246566,1.6693329921053768,1.989729058399055,-1.4696269399232618,1.5585922420441787,1.5843799015571554,-0.31321100482289327,1.669332992105377,1.6592186254922663,2.553261805575739,1.041716811972138,0.5896176013995558,1.3608978728768897,0.9230579091501983,2.022891075796941,0.21571312576083662,1.7776770542171332,1.8064410925883956,-0.08252871105972226,2.4342228943699706,2.203560531201889,jumping,Jumping_7-2026-03-04_16-20-00,4,4.09190185546875,6.003002685546875
