acc_x_mean,acc_x_std,acc_x_var,acc_x_rms,acc_x_min,acc_x_max,acc_x_range,acc_x_dom_freq,acc_x_spec_eng,acc_y_mean,acc_y_std,acc_y_var,acc_y_rms,acc_y_min,acc_y_max,acc_y_range,acc_y_dom_freq,acc_y_spec_eng,acc_z_mean,acc_z_std,acc_z_var,acc_z_rms,acc_z_min,acc_z_max,acc_z_range,acc_z_dom_freq,acc_z_spec_eng,gyr_x_mean,gyr_x_std,gyr_x_var,gyr_x_rms,gyr_x_min,gyr_x_max,gyr_x_range,gyr_x_dom_freq,gyr_x_spec_eng,gyr_y_mean,gyr_y_std,gyr_y_var,gyr_y_rms,gyr_y_min,gyr_y_max,gyr_y_range,gyr_y_dom_freq,gyr_y_spec_eng,gyr_z_mean,gyr_z_std,gyr_z_var,gyr_z_rms,gyr_z_min,gyr_z_max,gyr_z_range,gyr_z_dom_freq,gyr_z_spec_eng,acc_sma,gyr_sma,corr_acc_xy,corr_acc_xz,corr_acc_yz,corr_gyr_xy,corr_gyr_xz,corr_gyr_yz,acc_mag_mean,acc_mag_std,acc_mag_dom_freq,gyr_mag_mean,gyr_mag_std,activity,session,window_id,time_start,time_end
0.13578237969113854,-0.4179200355849526,-0.32804318650062064,-0.4302843060271966,0.566298539455456,-0.39006052196915586,-0.482768175589102,-0.7280748486150214,-0.32804318650062064,-0.8222918204549154,-0.5528398910743678,-0.5053307054490846,-0.43442796127164746,0.2751309703700199,-0.6908731915639122,-0.5232229929517734,-0.7590955514819305,-0.5053307054490846,0.33605266910315934,-0.4834475269069474,-0.42216778632544605,-0.48074459249231943,0.4950712447581853,-0.46423624352612675,-0.4775407514698626,-0.34765123433923617,-0.422167786325446,-0.5917380880823631,-0.5063178836068173,-0.45125884786415243,-0.4918787782014914,0.34420730309825237,-0.6230970522945732,-0.4949249461245783,-0.7678273325267634,-0.45125884786415243,-0.6413257232979696,-0.4320871770764264,-0.39252396826303687,-0.37941108780856275,0.3615060182961905,-0.48810355932211785,-0.43912496266199397,-0.9027810088381681,-0.392523968263037,-1.8368228285995194,-0.5395445972087127,-0.4681858637487482,-0.12057712698564399,0.15485288222603724,-0.8662692929804984,-0.52875823221959,-0.4260002868787969,-0.4681858637487482,-0.47926543302060437,-0.3324981853818772,-2.0911187446834054,-0.38795429562017975,-0.032533970690250526,-1.3733752938173776,1.0977232304558295,-0.1257838405330565,-0.4800301031350168,-0.4518322729202847,-0.513972243009004,-0.3295396732431374,-0.40816951733599327,walking,2026-03-04_14-00-18,0,0.0601943359375,1.04516259765625
0.63552402811839,-0.17459430823024547,-0.28427698245550703,-0.14164823197063128,0.35629734845425154,-0.1572728775906309,-0.24797316690551535,-0.7280748486150214,-0.284276982455507,-0.8455745177354959,-0.20492963015229732,-0.39973973153454817,-0.15819072908172505,0.07671666542251449,-0.34149958610508213,-0.230594681775281,-0.7590955514819305,-0.3997397315345481,0.012717677493742552,-0.42398478233831455,-0.41774642382010757,-0.42616058557277653,0.39423751212373986,-0.43931884803915927,-0.4293409191106603,-0.5629850729921756,-0.41774642382010757,0.3531307611551956,-0.36372221395392645,-0.42293485726464064,-0.36417175796387546,0.34420730309825237,-0.2745836794442124,-0.3180751710495215,-0.7678273325267634,-0.4229348572646406,-0.9781678263847351,-0.37208492312140745,-0.3841488271648509,-0.2828858261605939,0.295104908156233,-0.4550362852096856,-0.3881616236588649,-1.0941943326663672,-0.38414882716485094,-1.7429072244250094,-0.3117001879588934,-0.4152458362747321,-0.03919814421978184,0.1116312841050649,-0.499404402439017,-0.31671303953141533,-0.4260002868787969,-0.4152458362747321,-0.3278809605145053,-0.22748163309568328,-1.7904774634839786,-2.4360017038668267,0.4825807335265505,-0.5242830470463798,1.636005577052136,1.034215478907317,-0.3466486904683367,-0.42577379139876315,-0.513972243009004,-0.23074121611253434,-0.3362612428645414,walking,2026-03-04_14-00-18,1,0.55765234375,1.54262060546875
0.009104935714548654,-0.05357630355222358,-0.25211837307623386,-0.09214534276713182,0.33499524146756987,-0.1572728775906309,-0.23909701199576083,-0.7280748486150214,-0.25211837307623386,-0.22761382184677675,-0.10657180218503824,-0.35657970098933284,-0.13814501807431004,0.07671666542251449,-0.3287041609245691,-0.2233140646553561,-0.7590955514819305,-0.35657970098933295,0.2409868855974291,-0.4271470585694214,-0.4180386204099694,-0.427709905784155,0.39423751212373986,-0.43931884803915927,-0.4293409191106603,-0.5629850729921756,-0.4180386204099694,-0.4455890647995324,-0.2732116477474917,-0.39870827430147243,-0.27443653237966315,0.32933262996951906,-0.2745836794442124,-0.3103510359697512,-0.7678273325267634,-0.39870827430147243,-0.1599973054282514,-0.2539453015942639,-0.36163559594536987,-0.2590508625199597,0.295104908156233,-0.3323388182368388,-0.32377474469362977,-0.9027810088381681,-0.36163559594537,0.4457248681132692,0.09045852571005156,-0.2474502893296243,0.05353910998481718,0.1116312841050649,0.2599110080116216,0.07461799823505842,-0.31321100482289327,-0.2474502893296243,-0.31805198630389575,-0.18739474097636968,-1.526825814567127,-2.252613734976911,0.37819878557059683,-2.463535637014217,-2.65248290572574,2.7902304624438883,-0.34053164244148465,-0.4049771312422263,-0.29825047703436314,-0.20006041716071665,-0.14247832598635485,walking,2026-03-04_14-00-18,2,1.055111572265625,2.040079345703125
-1.0843864966916563,-0.03704187038060163,-0.2471885986721312,0.05980691325562002,-0.34752044133591936,-0.3001184745273521,-0.045089331106375995,-0.5738004597222609,-0.24718859867213117,-0.18930252823966326,0.07789550807627998,-0.25981607315370386,0.035138450519318076,-0.061102994371074734,-0.18156284726825297,-0.07441269226982936,-0.7590955514819305,-0.2598160731537039,0.12908557578131283,-0.3810305610194227,-0.4131425012591952,-0.3828735486827244,0.3393380480924587,-0.4014292484754637,-0.3859608976698041,-0.7783189116451151,-0.4131425012591951,-0.12629180696290707,-0.22128902226396654,-0.38262018775359424,-0.2285220335342792,0.32933262996951906,-0.3368047371266484,-0.34192451610933705,-0.7678273325267634,-0.38262018775359424,0.5649094150599411,-0.26230573766623577,-0.36349147392725345,-0.25232142901008525,0.34597342786133634,-0.3323388182368388,-0.34952337216180873,-1.0941943326663672,-0.36349147392725356,2.1481239252802586,0.03535882612395561,-0.27605186471960846,0.3020506171817861,0.5659435252060273,0.3772285819759339,-0.10639155130307121,-0.4260002868787969,-0.2760518647196084,-0.23561879334466895,-0.07967435836086954,1.053358693429311,2.0486189555170995,0.7909024571178459,-1.5737350035776414,-1.2939798705480847,2.6219868364977907,-0.2811249892638805,-0.30070568998554703,-0.513972243009004,-0.08386829458876226,-0.09477077921096518,walking,2026-03-04_14-00-18,3,1.552569580078125,2.537537109375
-0.12444180689026603,0.14872280265726986,-0.18294574929511545,0.10061430397595354,-0.34752044133591936,-0.17845768770686127,0.0318891275378022,-0.7280748486150214,-0.18294574929511548,-0.42471215515889554,0.13947176241608444,-0.22292229718414197,0.10342327439411873,-0.061102994371074734,-0.18156284726825297,-0.07441269226982936,-0.7590955514819305,-0.2229222971841419,-0.24552666380857435,-0.3675596542485856,-0.41145503340567763,-0.3691924434693646,0.3393380480924587,-0.4014292484754637,-0.3859608976698041,-0.7783189116451151,-0.4114550334056776,0.5172286029809393,-0.19119408268773977,-0.372564361290638,-0.190652471889225,0.1873051265444442,-0.3368047371266484,-0.26817233264934126,-0.7678273325267634,-0.37256436129063797,0.1046695587396529,-0.2677147995046898,-0.36467087965647715,-0.2759386322842163,0.3215132407652999,-0.319252247828079,-0.33027478923155795,-1.0941943326663672,-0.3646708796564773,0.0632241434350979,0.3474077712136299,-0.09054065620307528,0.28832237118690013,-0.054365850629833734,0.3772285819759339,0.22330965649316556,-0.4260002868787969,-0.09054065620307518,-0.1857247264628608,-0.07802578658386396,0.6152748699554118,1.2215025074287367,0.8142324510457097,-0.4948321362166266,-0.09402651095998217,1.210519191925043,-0.2403435961016781,-0.3304081804736748,-0.29825047703436314,-0.05911086413179583,-0.1876982786312249,walking,2026-03-04_14-00-18,4,2.050028076171875,3.034994873046875
0.64495384179766,-0.005253824710372089,-0.2373489114043273,0.005013127065986242,0.08931390588347315,-0.06216255399170615,-0.07654741643527242,-0.5738004597222609,-0.23734891140432723,0.18170249940530286,0.24201779871730328,-0.1563784579693951,0.19400941552117365,0.09552505272833481,-0.013523908122071614,-0.05287087403526039,-0.7590955514819305,-0.15637845796939506,-0.012237257635771843,-0.3119444055132728,-0.40325672178934474,-0.3143293318091238,0.18263569612179198,-0.3412860146163773,-0.2959633168568373,-0.5629850729921756,-0.40325672178934474,0.29122108660278384,0.15065530208735986,-0.22068480498242798,0.14152713401920036,0.047558767717380275,-0.0008294835372150135,-0.02511727775731514,-0.7678273325267634,-0.22068480498242798,-0.3161775198152187,-0.26993236201125337,-0.365149562319314,-0.26762380058396523,0.25350482891545734,-0.2894447347976125,-0.2802084626188616,-0.3285410373535707,-0.36514956231931417,-1.873431533214606,-0.1921261801839259,-0.3752713258586942,0.07219411107173776,-0.054365850629833734,-0.6113335767611351,-0.2861690794192953,-0.31321100482289327,-0.37527132585869416,-0.1620683645888338,-0.001975808236325668,-1.8047155401275807,-1.9154104958404388,1.1705298498478238,-0.6680899340350156,-0.6513278026577648,-0.7651515719525784,-0.21239601776887818,-0.27895820771772223,-0.513972243009004,0.02850130723319366,-0.23450485391718623,walking,2026-03-04_14-00-18,5,2.547486083984375,3.53245263671875
-0.4852298959873717,0.08762627324983331,-0.2058698142608985,0.06590925438920503,-0.028137103436224713,-0.06216255399170615,-0.027607968629454423,-0.5738004597222609,-0.2058698142608985,-0.16994542658851128,0.21716975452751575,-0.17308812847768615,0.16664870978310362,-0.037755257778461636,-0.013523908122071614,0.01016010766423594,-0.7590955514819305,-0.17308812847768607,-0.3001555599752216,-0.3011516088813797,-0.4014360151237277,-0.30275040484401394,0.18263569612179198,-0.3412860146163773,-0.2959633168568373,-0.7783189116451151,-0.4014360151237276,0.026562704806492893,0.15196950631593661,-0.21996736029499664,0.14107754698600591,0.047558767717380275,-0.0008294835372150135,-0.02511727775731514,-0.7678273325267634,-0.2199673602949968,0.11731534829833061,-0.23101237809227276,-0.3563394769463613,-0.23988006415844768,0.25350482891545734,-0.2894447347976125,-0.2802084626188616,-0.9027810088381681,-0.3563394769463615,1.3097644734649312,0.4262452892582646,-0.03462858122310839,0.45800830411556037,0.03491401656936534,0.38487650412743396,0.17979796840862025,-0.4260002868787969,-0.034628581223108426,-0.16512491358511808,0.1488132931556589,-0.6749047216654046,-0.6868119663689579,1.534266427498272,-0.9370258581452561,-1.6682560000144329,1.2406305940131654,-0.2195111806987931,-0.22443494773569284,-0.513972243009004,0.17174467562421117,-0.24327502953862296,walking,2026-03-04_14-00-18,6,3.044944580078125,4.029910400390625
-0.5419824760086533,-0.06574104724651117,-0.2556630367658017,-0.06596125833998392,-0.028137103436224713,-0.3319036375397426,-0.1982813087186961,-0.7280748486150214,-0.25566303676580177,0.14510279248979283,0.038492454940016886,-0.28221826969611424,0.000463910770310898,-0.037755257778461636,-0.01804631505152522,0.007586850984653954,-0.7590955514819305,-0.28221826969611424,-0.01348740388853058,-0.2889257897387619,-0.39928336082470123,-0.2913459729203467,0.16797551382751708,-0.36693474195390313,-0.30957932136215893,-0.5629850729921756,-0.3992833608247012,-0.6349450266026198,-0.024969858178581814,-0.3073584842760679,-0.02609561051168661,0.13463725387791559,0.03165349208066315,-0.053852305744919025,-0.7678273325267634,-0.3073584842760678,0.31263194628021107,-0.21572017646740563,-0.35264060576099043,-0.2209187137926882,0.33571674475008006,-0.20727066233759084,-0.27870071956732323,-1.0941943326663672,-0.35264060576099054,1.9405370538930933,0.3356043009547239,-0.09859777872162619,0.48573404054661234,0.22961013283387866,0.38487650412743396,0.07631485629355815,-0.4260002868787969,-0.09859777872162608,-0.2139161137345608,0.0865659469026094,1.1782240965483435,1.3482268326362565,0.28397940802504323,-0.20117042706592952,-0.029709969015189925,1.3199880715135583,-0.24448151341181643,-0.26468617365739905,-0.513972243009004,0.0825571596571871,-0.07782674110758755,walking,2026-03-04_14-00-18,7,3.542401611328125,4.527367431640625
0.8464613142417597,0.14329781601329336,-0.1850524402261965,0.16586304822753156,0.027434173133283835,0.13751101503272142,0.07557611511077962,-0.5738004597222609,-0.1850524402261964,0.470508810039903,0.18646065359129071,-0.1932219271412367,0.16007244966494463,0.09438121628894981,0.06626891336660576,-0.006927689068411383,-0.7590955514819305,-0.1932219271412366,-0.44124609037399515,-0.25786508643162404,-0.39338341962357465,-0.25870113201515843,0.16797551382751708,-0.3508501445419783,-0.298246613082967,-0.7783189116451151,-0.3933834196235746,0.8771235787106629,-0.0030403407048384627,-0.2975340984717878,0.004804657290603596,0.13463725387791559,0.03165349208066315,-0.053852305744919025,-0.7678273325267634,-0.29753409847178774,-0.28613554229190036,-0.15438738994762788,-0.33646042608793497,-0.15803558588545094,0.22560917789266546,-0.1276498669658755,-0.1811845610824972,-0.9027810088381681,-0.336460426087935,-2.1986622187990044,0.48327658710154003,0.008092395997530573,0.6557380043499457,-0.6749066380930906,0.16768434897717213,0.44514031813748045,-0.4260002868787969,0.00809239599753039,-0.10465322442782908,0.13210919804354213,-1.2763943903758692,-0.9197377059886395,0.04575405803849849,0.5034760466230158,1.4665322179073756,0.6720023143283992,-0.14139197985027033,-0.3006582503910458,-0.513972243009004,0.15702663896104796,0.04646664724897037,walking,2026-03-04_14-00-18,8,4.039859375,5.024824951171875
0.4695593929316645,0.2169905276985582,-0.15524961911384058,0.18517797391078047,0.03557519177037183,0.13751101503272142,0.07218391815152249,-0.7280748486150214,-0.15524961911384064,0.13686441313246708,0.21176853184552658,-0.17667077508816548,0.1638382630328665,0.09438121628894981,0.06626891336660576,-0.006927689068411383,-0.7590955514819305,-0.17667077508816548,0.07760643743588488,-0.31029350522175464,-0.40298305817727215,-0.31253396534879274,0.20586140268707584,-0.27373558437653267,-0.2554277725420871,-0.5629850729921756,-0.4029830581772721,-0.47567597753535334,-0.1157794578868035,-0.34500910938934437,-0.11917543502319963,0.23926997890550505,0.016741462712892848,-0.11575305799206294,-0.7678273325267634,-0.34500910938934437,-0.32833278362087137,-0.1985705018217655,-0.34833321748736545,-0.1987360142305803,0.20025027484946642,-0.1276498669658755,-0.16834839145840857,-0.13712771352537156,-0.34833321748736557,-0.9405306216080256,0.7768342703378358,0.25819356267413457,0.7435244562284764,-0.6749066380930906,0.33111600609707637,0.5293686626493744,-0.4260002868787969,0.25819356267413457,-0.1752105400686768,0.10977100599671175,-1.785278578262257,-1.8543449602164392,0.8546612248521843,-0.5490959980256904,-0.8790860684298025,0.5291578176831759,-0.20986661552242505,-0.21983678246317132,-0.513972243009004,0.15743641421958135,-0.02572104089249346,walking,2026-03-04_14-00-18,9,4.53731640625,5.524148193359375
-1.2529224404772543,-0.0470354692804904,-0.2501836155825733,0.09326651099775078,-0.3208031259000899,-0.3337374912517108,-0.07749366175124664,-0.5738004597222609,-0.2501836155825733,0.39063145829151,0.2938204896211323,-0.12033858552448375,0.25388734323483614,-0.24715524142598624,0.031083186148433486,0.1345711449184826,-0.7590955514819305,-0.12033858552448375,0.4126421574434035,-0.2540479829421299,-0.3926156938406258,-0.25455324423416453,0.2652530600294941,-0.27373558437653267,-0.2734771547596142,-0.5629850729921756,-0.3926156938406257,0.3700026805544266,-0.022081670252687823,-0.306080867819223,-0.027985184903802803,0.23926997890550505,-0.008559893355422897,-0.1285919889437793,-0.7678273325267634,-0.3060808678192229,0.7117198078397513,-0.23218596623126644,-0.3566178134021729,-0.21299855190357003,0.20025027484946642,-0.222160548278103,-0.21794393689798142,-1.0941943326663672,-0.356617813402173,2.507689013706556,0.32437363113111495,-0.10618798731393041,0.6003708425380984,0.3284820731498094,0.5216311979900209,0.09424308490397788,-0.4260002868787969,-0.10618798731393042,-0.12206201532575568,0.09692759040912574,0.38567125457596624,1.5007501213011372,1.2212078454524065,0.3084533505652549,-1.7287793445898352,0.23240287109559443,-0.16915242543139603,-0.189640038816338,-0.513972243009004,0.1232433308566119,-0.03395828014853541,walking,2026-03-04_14-00-18,10,5.03477392578125,6.0222265625
-0.44760488818528654,0.056280154803128445,-0.21694828504272212,0.03343997243711278,-0.3208031259000899,-0.2983180186454664,-0.055082690406458475,-0.7280748486150214,-0.21694828504272212,-0.06021339503195165,0.3873509841709446,-0.0511467465567347,0.3270895076034138,-0.24715524142598624,0.017964045201758844,0.12710633301676214,-0.7590955514819305,-0.05114674655673481,-0.289376347387067,-0.24809745902465472,-0.39140024826564634,-0.24996180142335442,0.2652530600294941,-0.32463319581035976,-0.3093380325742864,-0.34765123433923617,-0.39140024826564634,-0.031067378443403376,0.052431079800798,-0.27141146834268476,0.042398186195340935,-0.048272369584340113,-0.008559893355422897,0.020723288216806423,-0.7678273325267634,-0.2714114683426848,0.2330524599129203,-0.13145182584211434,-0.3298566529831897,-0.1408438275993429,0.13569280157811225,-0.222160548278103,-0.18526623486954488,-0.711367685009969,-0.32985665298318984,-0.4465247105126629,0.7818356363398112,0.2628927631181262,0.7191095693624995,-0.20838804128718952,0.5216311979900209,0.3795954140076086,-0.4260002868787969,0.26289276311812637,-0.08571651275244592,0.23029496259074295,0.506729851960635,1.3642493209851585,0.736642603247624,1.3754685863031146,-0.02156517134433018,1.49238712837391,-0.1397727325258622,-0.24169086796908815,-0.513972243009004,0.23526899999667467,-0.0865219752834743,walking,2026-03-04_14-00-18,11,5.534096923828125,6.51968359375
0.808886370231095,0.10423977325464924,-0.19981042265878848,0.1259899326146189,-0.060641296028906576,0.050203709723413516,0.0570334004383059,-0.7280748486150214,-0.19981042265878848,0.8358718542450367,0.4305567811730724,-0.01739282381896237,0.4217764739220285,0.11318895584336836,0.09728417552891816,0.001825479777015964,-0.7590955514819305,-0.017392823818962285,0.14021918888099807,-0.2766848347811054,-0.39703204618086946,-0.27880087888715727,0.14426450267059054,-0.3261707987638704,-0.27365243266137046,0.08301644296664276,-0.3970320461808694,-0.495231244377118,0.07397365852677942,-0.2607752901558376,0.06805852215607275,-0.048272369584340113,-0.013750481647043561,0.018089373872651613,-0.7678273325267634,-0.2607752901558375,-0.722520280729623,-0.16283169261393257,-0.3388159331012108,-0.13828935866664144,0.13569280157811225,-0.1828987951905703,-0.16466318733825921,-0.3285410373535707,-0.3388159331012109,-2.01669156370649,0.20838518232973605,-0.18024797957787933,0.39717999138470106,-0.20838804128718952,0.032277357116655504,0.12739541418101102,-0.4260002868787969,-0.18024797957787939,-0.06964758318601709,0.14994628002183377,-1.8644742292184768,-1.5601306421018188,0.5251112394562597,0.20652878467339209,0.5060889535555883,0.9918922786171257,-0.12502363519027895,-0.2640248681423663,-0.513972243009004,0.12503833822048846,-0.1260432570447229,walking,2026-03-04_14-00-18,12,6.03217578125,7.017140869140625
0.19000542520263647,0.16386751798213844,-0.17699116704630716,0.11756752830814196,-0.060641296028906576,0.050203709723413516,0.0570334004383059,-0.5738004597222609,-0.1769911670463072,0.5199870925075106,0.19966370088103172,-0.18463569533275048,0.17675656027357775,0.11318895584336836,0.09728417552891816,0.001825479777015964,-0.7590955514819305,-0.18463569533275043,-0.14996948630461457,-0.3084531590790588,-0.402675931442432,-0.3106942925072176,0.14426450267059054,-0.33133220057832824,-0.2772889962368801,-0.34765123433923617,-0.40267593144243197,-0.16233442061783035,-0.003127718839753035,-0.29757380893365776,-0.012250968722848025,0.05458579426750049,-0.013750481647043561,-0.035322915915017364,-0.7678273325267634,-0.2975738089336577,0.2413856564781527,-0.18218858080253544,-0.34406144863936283,-0.19022808657357224,0.2727482517849083,-0.1828987951905703,-0.23403791556539685,-0.9027810088381681,-0.34406144863936294,2.0436950849466173,0.49996258920986847,0.020952517320699623,0.6419834210339823,-0.13387143208332933,0.5714415824353172,0.365659974379232,-0.31321100482289327,0.020952517320699672,-0.16653552060610646,0.13898410351226997,-1.5002782427408516,-1.4372660234648003,0.9164352640527497,-0.756773089495884,-1.7025766821751367,1.81442962437146,-0.20918311528958053,-0.24090813354192728,-0.513972243009004,0.15041705217021228,-0.01704594421074066,walking,2026-03-04_14-00-18,13,6.529632568359375,7.51459765625
-0.7200976750059844,-0.059130896395919744,-0.25374556957987365,-0.03240111177964821,-0.12555919064318077,-0.3022819605946621,-0.1389449748553676,-0.7280748486150214,-0.25374556957987365,0.5134347376540492,0.07401123807725349,-0.2620662644872283,0.0604495580563806,0.23580265148341184,0.08399552411690252,-0.06372230546152655,-0.7590955514819305,-0.2620662644872283,-0.32525918194631637,-0.3262041819027542,-0.4055477910552795,-0.3275061148124621,0.22301498634344538,-0.4063855236835781,-0.3541018525039511,-0.5629850729921756,-0.40554779105527944,0.4984700859527233,0.006028356546473282,-0.2933880862138114,0.0022472399024678446,0.05458579426750049,0.10499032044531798,0.02493096751711802,-0.7678273325267634,-0.2933880862138114,0.919277541121215,-0.25051485172964927,-0.36086251681617626,-0.2092340118509843,0.4069743225083511,-0.09089157659296827,-0.25369864331805414,-1.0941943326663672,-0.36086251681617637,2.807391085957738,0.31707957637026607,-0.11107799506155357,0.6681662677905775,0.23911340310876625,0.5714415824353172,0.16741446102259672,-0.4260002868787969,-0.11107799506155347,-0.22940328976095228,0.11125979790842427,1.2512213412465631,1.8335143206198368,1.12863971495604,0.36542018299821605,-1.7124352784287467,0.6610338666490853,-0.25225175165911556,-0.28866359467826863,-0.513972243009004,0.1579990708249267,-0.0003497514795415849,walking,2026-03-04_14-00-18,14,7.02708984375,8.012054931640625
-0.09965306147069082,0.05229721030824879,-0.21832279029513482,0.008946881360284228,-0.12555919064318077,-0.08715860610490646,-0.002829923491936466,-0.7280748486150214,-0.2183227902951348,0.40657508365198763,0.20523434465465534,-0.1809812748021252,0.1723188046925296,0.21017834632177076,0.08399552411690252,-0.0516040480567815,-0.7590955514819305,-0.18098127480212525,-0.19687955174345018,-0.3531495596712235,-0.409521140277651,-0.35510710254233735,0.22301498634344538,-0.4063855236835781,-0.3541018525039511,-0.5629850729921756,-0.4095211402776509,1.001178330201385,-0.06699469685442748,-0.32538958643447174,-0.05156549621258724,0.30872791091183915,0.10499032044531798,-0.10704020397892161,-0.7678273325267634,-0.3253895864344718,0.01265161184823883,-0.2133244263483645,-0.3520489947691877,-0.22260545004088889,0.3091720417726169,-0.09089157659296827,-0.2041930845402148,-1.0941943326663672,-0.35204899476918783,-1.1217395009522337,0.35524198147590824,-0.08514782662451666,0.3673234794745049,-0.08194391471391674,0.4918129389501978,0.2970214393983737,-0.4260002868787969,-0.08514782662451678,-0.22498073188406018,0.022838981759062967,0.08938837815741955,1.5141694849958796,0.8636917357961063,0.8961840151568716,0.9610050981939945,1.446878484526714,-0.25068252472328467,-0.2731622204579057,-0.513972243009004,0.04714839475795736,-0.18963629438346943,walking,2026-03-04_14-00-18,15,7.524546630859375,8.509510986328126
0.6493222203561654,-0.1670962538513492,-0.2824850968611379,-0.13278575952505478,0.39910308626470664,-0.08715860610490646,-0.22144602790125692,-0.7280748486150214,-0.2824850968611378,0.014658885221518399,-0.0006302794998308503,-0.30352963950597306,-0.04020662050800639,0.21017834632177076,-0.09183012898253834,-0.1516491221374251,-0.7590955514819305,-0.3035296395059731,-0.09618104691673089,-0.46555437471642747,-0.42107574584717744,-0.4676089614818524,0.45798091812914443,-0.46203641588200595,-0.46471891006163346,-0.34765123433923617,-0.4210757458471774,0.46755384289388,-0.2970493003063464,-0.4055594767077777,-0.2954747847120772,0.30872791091183915,-0.35321045215479063,-0.33954980012672575,-0.7678273325267634,-0.40555947670777764,-0.8029166667916176,-0.37204006777298076,-0.38414179537520776,-0.3094605221185943,0.3091720417726169,-0.3779175267701688,-0.3548131875455268,-1.0941943326663672,-0.3841417953752079,-2.1302108495565926,-0.1525066820829437,-0.3601752742265538,0.16910613513390796,-0.08194391471391674,-0.3677414368369868,-0.14597010438431252,-0.4260002868787969,-0.3601752742265539,-0.34165057624375283,-0.1325545440208003,-1.8739148256656264,-1.259794323458832,-0.08174838110606142,-1.0959713879180446,0.9585313725556857,0.8061966615114086,-0.35680043900154124,-0.3799588042426666,-0.29825047703436314,-0.13218041238895256,-0.31766587668729745,walking,2026-03-04_14-00-18,16,8.022004150390625,9.006968505859374
-0.5638163712837243,-0.30696750847545307,-0.31154793578258133,-0.26811838626814666,0.3821067281316858,-0.2883080041028169,-0.34163729754448957,-0.7280748486150214,-0.31154793578258133,-0.47824112258776763,-0.5691582681563223,-0.5084812747358469,-0.5339533129122188,0.14054854074205114,-0.6240422293061099,-0.42154928952878906,-0.5860043799247507,-0.5084812747358469,0.08499596740117857,-0.42105614035346817,-0.4174700976901339,-0.42298231337547654,0.4268167450231555,-0.3889983629147722,-0.4037876367446668,-0.1323173956862967,-0.4174700976901339,-0.9442942546703019,-0.42977778228716373,-0.43755287581983826,-0.3966220818418189,0.2013368520401955,-0.6514497675265712,-0.43512234992966925,-0.7678273325267634,-0.43755287581983815,0.17334359501966404,-0.4497888390578861,-0.39460110952130517,-0.452758933049279,0.4334801746207914,-0.4397139823420199,-0.4501638653251444,0.43711225795922587,-0.3946011095213053,-0.3283965682375842,-0.4395196398866,-0.44869692069299394,-0.4589576904000457,0.2689330796796572,-0.5695564694246777,-0.436475177832651,-0.4260002868787969,-0.44869692069299394,-0.4427254742400158,-0.49277222147967525,-0.6047516222128874,-0.49396219874732256,0.03292163862820938,1.051542771778828,1.9414246156803117,0.6355332304408303,-0.4347862765309544,-0.4107111980247373,-0.513972243009004,-0.499127964159778,-0.2858321861438164,walking,2026-03-04_14-00-37,0,0.063214599609375,1.04817431640625
0.6311246934667454,-0.14611997718168462,-0.27733141839167097,-0.11859076910555166,0.3821067281316858,-0.07101573534146947,-0.20414990853700848,-0.5738004597222609,-0.2773314183916709,-1.3814656063354411,-0.29496564510494466,-0.43410525754455964,-0.09900115513230805,0.053533735293662114,-0.5271733819248127,-0.32527968332946117,-0.7590955514819305,-0.4341052575445597,0.04372810706584713,-0.39325647425370863,-0.4145733142824283,-0.39541676061622627,0.35902864946128016,-0.3889983629147722,-0.38318654054119916,-0.1323173956862967,-0.4145733142824283,-0.4089620145476424,-0.31060124840663406,-0.4093043954605553,-0.3120629441419736,0.2013368520401955,-0.422660946549007,-0.3190256526963545,-0.7678273325267634,-0.40930439546055536,-0.5899033691561097,-0.339524033439951,-0.37874137523158347,-0.30934043199547856,0.23293025752559537,-0.4397139823420199,-0.34864950764391794,0.43711225795922587,-0.3787413752315836,-1.1213281368093797,-0.4783069206995064,-0.45695132235425107,-0.3194490545932922,0.2689330796796572,-0.6179788485986955,-0.46143078867959003,-0.31321100482289327,-0.456951322354251,-0.30939025716809493,-0.3137192458393488,-1.6522577096031894,-0.4478147336827771,-0.4915150524117695,-1.4478889961067705,0.6567542092219705,-1.0170020278220187,-0.31854642361663366,-0.3904497182165915,-0.513972243009004,-0.3239112391580221,-0.33466574388854503,walking,2026-03-04_14-00-37,1,0.56066943359375,1.545629150390625
-0.12962025907227984,0.07226271005039131,-0.21135753652267053,0.028523635455829068,0.22809855522654357,-0.07101573534146947,-0.139977833871861,-0.7280748486150214,-0.21135753652267047,-0.6923823793742007,0.07842188934641237,-0.25951043199395263,0.07028549581542853,0.053533735293662114,-0.20979849158669553,-0.14469286988389812,-0.7590955514819305,-0.25951043199395246,0.3282876359689058,-0.4113933886064592,-0.4165193910339785,-0.41105926634408363,0.3340462216914371,-0.43000844549028266,-0.4044887041676983,-0.34765123433923617,-0.4165193910339784,0.07221706107639819,-0.29188077622495556,-0.4041025622979493,-0.2984470154759678,0.19008802075343623,-0.422660946549007,-0.3131843483801854,-0.7678273325267634,-0.4041025622979492,-0.5664226710039696,-0.3376322777569076,-0.37840855423441677,-0.31017356086022524,0.23293025752559537,-0.37488921770217143,-0.31463198162816514,-0.9027810088381681,-0.3784085542344168,-0.4652226464402226,-0.3306715329329513,-0.42081675516878964,-0.3424857639087657,0.32607654872701797,-0.38305572889654343,-0.37073001702708874,-0.31321100482289327,-0.4208167551687896,-0.2254193004628051,-0.288146740238177,-2.106738511196344,-1.3172368896217619,0.16586145232829488,-0.8067588027435763,-1.5927255720192277,-1.0798435255218655,-0.2647379030438292,-0.41558386199583214,-0.08252871105972226,-0.29894851111781984,-0.455906352351183,walking,2026-03-04_14-00-37,2,1.058123291015625,2.043087158203125
-1.5644840174690333,-0.365572971401616,-0.32098379232645136,0.004263622536283075,0.22809855522654357,-0.45921559086461444,-0.38560362098892503,-0.5738004597222609,-0.3209837923264513,0.03805334836443623,0.1777284318759902,-0.19884260801043033,0.12916989107194307,0.140271071802362,0.057150342458577814,-0.03381842048770949,-0.7590955514819305,-0.19884260801043022,-0.42625329776363424,-0.3359298995895038,-0.40703561852441056,-0.3362659029112731,0.2275981924389947,-0.4039968742076933,-0.3538117404033886,-0.7783189116451151,-0.40703561852441056,0.1088425930238255,-0.13932059188008244,-0.35397229514951134,-0.14713397435481082,0.19008802075343623,-0.24630729500737045,-0.22369537596650874,-0.7678273325267634,-0.35397229514951134,0.3863895670863415,-0.3321272329076151,-0.3774283848564281,-0.3297371870656242,0.3598905048017773,-0.2649058574818697,-0.3211817118829342,-1.0941943326663672,-0.3774283848564282,1.2491785609993846,-0.23793507744168124,-0.39157724819617407,-0.11681485080812498,0.46065460257673846,-0.10110536208925659,-0.29694997612271207,-0.4260002868787969,-0.39157724819617407,-0.16044299898155362,-0.1676721517461963,-0.25521356169942244,-0.5404566697668695,0.24315075709314307,1.3766724107713755,-0.2570744794454463,0.1246726202611931,-0.2214461344051461,-0.34959311816904065,-0.29825047703436314,-0.18881868294185902,-0.30834932137932874,walking,2026-03-04_14-00-37,3,1.555578125,2.540542236328125
-0.334851934253447,-0.10201648765069136,-0.2658191461574763,-0.12278110805660666,0.23749575965753106,-0.2137732465582411,-0.23422045201327707,-0.7280748486150214,-0.26581914615747626,-0.32536173066175145,0.1896796543137696,-0.19113828446517828,0.14537727999294114,0.022148884381304353,0.057150342458577814,0.022043975130445342,-0.7590955514819305,-0.19113828446517817,0.06521314464761414,-0.29771304790001035,-0.4008402571571869,-0.30000952594759095,0.2275981924389947,-0.3112503622569161,-0.28846542573147116,-0.7783189116451151,-0.40084025715718685,-0.030353567745397842,-0.12870261216098994,-0.34997018191648827,-0.1370850230719182,0.2624652295013372,-0.21049087430160351,-0.24310478517248957,-0.7678273325267634,-0.3499701819164883,0.15612301660568464,-0.2208067763993148,-0.3538858075269856,-0.2294840505147838,0.2225540655768404,-0.24409587647330197,-0.24074448050807112,-0.5199543611817699,-0.3538858075269858,0.2782701342950301,0.081516257482496,-0.25221323997614664,0.035582404762921106,-0.06742625456024333,-0.10110536208925659,-0.016269233263514062,-0.4260002868787969,-0.2522132399761466,-0.16782989130554818,-0.07698577567665377,-0.008168689317361505,1.488851661116709,0.38150357336748075,0.5572452508973216,0.8337968461739945,0.44877212151032997,-0.21459195844307993,-0.3171113730234449,-0.513972243009004,-0.10054616515953205,-0.2818369355282067,walking,2026-03-04_14-00-37,4,2.053036376953125,3.037998046875
0.379847429601981,0.09555477992848048,-0.20299430247667857,0.06524907725339697,-0.06713047656808008,-0.033848566969723,0.006554892977136016,-0.7280748486150214,-0.20299430247667857,0.2952388168636171,0.18299862807500095,-0.19545586568722917,0.14399334570921388,-0.08011745915853183,-0.061144812326720026,0.003097688496801715,-0.7590955514819305,-0.19545586568722928,0.6822732692545881,-0.32521964375552537,-0.4053937979121005,-0.32112636228714836,0.3228173376797742,-0.3112503622569161,-0.3174029368867555,-0.7783189116451151,-0.4053937979121004,0.22734968644659928,-0.23490280852581044,-0.38699283337790485,-0.24034631884579435,0.24094754160154597,-0.21049087430160351,-0.23193105876493125,-0.7678273325267634,-0.3869928333779049,-0.1515932867583423,-0.2372328106822083,-0.35780577386427187,-0.24306090631507038,0.2225540655768404,-0.24409587647330197,-0.24074448050807112,-0.5199543611817699,-0.357805773864272,-1.7898879114326771,-0.3046432436107509,-0.4131196665531002,-0.021286945386286157,-0.06742625456024333,-0.5016645802860339,-0.22270683796172974,-0.20042172276698966,-0.4131196665531002,-0.173039657860561,-0.15548070450533025,-2.0455752405626098,-0.959875015430567,0.8665712973366086,0.0460668619957754,0.8063052508235984,-0.8984557503613678,-0.2025698467049609,-0.3313859863335536,-0.29825047703436314,-0.16105251808794427,-0.3311241501573991,walking,2026-03-04_14-00-37,5,2.550491455078125,3.535453369140625
-0.43128951072094435,0.11822379530451661,-0.19460923206192146,0.08897934585701273,-0.06713047656808008,-0.033848566969723,0.006554892977136016,-0.5738004597222609,-0.1946092320619214,-0.31188148055541637,0.09613538975983653,-0.24912719998708832,0.05659443551293664,-0.08011745915853183,-0.061144812326720026,0.003097688496801715,-0.7590955514819305,-0.24912719998708832,-0.5181639857171483,-0.3286467990839471,-0.4059271614443727,-0.3280299479804043,0.27025265688312156,-0.38638520923506303,-0.35436598441640355,-0.7783189116451151,-0.40592716144437263,-0.026358398797110928,-0.19678372866450417,-0.3744726330022898,-0.2045463758258039,0.12693864981380404,-0.33951344981239895,-0.23819967880280565,-0.7678273325267634,-0.3744726330022898,0.1720016632962939,-0.32214022869426157,-0.37560592515999364,-0.32835534856501053,0.38642299959290866,-0.3703907333272569,-0.38996630791495535,-0.9027810088381681,-0.37560592515999375,0.9006965506466975,0.5823302284116798,0.08682868759854878,0.5568614393065436,0.10998117162062261,0.661873730216536,0.2826559845075457,-0.4260002868787969,0.08682868759854873,-0.1967975991299242,-0.031518453368448315,-1.4796381583837648,-0.7619979363376599,1.0488508970389199,0.7358854248879808,-1.0197423285216876,0.8855672083638322,-0.23386771726141103,-0.2887297959165061,-0.29825047703436314,0.010337261170770159,-0.04995512413246088,walking,2026-03-04_14-00-37,6,3.047947265625,4.032906494140625
-0.8330791109513872,-0.061081743314816195,-0.25431361187338597,-0.013135113422019486,-0.12750900053080108,-0.3841488185695432,-0.1899321652751639,-0.7280748486150214,-0.254313611873386,0.2613709514101284,0.26276577063264184,-0.14213915184984327,0.21710771052853767,0.02477866253605635,0.20230098489237983,0.10339124392005267,-0.7590955514819305,-0.14213915184984327,-0.1859447256767476,-0.21436765111196246,-0.3840816555262494,-0.21670603333456118,0.14551076718813416,-0.2673371518568687,-0.2325788156751841,-0.5629850729921756,-0.3840816555262493,-0.6840153729348072,0.054180209664221664,-0.27055812672469826,0.052790124003596485,-0.17485538560323274,-0.18191020311523975,-0.0015095125031326397,-0.7678273325267634,-0.27055812672469826,-0.006752528432068107,-0.1088856211365616,-0.32306535789739477,-0.12012120059306271,0.07851991240670504,-0.2304057600416551,-0.16065322946598243,-0.5199543611817699,-0.3230653578973949,1.5443601132506266,0.6007265757857934,0.102085756092719,0.6478198829437803,0.09565560519925316,0.661873730216536,0.2902701795132657,-0.4260002868787969,0.10208575609271868,-0.11089037774626696,0.18893756175275297,0.04044422964885892,1.0378770134336703,0.46688777771471984,1.501660107605987,0.734352179717298,1.539586442077582,-0.15708854043271603,-0.18276953803190882,-0.513972243009004,0.19904511532814742,-0.009319638010530467,walking,2026-03-04_14-00-37,7,3.54540234375,4.530361328125
0.36034835743180693,0.2378570143880742,-0.14634577227200518,0.19609859065727256,-0.12750900053080108,0.16881656829483213,0.15994575576119796,-0.5738004597222609,-0.14634577227200513,0.49311483170218245,0.37359196378851356,-0.06165815103967931,0.3357949445525999,-0.014541235582330572,0.20230098489237983,0.12198642702926164,-0.7590955514819305,-0.06165815103967947,-0.3233388401202637,-0.2113301598838374,-0.38338679374976986,-0.21315343074434331,0.14551076718813416,-0.2673371518568687,-0.2325788156751841,-0.34765123433923617,-0.3833867937497698,0.8706811733035046,0.029771930024349504,-0.2823023135568231,0.03638569395975441,-0.17485538560323274,-0.18191020311523975,-0.0015095125031326397,-0.7678273325267634,-0.28230231355682306,-0.3405841332120944,-0.059137572962764416,-0.30706409030321125,-0.0638051468827186,0.07851991240670504,-0.2304057600416551,-0.16065322946598243,-0.9027810088381681,-0.3070640903032114,-2.188600335566757,0.4991599164780019,0.020330145435882612,0.6668226472596228,-0.6906121911451067,0.15152686665213372,0.4451608529536578,-0.4260002868787969,0.0203301454358825,-0.04291835743083914,0.23056267786466078,-1.2556585802077815,-0.08489088891317088,0.15273390463448497,1.0961360497684927,0.912292450413534,0.833257075523991,-0.08317066749124952,-0.24352610988769283,-0.513972243009004,0.22326971653105743,-0.024046035098490494,walking,2026-03-04_14-00-37,8,4.04285546875,5.027816162109375
-0.10154739023472105,0.28243592525258415,-0.12663611776275077,0.22656183451601017,-0.06011571117957017,0.16881656829483213,0.13186434219335544,-0.7280748486150214,-0.12663611776275072,-0.12694093476995583,0.15409465811468379,-0.2138230687667865,0.10626002509615468,-0.014541235582330572,-0.11372466674633741,-0.05783266746713555,-0.7590955514819305,-0.21382306876678653,0.2507385973820303,-0.33548161291304635,-0.40696837325478913,-0.33675290215885395,0.20246834140494377,-0.4076675179402206,-0.34876089138363514,-0.1323173956862967,-0.4069683732547891,0.05454839070358165,-0.17403443405819713,-0.3665905519891458,-0.18182675603083373,0.2712969710023409,-0.2622043579168274,-0.27393245295483,-0.7678273325267634,-0.3665905519891458,-0.11589065445610923,-0.2915965246824005,-0.3696779113971872,-0.29699304181971725,0.351979052606509,-0.27449686703840603,-0.3222100833697036,-0.9027810088381681,-0.3696779113971873,-1.6050259177537636,0.445427059289324,-0.020472973710202166,0.5171178526229379,-0.6906121911451067,-0.2613006994586022,0.23240046689900926,-0.4260002868787969,-0.02047297371020203,-0.15681586388583094,-0.04705243907677969,-1.6874820007390328,-1.5066524322408985,0.3321855831182983,-0.7540433353365636,-0.6990766609182739,0.36006558651961396,-0.19947945833393288,-0.3119144995537156,-0.513972243009004,-0.012730866045430462,0.018303842958404117,walking,2026-03-04_14-00-37,9,4.540310302734375,5.528381591796875
-1.31621020721211,-0.09308494425962606,-0.263376121386926,0.07736049572122736,-0.06011571117957017,-0.2850695813950712,-0.15532314948892592,-0.5738004597222609,-0.263376121386926,0.4522971157276259,0.29756775358884247,-0.11766844752770791,0.2618387690609399,-0.14081000731001056,0.15840238899153056,0.15672313845420985,-0.7590955514819305,-0.11766844752770793,0.4701372661953895,-0.31150966734088376,-0.4031848263204774,-0.31084140327363907,0.31198274547534177,-0.3695974997747365,-0.35521984008855856,-0.5629850729921756,-0.40318482632047736,0.13240375582677785,-0.16080374191121838,-0.3618654577127804,-0.16821798979845412,0.2712969710023409,-0.2092244026051492,-0.24704828175724505,-0.7678273325267634,-0.36186545771278034,0.003860457655876394,-0.3167801418633017,-0.3746042564925918,-0.32390830615043953,0.24206574007420856,-0.35360144116031966,-0.3080851794961397,-0.5199543611817699,-0.374604256492592,1.514688271537282,-0.10166570226300416,-0.33945386199761207,0.04781352243265545,0.5064943753603814,0.22975721606391616,-0.150796512334925,-0.4260002868787969,-0.33945386199761207,-0.12037311325588754,-0.17769049518484886,0.020957017200546723,0.6396210818511289,0.5894275201559861,-0.029717817552765684,1.4829301019420875,0.7732669317156557,-0.17202819695898425,-0.3237473695991284,-0.513972243009004,-0.16663076869474955,-0.18481770254290028,walking,2026-03-04_14-00-37,10,5.037766357421875,6.02645751953125
-0.007409011187630824,-0.07431759392878738,-0.25812021769300625,-0.11182114031432096,-0.016778533851728616,-0.10807603065695151,-0.061391698690128386,-0.7280748486150214,-0.2581202176930062,-0.0847715603544837,0.28828274480647315,-0.12426895300650677,0.2331851028908733,-0.14081000731001056,0.15840238899153056,0.15672313845420985,-0.7590955514819305,-0.1242689530065068,-0.29669633788946775,-0.3349382634335262,-0.4068866953848038,-0.33639504754592386,0.31198274547534177,-0.3695974997747365,-0.35521984008855856,-0.5629850729921756,-0.40688669538480376,0.11673782671573868,-0.1356628088172726,-0.3526011485986127,-0.1434553640263626,0.12034210868549176,-0.2092244026051492,-0.16866029047889455,-0.7678273325267634,-0.3526011485986127,-0.21898320839150304,-0.23967565843171407,-0.35837555156629197,-0.24313181489493094,0.24206574007420856,-0.24864105962326064,-0.25300603606388694,-0.5199543611817699,-0.3583755515662921,0.03685700141228996,0.2695858634536754,-0.1421546339642568,0.212445328229752,0.09709100226144778,0.22975721606391616,0.06680585165431253,-0.4260002868787969,-0.14215463396425684,-0.19987966023066647,-0.048408470923261615,0.20830870434831333,1.2605659837937555,0.3197497793275812,-0.35930479386398767,0.7504851198032638,0.3161742308550667,-0.2208362265890599,-0.33140975735227945,-0.513972243009004,-0.0571930970017276,-0.20491693373137684,walking,2026-03-04_14-00-37,11,5.538330322265625,6.523912353515625
0.18902931782164598,-0.05911655896589875,-0.2537413882056858,-0.09210501837887307,-0.005630218749661988,-0.10807603065695151,-0.06603697494803869,-0.7280748486150214,-0.2537413882056858,0.3983147028150913,0.07210893079481333,-0.26316495010192525,0.047834924294927104,0.15475553343039325,-0.1407504339639274,-0.1532742723908725,-0.7590955514819305,-0.26316495010192537,-0.26884400789493096,-0.37371750731241354,-0.41224084671989447,-0.3751567955893781,0.29144744078793317,-0.3910843079795229,-0.3641180103322657,-0.34765123433923617,-0.4122408467198944,-0.05549541741377263,-0.1497783234281799,-0.3578487352948697,-0.1579452524410314,0.12034210868549176,-0.25528716962985476,-0.19203440069173744,-0.7678273325267634,-0.35784873529486966,0.21953840340624936,-0.20205061229727342,-0.3492209124357283,-0.2100869573852023,0.36446205999378684,-0.11602488196496683,-0.2453687714637566,-1.0941943326663672,-0.3492209124357284,-1.9350659969418098,-0.3577723096713762,-0.4284084538888817,-0.006949841606559152,0.09709100226144778,-0.60803180515672,-0.36496840525041113,-0.31321100482289327,-0.4284084538888817,-0.25277451039395654,-0.10369753781918314,-1.8841466540480718,-1.421612250333115,0.6448791159826925,-0.0994606540804752,-0.48214705855946827,-0.44485914321207387,-0.27230100236197374,-0.382644589343559,-0.513972243009004,-0.1149495955202267,-0.29335598222089476,walking,2026-03-04_14-00-37,12,6.03640625,7.02136767578125
-0.8414649838474373,-0.08524021616422855,-0.2611993544250177,-0.03126367810183525,-0.005630218749661988,-0.1379201625158226,-0.08492025961279455,-0.5738004597222609,-0.2611993544250176,0.137555496971526,0.05021409404512001,-0.2756524312632329,0.01123282761524678,0.04136137602583463,-0.1407504339639274,-0.09964785875918998,-0.7590955514819305,-0.27565243126323297,-0.7173083239300084,-0.3514556112941665,-0.4092850618790993,-0.34726877464627665,0.29144744078793317,-0.3910843079795229,-0.3641180103322657,-0.7783189116451151,-0.4092850618790992,0.9301804613112934,-0.19014141877772148,-0.3722029174132997,-0.172479559229635,0.3182877625006744,-0.25528716962985476,-0.2948238169894594,-0.7678273325267634,-0.37220291741329964,0.3510544172461655,-0.2966582338100532,-0.37069721785102894,-0.29764184864366666,0.40947641675723556,-0.11602488196496683,-0.26815413871527227,-0.9027810088381681,-0.37069721785102905,0.4381277269645159,0.13742027131356227,-0.22166644051343892,0.09799227804541151,0.18640537389221837,0.3022572925332714,0.05669890559137563,-0.4260002868787969,-0.22166644051343895,-0.21319585560881804,-0.1532605938942788,-0.7098277331691722,-0.8267098107210016,1.2535502659318256,0.07648029447092096,-0.17522338567543994,-1.8439608126292863,-0.2560359385906382,-0.3567488926241913,-0.513972243009004,-0.12626007137137418,-0.23814604373952042,walking,2026-03-04_14-00-37,13,6.533861328125,7.518821533203125
-0.3651309986617657,-0.15100420383653157,-0.27854995154876344,-0.16459315325505347,0.028937282120031778,-0.32397879749421954,-0.21704875892739026,-0.7280748486150214,-0.27854995154876344,0.5058563880907727,0.09282211961811312,-0.25108382595354084,0.07694602390980042,0.04136137602583463,0.01919837980169416,-0.008636731314422576,-0.7590955514819305,-0.2510838259535409,-0.0821866830959826,-0.3830400734767507,-0.4133842571829726,-0.3852901716862398,0.4085519621475155,-0.4076601180809884,-0.4113853836950818,-0.5629850729921756,-0.4133842571829726,0.03259770194982134,-0.1930936039201788,-0.3732149223321506,-0.20079326444290208,0.3182877625006744,-0.3099473210898066,-0.3225605876396105,-0.7678273325267634,-0.3732149223321506,0.0510965422649538,-0.41450033185874063,-0.39028268031625735,-0.4199851315408156,0.4337406159292018,-0.37473521559781303,-0.41619735515139056,-0.711367685009969,-0.3902826803162575,1.5023552910349283,-0.022210991799735864,-0.3040321109566851,0.10673003390466584,0.4293179065820438,0.3022572925332714,-0.07241175843616661,-0.4260002868787969,-0.3040321109566849,-0.259580902857593,-0.19088495777309966,0.8685363922167871,1.0701254315334194,0.9909147318918535,-0.8508253613421205,1.6219521225243978,-0.614138591729504,-0.2868155442443022,-0.3701090386457628,-0.513972243009004,-0.17233521174662206,-0.22698304704511427,walking,2026-03-04_14-00-37,14,7.031316650390625,8.01627587890625
0.7905505898066221,-0.23748624644218966,-0.29826357016132865,-0.15805303251769345,0.48090946418534236,-0.11147422181969494,-0.2709183077851667,-0.5738004597222609,-0.29826357016132865,0.3306968157825504,0.07684500237394881,-0.2604255428003494,0.04694992577777318,0.2205855830201236,0.01919837980169416,-0.09339552027738596,-0.7590955514819305,-0.26042554280034935,0.1641508189117893,-0.43716886106380853,-0.4189222921190552,-0.43844259829793697,0.46225386658581863,-0.4076601180809884,-0.42770562533150736,-0.5629850729921756,-0.41892229211905513,0.5632993060270034,-0.23688727630337833,-0.3876210624014043,-0.23363770841005244,0.3254636474201044,-0.24221805609341265,-0.29191832109249716,-0.7678273325267634,-0.3876210624014043,-0.3198416010128162,-0.3587516376770442,-0.38200791406692486,-0.35128951807239445,0.36029321071503406,-0.37473521559781303,-0.37901974734350574,-0.711367685009969,-0.38200791406692497,-0.4795163435008419,-0.09829356328589627,-0.33802581907014634,-0.12421407294406223,0.15717967554253526,-0.028026360286262233,-0.09798675743092974,-0.4260002868787969,-0.33802581907014634,-0.31987353612001607,-0.22986690370005083,-1.4608912064652575,-1.6220029100411562,0.7590338551440751,-1.916268867141268,0.499612717251199,0.006123089419900576,-0.3285750704244874,-0.3665796024190002,-0.513972243009004,-0.23037932742779102,-0.3575562286885075,walking,2026-03-04_14-00-37,15,7.528770263671875,8.513729736328125
0.5227532777424363,-0.22371206543168476,-0.29535976793349694,-0.203617322051953,0.5727388925766594,-0.11147422181969494,-0.3091817637045808,-0.7280748486150214,-0.29535976793349694,0.32455368942197166,0.058383905929278924,-0.271026865596912,0.029273137816929383,0.2205855830201236,-0.2161128333310221,-0.2272879718899746,-0.7590955514819305,-0.27102686559691197,-0.15613329944645568,-0.4213241101503039,-0.4174956099676856,-0.4232496808684113,0.37216938349693984,-0.4325741899023685,-0.41788224226632925,-0.5629850729921756,-0.4174956099676855,0.23183031952364425,-0.16531507544806073,-0.36348824543948205,-0.17155641353300946,0.18845096999956104,-0.24221805609341265,-0.2207702414756791,-0.7678273325267634,-0.363488245439482,0.19537831796717717,-0.33525285443372216,-0.3779870280975906,-0.340639905130201,0.36029321071503406,-0.38449606928567354,-0.38414186535052797,-1.0941943326663672,-0.3779870280975907,0.6707238523401563,0.22394836670397336,-0.17076937408364212,0.19805294868900206,0.15717967554253526,0.4152912515515432,0.13048739008793056,-0.4260002868787969,-0.1707693740836422,-0.3137238929138161,-0.11684731940640768,-1.5621161586035683,-1.2221387384904212,1.0136929582840501,-2.513900855333346,-2.561183328436732,1.8893814414185637,-0.323710190616545,-0.3873180711916753,-0.513972243009004,-0.10753260672098731,-0.19652209175286448,walking,2026-03-04_14-00-37,16,8.026224609375,9.01118408203125
-0.4577851906437656,-0.25764508640107087,-0.3023521386804404,-0.24694090194970528,0.27608510933719477,-0.42151838624673693,-0.381746481257295,-0.5738004597222609,-0.3023521386804405,-1.2709100977783212,-0.2817525878581961,-0.4293697743838788,-0.12067461669099311,-0.102003590981297,-0.6583350270766375,-0.32635408724674864,-0.7590955514819305,-0.42936977438387885,0.23006819685699578,-0.475877555767079,-0.4217308295142867,-0.47571701378748715,0.4977027645630782,-0.43752124664177844,-0.4595179238323595,-0.5629850729921756,-0.42173082951428664,-1.60982909700572,-0.49193892292486857,-0.4489487215759868,-0.3748468255276195,0.33712869287631786,-0.5865099155103899,-0.47268336600890243,-0.7678273325267634,-0.4489487215759868,0.3990614119722585,-0.4378159046810794,-0.393215816653216,-0.42772002678798055,0.41067541029197463,-0.3898811262963423,-0.4124701966668813,-0.9027810088381681,-0.39321581665321614,1.4384233444053587,-0.024487573680502916,-0.3050985981891911,0.09139301976518975,0.6214721805014284,0.1285445008064727,-0.26407082238342017,-0.4260002868787969,-0.3050985981891911,-0.4108790248536355,-0.3171180867619988,1.3430101589658512,1.407566706974574,1.2006386944656278,1.1518350288075732,-0.0872126053739998,0.8618570307078551,-0.4074754207397365,-0.3621238012630165,-0.513972243009004,-0.28442115022369024,-0.1322239657917777,walking,2026-03-04_14-00-52,0,0.074518310546875,1.059477783203125
-1.1502891311255459,-0.0718550120341143,-0.25741823627553284,0.04921131764293246,-0.21658058496929877,-0.3277904960691197,-0.11715823203460515,-0.7280748486150214,-0.25741823627553284,-0.8295459510006518,0.29928192476070786,-0.11644416494821765,0.2871480323903372,-0.102003590981297,-0.04634233401393006,0.021870720879761385,-0.7590955514819305,-0.11644416494821765,-0.062369996783908414,-0.3263010648292109,-0.4055629110830192,-0.32866216475653814,0.1341913065555627,-0.38034623428420383,-0.3087614756446123,-0.5629850729921756,-0.40556291108301906,0.09472769268349551,-0.21597248431707988,-0.3808827501908863,-0.22312923231001422,0.27378214847271354,-0.16282818742854469,-0.2247954719039316,-0.7678273325267634,-0.38088275019088635,0.11422881014666657,-0.25834678206160516,-0.36261763862975954,-0.26668896742571174,0.3431236831523535,-0.12470712244574474,-0.23912381537280342,0.05428561030282759,-0.36261763862975965,1.5843049805918,0.2866147909291592,-0.131164313837719,0.3779262628229964,-0.07576622349299107,0.1285445008064727,0.10651900403846652,-0.4260002868787969,-0.13116431383771893,-0.14768925032649807,-0.04406277355549947,0.8152413950265263,1.3646380438741765,0.10092106673050873,0.3582852957692884,-0.28443766282036903,1.4852209216394983,-0.1863954723270049,-0.3159049711878361,-0.513972243009004,-0.028637978993064313,-0.18723327725496677,walking,2026-03-04_14-00-52,1,0.57197216796875,1.556931640625
-0.07411069135300545,0.16019243056221452,-0.17844606803189936,0.11054431564172938,-0.21658058496929877,-0.05414071650144703,0.05598825821882356,-0.5738004597222609,-0.17844606803189936,-0.41071257187471666,0.2930446161492228,-0.1208903753323876,0.24682266582065515,0.022192376261128827,-0.04634233401393006,-0.03686408930069215,-0.7590955514819305,-0.12089037533238749,-0.014778588603325043,-0.3119103730805029,-0.4032510979963496,-0.31429670439657637,0.1341913065555627,-0.38034623428420383,-0.3087614756446123,-0.34765123433923617,-0.40325109799634956,0.7437188697407726,-0.2006885629087097,-0.3757947405048634,-0.19148114139743772,0.21454245616985324,-0.16282818742854469,-0.1940334254729803,-0.7678273325267634,-0.3757947405048634,-0.3084905695271879,-0.17456685433079625,-0.3420216383108422,-0.17657382872417798,0.32796379824461375,-0.12470712244574474,-0.23145018478137303,-0.13712771352537156,-0.3420216383108423,-2.355539227677029,0.46232097447401516,-0.007826882215255451,0.6707765605257995,-0.2791380755713285,0.1089139907497682,0.20449631988907394,-0.4260002868787969,-0.007826882215255558,-0.1286697787700168,0.13177385463483812,-0.5842979009198296,0.5272581394700904,-0.2831997686834344,-0.5621944045689867,1.177043985669892,-0.031017311498005035,-0.17195178908371872,-0.3263501483603509,-0.513972243009004,0.14532253545168888,-0.20582527167340384,walking,2026-03-04_14-00-52,2,1.0694267578125,2.0543837890625
0.3801087418659582,-0.005926496697391448,-0.23756206344018252,-0.02837485939448351,0.12022193108145358,-0.05414071650144703,-0.0843505030281568,-0.7280748486150214,-0.23756206344018255,-0.17360069052975666,0.2118184136625718,-0.17663776926767888,0.16164388994543388,0.14549620475166442,-0.0032805998977338217,-0.07067479417235113,-0.7590955514819305,-0.17663776926767882,0.11391259130316282,-0.3581180701380288,-0.4102029704191834,-0.3601131138791896,0.37053420652204305,-0.35121787991941567,-0.360064173123233,-0.34765123433923617,-0.41020297041918335,-0.3578154841432547,-0.27762666942978537,-0.4000025951041593,-0.28095650121468363,0.21454245616985324,-0.3451020276472866,-0.2865265409626747,-0.7678273325267634,-0.4000025951041593,-0.09896128923648174,-0.20598948625920516,-0.35021726378271867,-0.2139144333283759,0.31379407206685905,-0.1725042428218316,-0.24935983047441287,-0.711367685009969,-0.3502172637827188,-2.1501025833836898,0.34721391819075353,-0.09067364195334474,0.5356043069417623,-0.2791380755713285,-0.1556554765272457,0.06814422856329472,-0.4260002868787969,-0.0906736419533447,-0.20510319368255558,0.010330795945275755,-1.892057983354776,-1.7833097077568314,0.12270437026614803,-1.5010584274677956,-1.5664241126215044,-0.3327009208525989,-0.23052045010570546,-0.3765103597385672,-0.513972243009004,0.04105224618133184,-0.18329784379180705,walking,2026-03-04_14-00-52,3,1.566880859375,2.551837890625
-1.1553883260729851,-0.059968667188256886,-0.2539897291670821,0.05930724005813653,-0.07684064895605962,-0.06396809987199936,-0.008456614829083147,-0.41952607082950055,-0.2539897291670822,0.10963707383880608,0.1856437220133958,-0.1937497231123748,0.1383007570770077,-0.031020910331290747,-0.0032805998977338217,0.0128037557209903,-0.7590955514819305,-0.19374972311237476,-0.7883241039100981,-0.3097272320879105,-0.4028887867584722,-0.3054352085613433,0.2511129300193133,-0.35121787991941567,-0.3237715293252077,-0.7783189116451151,-0.4028887867584721,-0.31383663881739593,-0.2803828875383588,-0.40080476260525505,-0.2845829176198771,0.3194583965022188,-0.2633169667051011,-0.29950634864434966,-0.7678273325267634,-0.4008047626052551,0.21264652446265314,-0.3203388396333159,-0.37527112447120875,-0.3256621538379619,0.31379407206685905,-0.32414467060687263,-0.32893485440047854,-0.3285410373535707,-0.37527112447120886,1.7249457592005777,0.009197217767220206,-0.28900814296475974,0.18046971116098545,0.42795850823100884,0.2670472424786012,-0.08983554996267618,-0.4260002868787969,-0.2890081429647597,-0.13806844967880635,-0.15778521945013776,0.008104322090164031,-0.30546241273950475,0.56865982479308,-0.18170505043950114,-1.6111512753915136,-0.0787835880278462,-0.1902169366445826,-0.33840289081917757,-0.513972243009004,-0.13082108489395297,-0.3055249509822995,walking,2026-03-04_14-00-52,4,2.064332763671875,3.049291748046875
-0.7943729231055231,-0.05267783241705503,-0.2518538030015876,-0.013556442286291891,-0.07684064895605962,-0.23927444296522735,-0.11937823908074634,-0.7280748486150214,-0.25185380300158755,0.042198272915455456,0.1645024607761003,-0.207267733550645,0.1167118682230334,-0.031020910331290747,0.023055665812695456,0.027789132470975912,-0.7590955514819305,-0.20726773355064484,0.007547476770288956,-0.28013937770410985,-0.3976771227414006,-0.28255800349458693,0.2511129300193133,-0.31900020974652804,-0.3010719585399376,-0.34765123433923617,-0.3976771227414005,-0.21294098309951232,-0.18224572493818456,-0.36947091899669704,-0.18915257171332947,0.2798808530753676,-0.1860960185637262,-0.2397694514945974,-0.7678273325267634,-0.3694709189966971,0.18379020599604096,-0.20954950559999874,-0.35111014213686126,-0.2180683250340064,0.2119736374226672,-0.09375335075305236,-0.1564949441646238,-0.5199543611817699,-0.35111014213686137,0.3802990019166365,0.3870445113172691,-0.06288601236071978,0.33517941389117006,-0.13891327300159753,0.2670472424786012,0.21146299269783214,-0.4260002868787969,-0.06288601236071972,-0.15210628530559808,-0.030095564043907085,0.8672439842846849,1.2608639065826939,0.30696300095692053,-0.43434600667933704,0.15129599520981885,-0.4563860342254205,-0.19297327934873518,-0.30992774327203704,-0.513972243009004,-0.009202707965767547,-0.23472056159006374,walking,2026-03-04_14-00-52,5,2.561786865234375,3.546744873046875
0.46046701074501056,0.009003585387670793,-0.2327809464834888,-0.006464593416813386,-0.07481077391501784,-0.05566967761777514,-0.0040517598004087075,-0.5738004597222609,-0.23278094648348877,0.7119112036614639,0.30187319775846744,-0.11459006262429397,0.2903820359113429,0.10221410384534813,0.08592812800668852,0.0005541025375944473,-0.7590955514819305,-0.11459006262429404,0.7070099532529736,-0.25261869020938277,-0.39232581980061554,-0.24973845913616546,0.183161854694936,-0.31900020974652804,-0.280421332079886,-0.5629850729921756,-0.3923258198006154,1.216720713056189,-0.06211384638748072,-0.32334910766906855,-0.03592767483361505,0.2798808530753676,0.05371600095442348,-0.11807913767616746,-0.7678273325267634,-0.32334910766906855,-0.022799527956916234,-0.13035413880737892,-0.32953304877813855,-0.1410252862720181,0.2119736374226672,-0.09375335075305236,-0.1564949441646238,-0.9027810088381681,-0.3295330487781386,-1.8352583401624885,-0.012626235336938347,-0.2995086735228455,0.18720869361507578,-0.13891327300159753,-0.27375031378334264,-0.06724973458365514,-0.4260002868787969,-0.2995086735228455,-0.10072572956369649,0.016498139234347387,-1.4520719921769851,-1.6266203608958105,0.4457874286662574,-0.6416259582614376,1.6907747020266803,-0.4755580725802387,-0.1347052986582878,-0.2978233270912569,-0.513972243009004,0.022691699770853366,-0.2337067070537319,walking,2026-03-04_14-00-52,6,3.05924072265625,4.044198974609375
-0.04158493455015159,0.0478796381742015,-0.21983853863667882,0.003948674724886471,-0.07481077391501784,-0.05566967761777514,-0.0040517598004087075,-0.7280748486150214,-0.21983853863667885,0.018577130809905237,0.1318589342501006,-0.22760812437027142,0.0854011291516415,0.10221410384534813,0.08592812800668852,0.0005541025375944473,-0.7590955514819305,-0.22760812437027142,-0.030973264447571362,-0.25826385393566514,-0.3934630840241051,-0.26073464339717467,0.183161854694936,-0.32093947455073546,-0.2817876778913077,-0.34765123433923617,-0.39346308402410507,-0.1274838618044065,-0.0062028954378941115,-0.2989684944423815,-0.015476744930718465,0.13736108351668214,0.05371600095442348,-0.044071329767936956,-0.7678273325267634,-0.2989684944423814,-0.07134396445534343,-0.2779621281389256,-0.3668593166944758,-0.2847792574866973,0.3091540670887054,-0.24544547635275807,-0.28528788730310295,-0.711367685009969,-0.36685931669447586,0.36152512036835627,0.48232759970840744,0.007365910221618983,0.42649950114190155,-0.07782575043897312,0.45662077961503,0.2766954839171106,-0.31321100482289327,0.007365910221618944,-0.152682937543503,0.01324375547795851,-1.6568452681798622,-1.1093172644798512,0.8115950306313032,-0.027856297009352046,-1.6833683900185257,-0.679404599898134,-0.17977136423590415,-0.2985939548446105,-0.513972243009004,0.04007112743375141,-0.06430560538388014,walking,2026-03-04_14-00-52,7,3.55669384765625,4.54165234375
-0.8219901665997225,-0.06665398593956308,-0.2559262426235754,-0.019900092544420392,-0.25340716599852053,-0.29738820614567324,-0.08257689625370912,-0.5738004597222609,-0.25592624262357533,0.5396740704215578,0.09374930605641238,-0.2505369539675202,0.08130392521635153,-0.04215709869627705,0.010130954292691419,0.02570148220531514,-0.7590955514819305,-0.2505369539675202,-0.24182443841585993,-0.2761953740717822,-0.39694002905260317,-0.2781898785653545,0.2965611670916623,-0.3482237589105913,-0.3354738808930542,-0.5629850729921756,-0.39694002905260306,-0.7123296683887045,0.05617843459536719,-0.26958104241803454,0.05550392277362056,0.008521322137673648,-0.09470974255325289,-0.05248451294306784,-0.7678273325267634,-0.26958104241803454,0.22670990764314636,-0.17403139868389136,-0.34187708371083314,-0.18257150595232197,0.2851158379785417,-0.1054523004176385,-0.19965721919659807,-0.5199543611817699,-0.3418770837108333,1.5020708803259706,0.4137602383770286,-0.04372617222363682,0.47489512460974237,0.011560807258584762,0.4570830548361631,0.22942379668687524,-0.4260002868787969,-0.04372617222363686,-0.1636906431694879,0.097434253974991,1.0936979938350777,1.7314018252916812,1.2110392406464532,0.25754477638145146,-0.20188705121939626,-0.7771140698228957,-0.19881344819268656,-0.30134451794951805,-0.513972243009004,0.11524057517972486,-0.03808746433389047,walking,2026-03-04_14-00-52,8,4.054148193359375,5.03910595703125
0.2400789797719469,0.18198123611302594,-0.16972725591593676,0.1368134661759906,-0.25340716599852053,0.13432498041489782,0.190581091182569,-0.5738004597222609,-0.1697272559159368,-0.45698859809275316,0.3382128290650358,-0.08815946580128406,0.2918061718488968,-0.07370638592873725,0.010130954292691419,0.04062178467624869,-0.7590955514819305,-0.08815946580128407,-0.5778894715728051,-0.28601722889687464,-0.39875712844505035,-0.2852437139697761,0.2965611670916623,-0.3409180911069256,-0.33032653403174905,-0.7783189116451151,-0.3987571284450503,0.6507778784232046,0.040739625824617244,-0.2770687984957609,0.04009027679530974,0.008521322137673648,-0.09470974255325289,-0.05248451294306784,-0.7678273325267634,-0.27706879849576094,-0.4483155706319539,-0.10948840543682033,-0.32325055477780035,-0.10733904405319851,0.25804280703295224,-0.1054523004176385,-0.18595339230535618,-0.5199543611817699,-0.3232505547778005,-0.6852949177130339,0.224806104853335,-0.17024284359142797,0.19913112309024608,-0.02529100590915797,0.4570830548361631,0.24901093785254585,-0.4260002868787969,-0.170242843591428,-0.09762137394274252,0.07223848869089586,-0.5103304406937894,0.772343226730098,0.7686797243818465,-0.23711719260176248,0.9714706138898389,0.2860685606849438,-0.13592882144730312,-0.33163281718599935,0.1331930549149186,0.07243315504038056,-0.22595732483180472,walking,2026-03-04_14-00-52,9,4.55160107421875,5.539670166015625
0.27530009017562695,0.06710420972680574,-0.21317515552059607,0.03111861179229838,0.06715758228559232,0.13432498041489782,0.05700827765031101,-0.7280748486150214,-0.21317515552059607,-0.07080101483999218,0.30602397406572235,-0.11161162290560776,0.24997595147484908,-0.07370638592873725,-0.011592304067153667,0.02826121638844314,-0.7590955514819305,-0.11161162290560768,0.1422748856344669,-0.299850685332541,-0.40121151114018583,-0.30189596694967563,0.15367589336286286,-0.3409180911069256,-0.28690307972539586,-0.34765123433923617,-0.4012115111401858,-0.13289390388515687,0.027394829708889533,-0.28342721301199436,0.017828848567806633,0.1172567559991947,0.11820594765121561,-0.0009067283955634706,-0.7678273325267634,-0.28342721301199436,-0.297320111427072,-0.20451512196576552,-0.34984535833325975,-0.2059066043562817,0.25804280703295224,-0.11586255399532538,-0.19141629022526407,-1.0941943326663672,-0.34984535833325986,-0.7976093473782323,-0.033072110571731365,-0.30909274692125743,-0.028452206816371253,-0.02529100590915797,-0.14739153692768034,-0.06251924584018714,-0.4260002868787969,-0.3090927469212575,-0.16599650613874162,-0.0819643074469168,-1.9429322504700943,-1.4303291468162056,0.5171736942984216,-0.18700156474649227,0.18481109851797126,0.5438250416543834,-0.18869728561145724,-0.2742457665079488,-0.513972243009004,-0.06193890050557617,-0.17303494578414638,walking,2026-03-04_14-00-52,10,5.049054931640625,6.0377451171875
-1.076897755393576,-0.22033654683813028,-0.2946345152846572,-0.07563730254743764,-0.009622229295271508,-0.37286890861024413,-0.23191604609503033,-0.5738004597222609,-0.2946345152846572,0.8446332880121035,0.22087486579100005,-0.17062028772335164,0.2338457657545694,-0.11860296093568919,-0.011592304067153667,0.04949372392742392,-0.7590955514819305,-0.17062028772335164,-0.06645077902424595,-0.2690481886870408,-0.3955788856193435,-0.2714933854318084,0.15367589336286286,-0.3476272550036704,-0.2916301484416279,-0.7783189116451151,-0.3955788856193434,0.6907771092432515,0.0024841780774584885,-0.2950142065339958,0.003813928614894095,0.2639355367841625,0.11820594765121561,-0.07707423179639812,-0.7678273325267634,-0.29501420653399574,0.7521099792577651,-0.2916531029687568,-0.3696893859495688,-0.2629688715533355,0.45097024463042296,-0.11586255399532538,-0.28907230120977967,0.24569893413102672,-0.3696893859495689,2.3335309972562026,0.12790258618625266,-0.22699661087232947,0.41444091440519326,0.40429768206343575,0.5166244178802147,0.05136589899725561,-0.4260002868787969,-0.22699661087232947,-0.14137337740085967,0.012131692777410602,0.23720753520355758,-0.30988532409905895,0.6840889810445725,0.659273038951352,0.13553413597141237,-0.9719036432873618,-0.18610949468403915,-0.255853596231255,-0.513972243009004,0.03552371316973919,-0.0117358044028247,walking,2026-03-04_14-00-52,11,5.549619140625,6.53519921875
-0.323534176347829,-0.1469338140045201,-0.2775352378274594,-0.16515232501350052,-0.009622229295271508,-0.2528370058316299,-0.1559682316389319,-0.7280748486150214,-0.2775352378274594,-0.0972642319979435,0.19895196921407438,-0.1851012456097117,0.14853899839500018,-0.11860296093568919,-0.01449874711853123,0.047839953244588534,-0.7590955514819305,-0.18510124560971175,-0.08610926988556888,-0.28928777686230045,-0.39934847400569334,-0.29168456786693986,0.3161598833490643,-0.3476272550036704,-0.34100973760818915,-0.1323173956862967,-0.3993484740056932,-0.09582369456822964,-0.17758468862521212,-0.3678408154224456,-0.185384088535828,0.14222118152391972,-0.2528806708314215,-0.20217463265002217,-0.7678273325267634,-0.3678408154224456,0.12682017594452485,-0.2055334553129942,-0.35010236379576604,-0.21483704771488263,0.2687622150781605,-0.14008613976994752,-0.20955383993236154,-0.5199543611817699,-0.35010236379576615,0.8461004137129564,0.6060919793398529,0.1065729849700528,0.5747534832714832,-0.1812728957740077,0.5166244178802147,0.36260305626703637,-0.4260002868787969,0.10657298497005277,-0.18702048857250883,0.05409688398632731,0.7292293729968965,1.1424692230576714,0.32324611458568936,0.348422993994211,0.47042528930780264,0.3475217653266563,-0.21207208656762216,-0.31504372277244375,-0.513972243009004,0.0776160233003067,-0.13415446749431356,walking,2026-03-04_14-00-52,12,6.0476943359375,7.0326533203125
0.556093779549036,0.07279944597814066,-0.21116769496525642,0.06238949346238412,-0.05259867690044955,0.04950105319906285,0.053237612523695806,-0.5738004597222609,-0.2111676949652564,0.8350013972998173,0.33979105110069363,-0.0869934469551925,0.3394150069654915,0.026939191068275886,0.12319674198636944,0.05735904679207911,-0.7590955514819305,-0.08699344695519233,0.32444181319904997,-0.25924586412202943,-0.3936588320337808,-0.26042048205403495,0.07209485393965127,-0.3338842740640359,-0.2571544388195592,-0.5629850729921756,-0.39365883203378077,-0.10347464387897953,-0.023432808753385697,-0.3066791713786366,-0.03264021594297631,0.06419610163885112,-0.16453250415519824,-0.11682625993301486,-0.7678273325267634,-0.30667917137863654,-0.3910348789684298,-0.12885061006567317,-0.3290886808664456,-0.1287908318043554,0.15380741429792388,-0.14008613976994752,-0.15136601850314688,-0.9027810088381681,-0.3290886808664457,-1.9614232205213362,-0.01907595496074373,-0.3025584931734487,0.21343692486282814,-0.25479834452914907,-0.43339244782419445,-0.08793087821348647,-0.4260002868787969,-0.3025584931734487,-0.1058115734916267,0.03130153483466855,-1.5359653471419197,-1.694708483303765,0.3936789589415228,-0.22144415341712428,-0.5129424034280056,0.7998439294946544,-0.14002526213216204,-0.24944029278279828,-0.513972243009004,0.041872153168335424,-0.2535905112810743,walking,2026-03-04_14-00-52,13,6.5451484375,7.5301064453125
-0.436427648545656,0.2205056386996518,-0.15376407594554725,0.18410988298739403,-0.0788552196893917,0.04950105319906285,0.06417818010862796,-0.5738004597222609,-0.15376407594554725,0.07410777319810768,0.31626980030174245,-0.10421488381860303,0.26107949319920054,-0.2372484389533592,0.12319674198636944,0.18229877427176464,-0.7590955514819305,-0.1042148838186031,-0.30472008960380265,-0.2792824591475724,-0.3975178213852379,-0.2809483748253245,0.07209485393965127,-0.3338842740640359,-0.2571544388195592,-0.34765123433923617,-0.3975178213852378,0.3388255940788208,0.007938362573998771,-0.2925086626898015,0.0011270738889999686,0.06419610163885112,-0.1398063673486356,-0.10427921848966333,-0.7678273325267634,-0.2925086626898015,0.1415763529925876,-0.20996261277465575,-0.35121328262820833,-0.21903487241701938,0.15380741429792388,-0.22078929762846058,-0.1937159103578686,-0.9027810088381681,-0.35121328262820845,1.0965072400783238,0.48231746750159493,0.0073581564856390605,0.4827712638966548,-0.25479834452914907,0.5273249030881909,0.4071973817406705,-0.4260002868787969,0.007358156485639064,-0.12458360982730377,0.09036973287909349,-0.627770579070566,-1.3018618231176817,0.7356923900506459,0.06489295050928225,-0.9748461029430562,1.7404188793744901,-0.16716843422954586,-0.2137493079912815,-0.513972243009004,0.1045212211379086,-0.12775051056655562,walking,2026-03-04_14-00-52,14,7.042602294921875,8.027560791015626
-0.6326737443548291,0.11554358391057293,-0.19561324500186061,0.10797722967148655,-0.0788552196893917,-0.088002226837646,-0.022824303044488486,-0.7280748486150214,-0.1956132450018606,0.42703903776094515,0.31277113291157294,-0.1067478236480691,0.2741416423106354,-0.2372484389533592,0.2116582856027756,0.23263353218895036,-0.7590955514819305,-0.10674782364806912,-0.3715289679320958,-0.2543680938748605,-0.3926804358620068,-0.2557346858525021,0.20509608112613906,-0.281489570770461,-0.260658406230922,-0.5629850729921756,-0.39268043586200674,-0.21313096669342133,0.06436687310405832,-0.2655523887092485,0.05492261448842248,0.03338004832238459,-0.10310059453612226,-0.06965103456069434,-0.7678273325267634,-0.2655523887092484,0.48880951443339493,-0.10482852384492827,-0.3218134618325732,-0.10680639118883169,0.07953021738139915,-0.12853452095614187,-0.10770654453449371,-0.5199543611817699,-0.3218134618325733,1.4906190781452024,0.35584426240552647,-0.08473174379326587,0.42213883234065175,-0.022547172842375205,0.5273249030881909,0.28375334752139336,-0.4260002868787969,-0.08473174379326584,-0.10855507181225937,0.11609393250052125,1.418755035747936,0.9718121436048294,0.1367843502845358,-0.28699510584744836,0.2538537990262601,0.1939384894655639,-0.15867506199856482,-0.20328827171027705,-0.513972243009004,0.1360806157952509,-0.10797176675209494,walking,2026-03-04_14-00-52,15,7.54005517578125,8.525014892578126
0.5617012557285097,-0.0036676417207331157,-0.23684544737196078,-0.005481183341587608,-0.008767704543648605,-0.088002226837646,-0.05202834572732411,-0.7280748486150214,-0.23684544737196075,0.6409978763547238,0.24486478138445314,-0.15444002937364382,0.23049720287196265,-0.17648343518081094,0.2116582856027756,0.2038965205013763,-0.7590955514819305,-0.15444002937364376,-0.6633521804822028,-0.24891344889987002,-0.39156826410062157,-0.24760314035146708,0.20509608112613906,-0.281489570770461,-0.260658406230922,-0.1323173956862967,-0.39156826410062157,0.577889028351589,0.029312583553653813,-0.2825199479301954,0.026988437350707776,0.03338004832238459,-0.10310059453612226,-0.06965103456069434,-0.7678273325267634,-0.28251994793019547,-0.20594063539056667,-0.07043957525996655,-0.31082369446871133,-0.079152291111006,0.07953021738139915,-0.12853452095614187,-0.10770654453449371,-0.5199543611817699,-0.31082369446871144,-0.4389120225786443,-0.2103776313778853,-0.3819156310936712,-0.23353737640692765,-0.022547172842375205,-0.21407457374171052,-0.09834429289812359,0.13794612340072113,-0.3819156310936712,-0.1181607299172057,-0.07553689161674683,0.22058983565069853,0.6711976754509731,-0.1365394058151615,-0.5300513416097803,0.7537252976360032,-0.21154305047584446,-0.16299731904934328,-0.23653390093996696,-0.513972243009004,-0.07579425597571383,-0.10783837088670868,walking,2026-03-04_14-00-52,16,8.037509521484376,9.02246728515625
0.6996150882968982,-0.06713590060977839,-0.2560650231742739,-0.03949642850708886,0.3540810484568788,0.08661941846315452,-0.09273164913731614,-0.5738004597222609,-0.2560650231742739,0.017327241980936478,0.148891017017337,-0.2170759421207757,0.10152466773207862,0.04656272724510545,-0.0634846566493467,-0.05814333478858175,-0.7590955514819305,-0.21707594212077558,0.05605181073791329,-0.34747581082634943,-0.4087231764584091,-0.34969725617170166,0.2564821027483019,-0.3683034650691739,-0.3374412173824916,-0.7783189116451151,-0.408723176458409,0.40644852730991227,-0.16225041150408792,-0.362387157339284,-0.1652719056588455,0.17552899550136067,-0.28292709114890113,-0.23471751585706935,-0.7678273325267634,-0.362387157339284,-0.4201300136817097,-0.18520646324794973,-0.34485993794115655,-0.18108158025335128,0.2938781040445587,-0.1784971760094247,-0.24242362496539127,-0.3285410373535707,-0.3448599379411566,-0.6134935407930614,0.21893790177097094,-0.1738364656437448,0.1875491184443598,-0.1491837744123891,-0.011659366495110483,0.07328387689653407,-0.4260002868787969,-0.17383646564374478,-0.23175715840305525,-0.03435738140632232,-1.001928117104259,-0.5256752926102284,0.024945453318681737,-0.8082740007268003,0.15704150529841251,0.2690525942756998,-0.24501173179022367,-0.34456430611327754,-0.29825047703436314,-0.0293507643962016,-0.3275114431820018,walking,2026-03-04_14-01-07,0,0.06560205078125,1.050560791015625
-0.3230479658072335,0.26400959055729367,-0.13489651684648551,0.21712067739806987,-0.14140633906605882,0.08661941846315452,0.11372787199046921,-0.7280748486150214,-0.1348965168464855,-0.3352236397166667,0.0014666076207089037,-0.3024109395568784,-0.031351192792402095,0.04656272724510545,-0.16325364043131474,-0.1149120440040247,-0.7590955514819305,-0.3024109395568785,0.11730336629887875,-0.4074935143375343,-0.41611873381276854,-0.40929621310412145,0.3923753847391505,-0.3922509773113517,-0.39561244918471,-0.5629850729921756,-0.4161187338127684,-0.16853506124690412,-0.32993519602038845,-0.4144588045324474,-0.33571603908002035,0.27773767926220927,-0.4246370908874799,-0.359701925892136,-0.7678273325267634,-0.4144588045324474,-0.34123795663996404,-0.28280886970036695,-0.36787345757988804,-0.2783966827308724,0.2938781040445587,-0.41864051322050905,-0.3684415483080105,-1.0941943326663672,-0.3678734575798882,-1.671109791508829,0.10906584386073384,-0.23738897189211708,0.24466551141137186,-0.1491837744123891,-0.14626789488890107,0.003910209006272951,-0.4260002868787969,-0.2373889718921171,-0.23459562676664672,-0.11958531033104476,-1.8357923400393932,-1.925872054133221,0.11300647705852013,-2.01989616845601,0.4375990081690846,-0.8121833488005812,-0.26278201973595827,-0.3516198763613073,-0.513972243009004,-0.11025083870019957,-0.2764635894125862,walking,2026-03-04_14-01-07,1,0.563056884765625,1.548013427734375
-1.2358825402265725,-0.08948033611989394,-0.26237951137065096,0.05830844385549714,-0.14140633906605882,-0.3048932143291909,-0.1339940094777746,-0.7280748486150214,-0.26237951137065096,0.10531913389416218,0.15482959378114566,-0.21336232628344268,0.10902886885458049,-0.13126640830187558,0.07432066047030304,0.10436713929521096,-0.7590955514819305,-0.2133623262834427,0.1881679271184965,-0.30764807442166014,-0.40254089199386917,-0.30945279763791417,0.297216139286195,-0.2971490525405632,-0.29968727637126147,-0.5629850729921756,-0.4025408919938691,0.2264592967678737,-0.17889123131067394,-0.36829905037310856,-0.18504378601632937,0.27773767926220927,-0.24981985423393127,-0.2709925925068215,-0.7678273325267634,-0.3682990503731085,0.40035669285248676,-0.361989008177815,-0.3825370898188561,-0.3571512968897705,0.208819910698865,-0.38019631433791695,-0.3052127649803744,-0.3285410373535707,-0.38253708981885626,0.8348979999848588,0.22258622665589267,-0.17160464896151365,0.21282146233182556,0.21107445386411391,0.28330361526418546,0.03381879725057561,-0.4260002868787969,-0.17160464896151345,-0.1605216652201819,-0.10255025397320752,-0.8240738163848689,-0.25596185400644633,0.5506268464572973,0.08595978240344768,2.034021620571862,-0.1503754380300411,-0.20564668082265908,-0.3143943796449035,-0.513972243009004,-0.11492676798990203,-0.18249102170776146,walking,2026-03-04_14-01-07,2,1.060509521484375,2.045466552734375
-0.14415176021486742,-0.31664979159531376,-0.31321848292998733,-0.3369702101789465,0.22916579958398536,-0.3048932143291909,-0.28840388592583166,-0.7280748486150214,-0.31321848292998733,-0.353175154250525,0.23460790627162145,-0.16140059713880942,0.18897297792357282,-0.13126640830187558,0.07432066047030304,0.10436713929521096,-0.7590955514819305,-0.1614005971388095,-0.14225547194802793,-0.29968397929864155,-0.4011826637979224,-0.3019627599345016,0.297216139286195,-0.2971490525405632,-0.29968727637126147,-0.7783189116451151,-0.4011826637979223,-0.28142307402112043,-0.10621274951006568,-0.3412728258662075,-0.11317006962545656,0.23907925052324105,-0.24981985423393127,-0.2509180051214589,-0.7678273325267634,-0.34127282586620744,0.04740016426958917,-0.22972807513906696,-0.35603397914258017,-0.2388285481992511,0.14108319942644132,-0.2122702300254289,-0.18280469047290965,-0.5199543611817699,-0.3560339791425803,0.688350067921062,0.2908566412040442,-0.12840018212275772,0.2628573655210287,-0.05283450201759646,0.28330361526418546,0.17408928951130762,-0.4260002868787969,-0.12840018212275767,-0.21215291664399064,-0.016000569925246205,0.04505180145845909,1.2160414372280302,0.4414525128969982,0.1032165766474247,0.8847016535289066,0.077130546564898,-0.2260834405476567,-0.3244845767546837,-0.513972243009004,-0.014849052264397165,-0.24319011231877333,walking,2026-03-04_14-01-07,3,1.55796240234375,2.542918701171875
0.08740545861746557,0.08183701442525976,-0.20795074693359855,0.03700445290930936,-0.1546086155189522,-0.05400259322240167,0.030253193213580547,-0.7280748486150214,-0.20795074693359852,0.3741308326169839,0.41307793881963895,-0.03118426351547247,0.3645599685044789,-0.07924169926351199,0.10744211323758962,0.0986097504408976,-0.7590955514819305,-0.031184263515472453,0.2382502929820168,-0.26343588941808077,-0.3944871004763773,-0.2651391922584269,0.1083829304977861,-0.3186191169960698,-0.2574271866107216,-0.34765123433923617,-0.39448710047637725,-0.6207486164066738,0.12433918426236867,-0.23483584909421817,0.12018160189490905,-0.0016557841336126498,-0.02194714412975348,-0.010277050975764923,-0.7678273325267634,-0.23483584909421812,-0.20131526829847438,-0.20188112246812412,-0.3491778401280468,-0.20714521476555736,0.14108319942644132,-0.2122702300254289,-0.18280469047290965,-0.711367685009969,-0.3491778401280469,-1.5208491682677114,-0.03566606462659721,-0.3102911328171134,0.09762523514538383,-0.05283450201759646,-0.21474603276010149,-0.08259229884852896,-0.31321100482289327,-0.3102911328171134,-0.10722151924014349,0.040442221179054084,-1.9385778655492154,-2.3174614621954572,0.6973908254337315,-0.09092297151150991,0.03721024841508685,-0.3777342953283627,-0.1447997228919038,-0.2419273552549965,-0.513972243009004,0.05127848327198338,-0.2762564161391737,walking,2026-03-04_14-01-07,4,2.05541552734375,3.040371337890625
-0.33463941328594166,0.17149312958966695,-0.1739520152294269,0.1312263829080875,-0.1546086155189522,-0.05400259322240167,0.030253193213580547,-0.5738004597222609,-0.17395201522942694,-0.3987455376137267,0.4083439164363713,-0.03488769594801124,0.3547782926541467,-0.10559962915546975,0.10744211323758962,0.11107495396825492,-0.7590955514819305,-0.03488769594801124,-0.41943641944100024,-0.264115696232568,-0.39462042102787265,-0.2650834126173473,0.1083829304977861,-0.3186191169960698,-0.2574271866107216,-0.34765123433923617,-0.3946204210278726,0.15413244908150361,0.11307264432790609,-0.24076884146733227,0.1030905964137721,-0.0016557841336126498,-0.02194714412975348,-0.010277050975764923,-0.7678273325267634,-0.24076884146733227,0.13189064251563545,-0.301794113343592,-0.3717164711296749,-0.3090770565768486,0.32149179888347673,-0.3064913190847243,-0.3235674945674428,-0.9027810088381681,-0.371716471129675,0.7030855471246281,0.34708498709602637,-0.09076207818478914,0.3173640183203575,-0.007453167947717064,0.30618899112866166,0.16176313100335868,-0.4260002868787969,-0.09076207818478904,-0.08147241614175206,0.057644542744461055,-1.1533598178734372,-1.6882466681154968,1.0003719123253167,0.2099807829046033,0.12154536525256183,1.0871053579754808,-0.14368139017902157,-0.21311917468712702,-0.513972243009004,0.06858367583115883,-0.16430206994500213,walking,2026-03-04_14-01-07,5,2.55286865234375,3.5378251953125
-0.3844053621773428,-0.14762404914089094,-0.2777078574606103,-0.15937017978376508,0.02384906201715369,-0.27080138579262486,-0.1812816446725802,-0.7280748486150214,-0.2777078574606103,-0.15884003262853946,0.24833271688679434,-0.15207217199703407,0.1959949268872864,-0.10559962915546975,0.05218493177215315,0.07963353051413237,-0.7590955514819305,-0.15207217199703416,0.057677534639599334,-0.2942881569232315,-0.4002393332499239,-0.29660764764816644,0.3441969095222665,-0.29682640613590505,-0.3137376095315526,-0.7783189116451151,-0.40023933324992383,-0.4515480664450693,-0.03411597810923946,-0.3113717580755721,-0.03929106870598683,0.2607426893422329,-0.1478026217445725,-0.21039974909605347,-0.7678273325267634,-0.31137175807557205,0.1665631242852904,-0.2038337108976077,-0.34967305333304505,-0.21273118134691454,0.21354811024285014,-0.1836908613343485,-0.20448763336687822,-0.5199543611817699,-0.34967305333304516,1.3751796263623943,0.10523103349595775,-0.23947914890061622,0.18621091679227256,0.2537428055145919,0.30618899112866166,0.02293461852763511,-0.4260002868787969,-0.2394791489006162,-0.17792558659723695,-0.008037562813863027,0.5777436720813819,2.1476362837301766,0.810324732267761,0.10460894848816953,0.8045826302231914,0.07011439493384423,-0.21952181479235602,-0.27441311005460034,-0.513972243009004,-0.005623837152524099,-0.23276410410284348,walking,2026-03-04_14-01-07,6,3.050320556640625,4.035278076171875
0.20340673139409904,0.07266721008574471,-0.211214478928596,0.032347293878225575,-0.31314532280408125,-0.07004728282054265,0.08616025581594731,-0.7280748486150214,-0.21121447892859593,0.7704125103376295,0.31255887176980646,-0.10690125610785607,0.3068751119528423,0.05235658592504946,0.08161414819205975,0.02167808000794757,-0.7590955514819305,-0.10690125610785596,0.05239164170012229,-0.23481200439708927,-0.38860466792182463,-0.2372458915323768,0.08074528470602264,-0.29682640613590505,-0.23367351829527802,-0.1323173956862967,-0.3886046679218246,1.0067774324391963,0.03032599047817581,-0.28203963823518235,0.04222102267298757,0.2625092402021444,-0.06829954653703539,-0.17097401087750974,-0.7678273325267634,-0.2820396382351823,0.19743254740604485,-0.12598873097703112,-0.32823927694552657,-0.1361074987262541,0.21354811024285014,-0.1836908613343485,-0.20448763336687822,-0.5199543611817699,-0.32823927694552674,-0.39671264803101813,-0.07073244274474416,-0.3261039606852097,-0.10466861385251804,0.004919180761592016,-0.1697705988768638,-0.09010986538536155,-0.4260002868787969,-0.32610396068520964,-0.0744342083731005,-0.015585634609858014,-1.6484445166150097,-0.360671636617931,0.24330483101385356,0.46371389461945506,1.4122014409589119,-0.3844840926810504,-0.12506295061701403,-0.2655711750744621,-0.513972243009004,-0.017240462341407227,-0.3020904826022718,walking,2026-03-04_14-01-07,7,3.547774169921875,4.5327294921875
-0.2704953328821074,0.2146602873747928,-0.15623120646236544,0.16807326820495908,-0.38800002708795717,-0.07004728282054265,0.11735068929574115,-0.7280748486150214,-0.15623120646236535,-0.48254629359943085,0.18585589877252962,-0.19361268072162527,0.15064869942793752,0.05235658592504946,0.08161414819205975,0.02167808000794757,-0.7590955514819305,-0.19361268072162519,-0.1946805803593652,-0.28040778259464527,-0.3977269224608522,-0.28257427633770876,0.08074528470602264,-0.32789126603535634,-0.25556085473016116,-0.34765123433923617,-0.3977269224608521,-0.520464747646777,-0.031406363309731365,-0.3101879570073974,-0.035208432472741996,0.07411061686682748,-0.06829954653703539,-0.07314218607769558,-0.7678273325267634,-0.3101879570073974,0.15240204428791929,-0.2677484916263261,-0.3646781734904435,-0.27548384911182405,0.2972890056113702,-0.2007404027998272,-0.2558225391381133,-0.9027810088381681,-0.3646781734904436,-0.5834591799484892,0.292994668348789,-0.12700296902425415,0.25581561911553097,-0.05244179964722329,0.3471546101613926,0.20678767438565648,-0.31321100482289327,-0.12700296902425404,-0.13417372338551745,-0.010814951436420701,-1.9813745925851949,-1.7627920330445868,0.37305972614718,0.9321411164110274,0.7643042370638683,0.07780174105114364,-0.18159847543798857,-0.2420285112881259,-0.513972243009004,-0.0008852312033850948,-0.21553418027768637,walking,2026-03-04_14-01-07,8,4.045227294921875,5.030182373046875
-0.6783012773034239,0.10049557643488767,-0.20118738837240488,0.10048373206541905,-0.38800002708795717,-0.2013900413959502,0.034246154355264985,-0.5738004597222609,-0.20118738837240485,0.4482770008080062,0.37634397197937713,-0.05956489836371198,0.33502241401724125,-0.265828341224778,0.2523091871207057,0.26927997896262185,-0.7590955514819305,-0.05956489836371191,0.23406566084047203,-0.23231100150760314,-0.3880657416964447,-0.23415126803453684,0.0416286878272143,-0.32584282195213826,-0.2422298811661627,-0.34765123433923617,-0.38806574169644464,-0.9313624725152037,-0.08637233435227559,-0.3333513518641263,-0.075566339959532,0.07411061686682748,-0.1885759626389056,-0.1341753021400243,-0.7678273325267634,-0.33335135186412623,0.01132014171598144,-0.13866465254325605,-0.3319658786882794,-0.14942209738471854,0.12083162489468363,-0.13169426604119777,-0.1302706029758604,-0.5199543611817699,-0.33196587868827954,0.6602242295598383,0.366465050488574,-0.07735944365323028,0.33236287876617304,-0.05244179964722329,0.3806656972010532,0.22405840047315964,-0.4260002868787969,-0.0773594436532303,-0.06706236041937268,0.060092656756831904,0.11577628402830005,0.6526012460887907,0.6144369362301203,0.3052702799227885,1.8412997011187877,-0.5031953203041495,-0.12285738487428792,-0.2195006202270891,-0.513972243009004,0.04472262928236901,-0.1717722398099938,walking,2026-03-04_14-01-07,9,4.542678466796875,5.528257568359375
0.41001019787050935,0.14733060852907895,-0.18348770473747023,0.11568360937435507,0.0073559999094891,0.05084569211392264,0.029106511276009807,-0.5738004597222609,-0.18348770473747014,0.11031184506195976,0.524767567393903,0.06013321400916529,0.4592905379687432,-0.265828341224778,0.2523091871207057,0.26927997896262185,-0.7590955514819305,0.060133214009165464,-0.9603908279226292,-0.22031399180355948,-0.3854248281764533,-0.21531528393671412,0.0416286878272143,-0.32584282195213826,-0.2422298811661627,-0.7783189116451151,-0.3854248281764532,0.542688133671377,-0.14910631148369496,-0.35760158346488324,-0.1487633383530357,0.1932883260756282,-0.1885759626389056,-0.19606202169745401,-0.7678273325267634,-0.35760158346488324,-0.5094900497956943,-0.1018025806377337,-0.3208736142760688,-0.09662255977881845,0.12083162489468363,-0.13169426604119777,-0.1302706029758604,-0.5199543611817699,-0.3208736142760689,-0.335667954112011,0.29975779590634716,-0.12256555942790666,0.24843933519101885,-0.16743922402077074,0.3806656972010532,0.28518078744067116,-0.4260002868787969,-0.12256555942790666,-0.01942481423762229,0.018482230896058095,-0.365356026798823,0.666619581467403,0.22248310021614265,0.4857518139438652,0.7638414227036114,0.17245545796753572,-0.06912586058397238,-0.25731443110821534,-0.513972243009004,0.006768182173207619,-0.18229262426628545,walking,2026-03-04_14-01-07,10,5.04013134765625,6.02633056640625
-0.12362071849323861,0.1901141471541477,-0.16641551141135325,0.1397058763317811,-0.22007695164340688,0.05084569211392264,0.12387319847875107,-0.7280748486150214,-0.16641551141135327,-0.1575192823019709,0.3840621188497908,-0.05366976368401345,0.3246037674539525,0.002343977812014949,0.24049521522885695,0.13573364199228083,-0.7590955514819305,-0.053669763684013265,0.02101067429021764,-0.2903345436191153,-0.39953629068290375,-0.2927224027241918,0.21291751046005197,-0.3093600744871184,-0.28267206470289147,-0.34765123433923617,-0.39953629068290364,-0.3654814276444064,-0.028910715274466085,-0.3090937885462721,-0.03562686543603533,0.016343717806879998,0.052591567429483135,0.018200105420788055,-0.7678273325267634,-0.3090937885462721,-0.09762615873389643,-0.27302142054964723,-0.3658116744464748,-0.2793711865901664,0.3153246757092521,-0.30400757089254493,-0.3191424452760553,-1.0941943326663672,-0.3658116744464749,-1.2162374277263674,0.0871189564095509,-0.2492345464037064,0.1410455659745092,-0.16743922402077074,-0.10651569916131644,0.03410040793690294,-0.31321100482289327,-0.2492345464037065,-0.1268097834015754,-0.0728147384636615,-1.830508821500301,-2.293259705424711,0.6797588497667965,0.2306292800415095,0.43259232931589303,1.30536831052812,-0.17308409130741645,-0.20889987371199997,-0.513972243009004,-0.07477149261695612,-0.10029310456778928,walking,2026-03-04_14-01-07,11,5.538206298828125,6.523783447265625
-1.0852454230300899,-0.09040068444351138,-0.2626345535356298,0.01939142614577748,-0.22007695164340688,-0.351671077567855,-0.1308113331465058,-0.5738004597222609,-0.2626345535356298,1.0398126233818104,0.32487932513596796,-0.0979502158427912,0.35443473114202784,0.03811614150360842,0.24049521522885695,0.11881625497222849,-0.7590955514819305,-0.09795021584279144,0.6813294342810774,-0.24509685233091158,-0.39077873975148053,-0.2427032832783927,0.21961669109927046,-0.3049897050824482,-0.28162874806710375,-0.7783189116451151,-0.3907787397514804,0.5301462790709196,0.01461793291380992,-0.28941619856059064,0.011410580845125667,0.016343717806879998,0.052591567429483135,0.018200105420788055,-0.7678273325267634,-0.28941619856059064,0.5211477008777065,-0.21637369396791442,-0.35280141626386263,-0.211890646625153,0.12931965385428318,-0.3305318062321278,-0.23890931421710906,-0.3285410373535707,-0.35280141626386274,1.159650196801797,0.08517237036591363,-0.2502715439570312,0.13196964976652534,0.1675803787586497,0.16788160562809523,-0.002549071461312846,-0.4260002868787969,-0.2502715439570312,-0.08659721575489321,-0.016507341635626706,-0.4503759749624762,-0.37212749466057277,1.036177622986662,0.6146679910419063,1.5807303538922428,0.5233860764278024,-0.14488248791778,-0.19885150549633523,-0.513972243009004,-0.034026308101133045,-0.09172616909923177,walking,2026-03-04_14-01-07,12,6.036279541015625,7.021236328125
0.260124165152605,0.004614812472675719,-0.23419728313381938,-0.028224095512306608,0.06356112133052295,0.10196327784866613,0.03803062203576146,-0.7280748486150214,-0.23419728313381927,0.17693789488845382,0.19440392933517478,-0.18806890773542176,0.14887824847825618,0.03811614150360842,0.0816159940410472,0.028413727392139498,-0.7590955514819305,-0.1880689077354218,-0.3922071392003952,-0.2795439454296379,-0.39756648164948966,-0.2806246140105142,0.21961669109927046,-0.3049897050824482,-0.28162874806710375,-0.34765123433923617,-0.39756648164948954,0.8051409372953703,-0.1862159096846946,-0.3708492628326203,-0.17484751740288715,0.3299991665088888,-0.16562862426684508,-0.2554089558983773,-0.7678273325267634,-0.3708492628326203,-0.14956073407789064,-0.1714715963639034,-0.3411837575332143,-0.17907035714679398,0.12931965385428318,-0.2721465791222863,-0.20827100811327512,-0.5199543611817699,-0.3411837575332144,-0.37430054174450345,0.3552220556632157,-0.08516158863624838,0.3036722494321108,-0.06489357844762718,0.16788160562809523,0.12101337569467141,-0.4260002868787969,-0.08516158863624851,-0.1625917516195623,0.024294719689375667,-0.7285746263420014,1.1291807107327207,0.4334358275392644,0.007701675306938785,0.6851265010832825,0.39811152776751935,-0.198156827181627,-0.27523919216668913,-0.513972243009004,0.012875296839078537,-0.32578066407181155,walking,2026-03-04_14-01-07,13,6.533732666015625,7.518688232421875
1.3028957020185028,-0.024218940999967152,-0.2432766966595279,0.12746179986647957,0.5379254314529415,0.10196327784866613,-0.15962734217115387,-0.7280748486150214,-0.24327669665952786,0.7225488728224341,0.07059226633572406,-0.26403933388294176,0.08277053165508533,0.08978218133729143,-0.0005788153528318834,-0.04278917461588486,-0.7590955514819305,-0.2640393338829419,0.02527274077119955,-0.3398992939069267,-0.40762542723400663,-0.3421992949379466,0.24115299102738,-0.3648560713270417,-0.3303537071876805,-0.34765123433923617,-0.40762542723400663,0.42123367622067814,-0.02398423867033172,-0.3069230417759045,-0.028910017618836742,-0.021961382345586648,0.008255353289625046,0.015593228507751966,-0.7678273325267634,-0.3069230417759044,0.06311376841365558,-0.23262380168689242,-0.3567214516276945,-0.24167948245710258,0.3507041456859102,-0.2721465791222863,-0.3203314109016973,-1.0941943326663672,-0.3567214516276946,0.35782434187740053,0.6611932722939037,0.15363342652474235,0.5995169644576539,-0.06489357844762718,0.5026720158841652,0.29355547990669734,-0.4260002868787969,0.15363342652474263,-0.19293785403528524,0.12926268989255776,-1.7327909902192804,-0.963678673335621,0.2616624164311345,-1.0070470300793715,-0.6882262494719179,0.5754425085538081,-0.21502662261139305,-0.34960233564498827,-0.513972243009004,0.12861842386793607,-0.09521432710008045,walking,2026-03-04_14-01-07,14,7.031185302734375,8.016141357421875
0.22175752892859316,0.05466602725825711,-0.21750621798185252,0.01636200874580463,0.31325393166365884,0.04700637902938964,-0.10078418746755716,-0.7280748486150214,-0.21750621798185252,0.3263147563369205,0.10868823522402181,-0.24165382899170193,0.07638672388469475,-0.004682181641595844,-0.0005788153528318834,0.0018849525041387775,-0.7590955514819305,-0.24165382899170185,-0.035046573864513514,-0.3251980880767282,-0.4053904194036725,-0.32756996535445976,0.24115299102738,-0.3648560713270417,-0.3303537071876805,-0.5629850729921756,-0.40539041940367243,-0.615801351957841,0.001528103298549906,-0.29545159325792564,-0.0006053330637549489,-0.021961382345586648,0.008255353289625046,0.015593228507751966,-0.7678273325267634,-0.2954515932579256,0.8503986509616135,-0.2953790472965567,-0.37044100525196577,-0.2557136742552132,0.3507041456859102,-0.27851130708051114,-0.32367137364749354,0.43711225795922587,-0.3704410052519659,6.266631193016302,0.31409327251149227,-0.11307103370033912,1.7133099139784218,0.6692337881681403,0.860388236341462,0.08771622614639372,-0.4260002868787969,-0.1130710337003392,-0.20724447675459493,0.49311094041072867,0.2516220292380492,-0.8057796852113561,0.6826345919547593,-0.6282485085528643,-2.527209230472907,0.9101808571470082,-0.22334235229971758,-0.34792928564641623,-0.513972243009004,0.6186059398193539,0.13586423450169258,walking,2026-03-04_14-01-07,15,7.52863720703125,8.51359326171875
-0.4630831726769595,-0.2650989907286172,-0.3038154143862819,-0.25248021693295347,0.31325393166365884,-0.32000700916874114,-0.33300465606402657,-0.7280748486150214,-0.30381541438628196,0.08906193515798397,0.19437209949738396,-0.18808963296870562,0.14600554953654596,-0.02031334832236235,-0.08868157207231613,-0.04085335704099138,-0.7590955514819305,-0.18808963296870573,-0.18023380038999168,-0.31296276974490006,-0.40342466097713836,-0.31509969058727016,0.2438977679553675,-0.3643669280896591,-0.3308432216503872,-0.5629850729921756,-0.40342466097713836,-1.2114011733283423,-0.14289093040955075,-0.3553030197975861,-0.11509267026005147,0.07704819303681577,-0.23827429441780795,-0.1609196723675095,-0.7678273325267634,-0.35530301979758605,1.3103651887669776,-0.28312744602279366,-0.3679396461046806,-0.18437215146958214,0.48221979831119643,-0.09704490150246255,-0.29501542511513107,-0.13712771352537156,-0.3679396461046807,6.261950260862135,0.2675037347185878,-0.14348674398404107,1.6925292274697232,0.799448806686585,0.860388236341462,0.01850552169607005,-0.4260002868787969,-0.14348674398404093,-0.21463157687878645,0.45621550750253775,1.505256060952425,0.622914450110741,0.5098859550666753,0.7189626337948222,-0.547828821929269,-0.8243758525620578,-0.2307697154321595,-0.35471079157877866,-0.513972243009004,0.601034111877581,0.09729882807552255,walking,2026-03-04_14-01-07,16,8.02609033203125,9.01104638671875
0.3231033020717472,-0.24252253905978088,-0.2993029687017194,-0.2501763939225228,0.3647695153333291,-0.2711649909280355,-0.3235663306244418,-0.41952607082950055,-0.2993029687017194,0.12021215820292595,0.21457238202625825,-0.17481318121355655,0.1659718331561783,-0.02031334832236235,-0.08868157207231613,-0.04085335704099138,-0.7590955514819305,-0.17481318121355657,-0.4549179559359142,-0.3095318673158019,-0.40285621533613236,-0.3098351551097663,0.2438977679553675,-0.3643669280896591,-0.3308432216503872,0.2983502816195822,-0.4028562153361323,-0.3660102051885332,-0.15585891659909482,-0.36007288945529514,-0.1608789449334011,0.0862047206196133,-0.23827429441780795,-0.16567448313202637,-0.7678273325267634,-0.36007288945529514,0.6394937654878583,-0.23579580061330754,-0.3574690053158455,-0.2221175041087796,0.35544769214275773,-0.09704490150246255,-0.23084592000645227,-0.13712771352537156,-0.3574690053158457,0.8993019672661301,0.5943205058400663,0.09675032045130257,0.5680736137475326,-0.17320140054916056,0.4898897849043552,0.3445346471392743,-0.4260002868787969,0.09675032045130279,-0.20384684900064792,0.04069730355806287,0.16685572967629084,-0.03949175811753895,0.26194625527913595,0.13997975584595657,-0.6899487357519142,1.3596841092898067,-0.22230924678353645,-0.35354557743198034,-0.513972243009004,0.08179899833864944,-0.14008028778502726,walking,2026-03-04_14-01-07,17,8.523542236328124,9.51160888671875
0.23346833094755604,-0.16549531366201964,-0.28209907096449055,-0.18852352183701596,0.28818383221938837,-0.1729479081682122,-0.22950971527114483,-0.5738004597222609,-0.2820990709644905,0.14357601238935533,0.0804947596246939,-0.2583051946535069,0.040052027397288366,0.13130665508320957,0.01730346199540044,-0.05225190254708838,-0.7590955514819305,-0.25830519465350676,-0.05325218400182312,-0.35899126955133714,-0.41032116485330145,-0.36130851258168234,0.3001858311941918,-0.3882780681423906,-0.36479645555068435,0.08301644296664276,-0.4103211648533014,-0.42112095212221706,-0.1766572735115077,-0.36751493577703404,-0.18025542969695993,0.2797893789514095,-0.2594561195176771,-0.27694783174492893,-0.7678273325267634,-0.367514935777034,0.3757512716239238,-0.33530908991794667,-0.37799702787131495,-0.3333701858659245,0.35544769214275773,-0.2855085895732223,-0.32974436487686887,-0.711367685009969,-0.37799702787131506,-0.45748979644367843,0.2941880119304438,-0.12622194542385928,0.24896120075144842,-0.17320140054916056,0.3255305627887153,0.2598282602126191,-0.4260002868787969,-0.12622194542385928,-0.2647532706765273,-0.0949464512308306,-1.179421731673606,-1.4344157685210905,0.42074406606223524,0.4508231509673796,-3.306712069260103,0.1989169862997882,-0.28743571197489504,-0.34367209046393254,-0.513972243009004,-0.06987078713234683,-0.27534241910186397,walking,2026-03-04_14-01-07,18,9.020995361328126,10.0096826171875
0.3756706801960711,-0.013538671501481286,-0.23995929802494947,-0.03579365991103361,-0.11016850090125839,-0.09574795305216417,-0.014677650556154045,-0.5738004597222609,-0.23995929802494947,-1.5416472348501329,0.20105326178006044,-0.18372588538827678,0.3171152414287228,-0.18665701869500012,-0.19331398338415615,-0.021722044145187677,-0.7590955514819305,-0.18372588538827672,-0.0022575378443126597,-0.3303658120657552,-0.40619185365700666,-0.3327156033432997,0.033977653035364166,-0.35621366285054945,-0.2613030506944016,-0.34765123433923617,-0.40619185365700655,0.35747947129515983,-0.12310991790435057,-0.34783534254180004,-0.12780508016707348,0.2764107290110928,-0.12058806097199365,-0.20472609597744068,-0.7678273325267634,-0.34783534254180004,-1.0585099667327642,-0.0650936857246575,-0.30905450038620064,-0.018867957437420636,0.10063548903269547,-0.056814144432197324,-0.08075353492061185,0.05428561030282759,-0.3090545003862007,-1.7990089085615515,-0.2860997662539833,-0.4073934318827216,-0.007569111499217845,-0.09935575321079737,-0.5136559005662336,-0.21191596937595067,-0.20042172276698966,-0.4073934318827216,-0.187244289759415,-0.010557613223198196,-1.990552450125547,-1.023003783472718,-0.2317393627136863,0.14617984175028423,0.48001639281379055,0.5483568277108952,-0.208715426874523,-0.27160843627748227,-0.513972243009004,-0.030262295837204568,-0.21444586413531078,walking,2026-03-04_14-01-30,0,0.072842041015625,1.05779736328125
-0.34736920707751195,0.07573846941658839,-0.2101257654812984,0.04283030437193499,-0.11016850090125839,-0.09574795305216417,-0.014677650556154045,-0.5738004597222609,-0.21012576548129844,-1.1426730950567787,0.29636793359761104,-0.11852431398882719,0.3258887087648925,-0.18665701869500012,-0.1459684183201251,0.005217657091366269,-0.7590955514819305,-0.118524313988827,-0.05889848550353409,-0.2914117497817765,-0.3997288356257887,-0.2938276044425878,0.033977653035364166,-0.35621366285054945,-0.2613030506944016,-0.34765123433923617,-0.39972883562578865,0.2630913614011025,-0.07168703849414787,-0.32733795432814844,-0.07862004076053036,0.2376842586238055,-0.12058806097199365,-0.18461617585715887,-0.7678273325267634,-0.32733795432814844,-0.37034779554386643,-0.048002099381529176,-0.3032883742410549,-0.05186411847175714,0.10063548903269547,-0.056814144432197324,-0.08075353492061185,-0.9027810088381681,-0.30328837424105504,0.5398959472418848,0.4182257880563651,-0.04048273066871451,0.37358986488442775,-0.09935575321079737,0.2886932436645872,0.2015935142213148,-0.4260002868787969,-0.04048273066871443,-0.11707839343748541,0.10236518328876264,-1.704986536963042,-0.6672560510644778,0.524690266350257,-0.3020569376186645,-1.9078977168540563,0.8105033844118665,-0.16146940686283942,-0.2858690516164828,-0.513972243009004,0.10964762459353744,-0.23434230258432187,walking,2026-03-04_14-01-30,1,0.570294189453125,1.555249267578125
-0.6876297600752018,-0.07692176661307246,-0.2588594511705221,-0.053187094046321604,-0.06872186778621456,-0.2562704718670579,-0.13351507155774522,-0.5738004597222609,-0.25885945117052206,0.24861172281829247,0.28111306984766493,-0.12932994569800021,0.23375982732234638,-0.13162914908679513,-0.04179862291074704,0.038466631333629306,-0.7590955514819305,-0.12932994569800024,0.7513355638231332,-0.15687273124980472,-0.36992545468710963,-0.1548581529461091,0.03961215856235992,-0.21247020576235362,-0.16173822142590655,-0.7783189116451151,-0.3699254546871096,-1.2971274469765803,-0.018155420182870117,-0.3043361315017368,0.0072244343321887835,0.05562271584174918,-0.012458758720097891,-0.035205897148150374,-0.7678273325267634,-0.3043361315017368,0.28139664372959117,0.23847821113126422,-0.1817495115179926,0.22177139688914163,0.036496743778632816,0.35193634343288066,0.16620864171908972,-0.3285410373535707,-0.18174951151799262,1.4891346801641492,0.23755501587020306,-0.16236589890649245,0.31926625432453326,-0.009702501039379419,0.2886932436645872,0.15394183156869176,-0.4260002868787969,-0.16236589890649253,-0.056578757401920254,0.18726809854455048,0.5458503199365284,2.099827348704663,0.6111842306412567,1.7261598683204025,0.16559823054110998,0.687419777472043,-0.10124476161555027,-0.16693325114678753,-0.513972243009004,0.20014641189445376,0.023003355000285785,walking,2026-03-04_14-01-30,2,1.06774609375,2.0527001953125
0.013245063622208501,0.40049137191090683,-0.06991535054052542,0.33758962226772593,-0.6929778001802582,0.19068874802989666,0.40940429809803464,-0.5738004597222609,-0.06991535054052547,0.6225198829049078,0.7143855246850969,0.2324873823013691,0.6632041198397991,-0.13162914908679513,0.5066550257424001,0.35053762292136265,-0.7590955514819305,0.23248738230136934,-0.6849050444876127,-0.1100907479001215,-0.3568433592987793,-0.10993931049641775,0.03961215856235992,-0.21247020576235362,-0.16173822142590655,-0.1323173956862967,-0.35684335929877925,1.765626290311872,0.20269095525035893,-0.19149609177640312,0.24439049428438034,0.05562271584174918,0.2535631900590103,0.09978439439171949,-0.7678273325267634,-0.19149609177640314,0.2696519784809314,0.2746322060227389,-0.16307284765522384,0.25700005566623146,0.036496743778632816,0.35193634343288066,0.16620864171908972,-0.5199543611817699,-0.16307284765522392,-0.36833868651692675,0.04378679082211487,-0.2717924468433678,0.0032040261242105694,-0.09529261810296433,0.03089728143167633,0.0665727071870882,-0.4260002868787969,-0.27179244684336773,0.12944627045618856,0.20352834001743567,-1.666757305371451,-0.40053112189067935,0.5526594691893649,1.5141151781886735,1.3596355829898725,1.1075387288087692,0.06337001238153608,-0.1662033233149903,-0.513972243009004,0.20560495398225812,0.13019435572119703,walking,2026-03-04_14-01-30,3,1.5651982421875,2.55015234375
-0.15058217569311172,0.3827848087780383,-0.07884138143232888,0.32237041878430805,-0.6929778001802582,0.19068874802989666,0.40940429809803464,-0.5738004597222609,-0.07884138143232888,-0.5266323432276012,0.5584010294762739,0.08911386913190135,0.5025500094010239,-0.17745348917272719,0.5066550257424001,0.3722088895200445,-0.7590955514819305,0.08911386913190165,-0.5496121588843008,-0.19940429137054635,-0.38060141381127294,-0.19975172246316455,0.12286835661496251,-0.27561978921119884,-0.2315333782077139,-0.34765123433923617,-0.3806014138112729,-0.03618829639569439,0.23562855511343295,-0.1721913118339365,0.22392761964308167,-0.010045899428712975,0.2535631900590103,0.1338848583454916,-0.7678273325267634,-0.17219131183393643,-0.01563384619968069,-0.1575756989341553,-0.337354589153424,-0.16775948967566812,0.27649906648595196,-0.2474786772980342,-0.2698255241091705,-0.9027810088381681,-0.3373545891534241,-0.2069943794489663,0.5476270038353523,0.05858823963288516,0.4848850851368644,-0.2118872227482485,0.8778604571817221,0.5650463859109855,-0.31321100482289327,0.05858823963288522,-0.0036717322454272654,0.18067843707290399,-2.249272331417669,-2.1883837426258603,0.8005450482509069,1.0945312007330854,0.42359439316392733,0.7756815852060049,-0.05974896090675877,-0.1316900772806285,-0.513972243009004,0.17875136866128186,0.05692795806944554,walking,2026-03-04_14-01-30,4,2.0626494140625,3.047603515625
-0.7261964964280226,-0.07372944708718385,-0.2579528208946035,-0.04372283122472061,-0.529458873098,-0.43777876664118354,-0.056381114839491056,-0.2652516819367402,-0.2579528208946035,0.584231631749425,0.44729031747099907,-0.0040158810182150005,0.411706726923017,-0.2608363062441523,0.13586857219510248,0.20066424998975346,-0.7590955514819305,-0.004015881018215149,0.7987150516698163,-0.0729599254514748,-0.34546144342714113,-0.07136942288259848,-0.0732900728281272,-0.16594465692132607,-0.09464628554335501,-0.7783189116451151,-0.3454614434271411,-1.3437522185350876,0.43955929357583307,-0.038361754464564184,0.44953988509106113,-0.11564690591035921,0.5406933302192227,0.33442289539439035,-0.7678273325267634,-0.03836175446456421,-0.0003326157901529175,0.10253386818343965,-0.24528064474471936,0.08706044182397045,0.12395502276096215,0.17311971048961144,0.028102965841305137,-0.3285410373535707,-0.2452806447447194,0.7673927335681502,0.5647678689647802,0.07244862015364789,0.5292800796620009,-0.2118872227482485,0.8778604571817221,0.5650463859109855,-0.4260002868787969,0.07244862015364771,0.01896521464171867,0.3688663464070061,-0.5368336648415296,-0.03840928933379064,0.6587789052696819,2.0439398547349517,1.549337211327452,1.2205536537600028,-0.004256532070297356,-0.1068447761911026,-0.513972243009004,0.3373119232510304,0.2852289540841345,walking,2026-03-04_14-01-30,5,2.5601015625,3.5450556640625
-0.013572086449023116,0.26018250348629196,-0.1365921020557884,0.20475919195206368,-0.43315184337089474,0.2030546370514257,0.3089643760625003,-0.5738004597222609,-0.13659210205578842,0.9655582257148418,0.7420616526354956,0.25946709786733185,0.7204427652681863,-0.2608363062441523,0.32324700955467767,0.30728287654563885,-0.7590955514819305,0.25946709786733174,-0.5944320929980745,-0.05394740877793598,-0.33929129807794217,-0.054842669194873225,-0.0732900728281272,-0.16594465692132607,-0.09464628554335501,-0.1323173956862967,-0.3392912980779421,2.347046337826975,0.44174565297285306,-0.036793497375041756,0.5027092690141146,-0.11564690591035921,0.5406933302192227,0.33442289539439035,-0.7678273325267634,-0.03679349737504175,-0.42883696891541284,0.18354863427509366,-0.20869347684758024,0.17455568718740963,0.1018699209797759,0.17311971048961144,0.03928200273204311,-0.5199543611817699,-0.20869347684758036,-0.58102126866641,0.5060930242736499,0.025718372947833825,0.4597059587031386,-0.4142951112410581,0.3428756481130983,0.39691139774918693,-0.4260002868787969,0.02571837294783378,0.14511819389209032,0.4292352645886365,-1.3822329733482857,-0.4813059898975335,0.349499130317371,2.056869864703748,1.1003274387831135,1.7135850547577327,0.11157588586692341,-0.17775032432500137,-0.513972243009004,0.4008003655589246,0.2053384299736615,walking,2026-03-04_14-01-30,6,3.057552490234375,4.042506591796875
-0.07098485700441046,0.2365657836179829,-0.14690270468673688,0.1827546631206486,-0.43315184337089474,0.2030546370514257,0.3089643760625003,-0.5738004597222609,-0.14690270468673694,-0.27428743129081745,0.4757090488161945,0.019091363223679207,0.41381229411377324,-0.06016449512600996,0.32324700955467767,0.21238107742695025,-0.7590955514819305,0.019091363223679454,-0.5443758944297663,-0.19552353183846183,-0.37967537066700724,-0.19594372789627923,-0.01177342689629934,-0.2714890372821746,-0.18770475668202505,-0.34765123433923617,-0.3796753706670072,-0.16004535463189734,0.24963920428495034,-0.16378484805201254,0.2381025680180349,-0.16219144455484882,0.22867047050801198,0.2002595763166716,-0.7678273325267634,-0.16378484805201252,-0.16872065055273433,-0.08645225652829856,-0.3160251246667094,-0.09568850923066816,0.1018699209797759,-0.17651128991801926,-0.1441908061297902,-0.9027810088381681,-0.3160251246667095,-0.5408488498290736,0.6708405096814791,0.16205616948276344,0.6160260890422099,-0.4142951112410581,0.6048932958783877,0.5319483489316582,-0.31321100482289327,0.16205616948276344,-0.04853439339095292,0.2855717772498221,-1.7615983422224875,-1.7237519917954227,0.4942523849234385,0.0210544127778404,-0.26137036990051127,0.9608588812866411,-0.08682188844234426,-0.15063546075758763,-0.513972243009004,0.28058804357469214,-0.039696969132070534,walking,2026-03-04_14-01-30,7,3.555004638671875,4.53995751953125
-0.6917659077092995,-0.16296673124423658,-0.2814869069040644,-0.12481997138740404,-0.39471440692010906,-0.32009306565344514,-0.038063092904620885,0.043297095848780554,-0.28148690690406436,0.5187353771130809,0.19820750805225312,-0.18558787586659112,0.17529487383938483,-0.19882613920581915,-0.038782890217241725,0.0719614174289086,-0.7590955514819305,-0.185587875866591,0.4913796480433773,-0.2375608247106113,-0.3891923694513521,-0.23747415952728534,0.20883298463692151,-0.2714890372821746,-0.25474800180386686,-0.7783189116451151,-0.38919236945135205,-1.7029986954835288,0.032533109619756806,-0.2809914571201178,0.07871678186985734,-0.16219144455484882,-0.23206296282197744,-0.033535194275824916,-0.7678273325267634,-0.2809914571201177,0.2938622076999268,-0.1437290944658205,-0.3334290633564802,-0.15144627156348717,0.1734213893821017,-0.17651128991801926,-0.18040872863614996,0.43711225795922587,-0.3334290633564803,0.9251444566316868,0.4111272223082569,-0.045633113222534084,0.39815665043002524,-0.31295324458447615,0.6048932958783877,0.478084040026159,-0.4260002868787969,-0.045633113222534084,-0.1402773590285682,0.13228476634772993,-0.12583744931807597,-0.2750422925303037,0.8351204733604559,0.23715476817215705,1.5685749402111533,0.16607203727487513,-0.17275103518802074,-0.25068239875833126,-0.29825047703436314,0.11110834500969688,-0.06101896658182937,walking,2026-03-04_14-01-30,8,4.05245556640625,5.0374091796875
0.18417334472030736,0.02793353163338736,-0.2265678764249662,-0.010596470885613645,0.009896001421945539,0.06751132769719427,0.038592995859020915,-0.7280748486150214,-0.2265678764249662,0.5541632364858237,0.3741045934659771,-0.06126857894837055,0.3412556363554099,-0.19882613920581915,0.1672207787079861,0.18917783013776793,-0.7590955514819305,-0.061268578948370504,-0.6789501973076318,-0.2800697867902134,-0.39766420333622926,-0.27810103970654865,0.22423013786440085,-0.34148825653183357,-0.30874654145484826,-0.7783189116451151,-0.3976642033362292,1.201236913801699,-0.028592043603943705,-0.30895380753518503,-0.005045876760306228,0.2186642700674198,0.25952031337175985,0.01814289890207249,-0.7678273325267634,-0.3089538075351851,-0.4036306178562653,-0.13327136663952985,-0.33039154451445013,-0.13240287252279273,0.1734213893821017,-0.21147594599787548,-0.19875682607138864,-0.5199543611817699,-0.3303915445144503,-0.6290492269786739,0.1678658203982491,-0.2042590172163199,0.14041143071132922,-0.04668394411578894,0.2975032761784851,0.1781383297044419,-0.4260002868787969,-0.20425901721631978,-0.11464396327656955,0.019171818593318738,-1.1077709164048106,-0.08395873064283743,0.4698572186185024,-0.18381121319659538,1.2088631052838548,0.5063429959950945,-0.14550272232016415,-0.31145479013850624,-0.513972243009004,0.02104105853313945,-0.22039741084834524,walking,2026-03-04_14-01-30,9,4.549906494140625,5.539213134765625
0.17898744480544104,0.01751954068976776,-0.23000679323681064,-0.020624359809503123,-0.08837681013807434,0.06751132769719427,0.0795412785509261,-0.7280748486150214,-0.23000679323681067,0.0193027831907656,0.26247627260198836,-0.14233962969290065,0.20920130510812712,-0.07157509874550626,0.1672207787079861,0.1289982134187113,-0.7590955514819305,-0.1423396296929006,0.0028683224718839386,-0.3253326741518998,-0.4054115087458612,-0.32768553514115284,0.27992269253301305,-0.343201825629459,-0.32687907794792503,-0.7783189116451151,-0.40541150874586107,-0.6898551890952535,0.019346015267961692,-0.28721124845767915,0.01881107977074188,0.19044627522381474,0.25952031337175985,0.03279596737395945,-0.7678273325267634,-0.2872112484576792,-0.13320177047835707,-0.24090627325829495,-0.35866129034472305,-0.2471571304463569,0.2800262286732708,-0.21147594599787548,-0.2527180639671715,-1.0941943326663672,-0.3586612903447232,-0.499739377566077,0.25264171204952446,-0.15292130724094644,0.21159017096158406,-0.04668394411578894,0.21454558265674206,0.1353841331613873,-0.4260002868787969,-0.15292130724094657,-0.1975569756695224,0.01220467043880262,-1.739206956000123,-1.9757864291849039,0.47236611144980684,-1.5381153902456097,-1.4571682432131903,0.0606586763049597,-0.22078869183773106,-0.2874929261261241,-0.513972243009004,0.030005126354799367,-0.2920776891099186,walking,2026-03-04_14-01-30,10,5.047358154296875,6.03728662109375
-0.4739510582997914,-0.15404361228663427,-0.27930255746448945,-0.15375921725045402,-0.08837681013807434,-0.2680551879142687,-0.13278180285805682,-0.41952607082950055,-0.27930255746448945,1.0200227643506028,0.14423263300340636,-0.2199740381213103,0.19366016123930158,0.09525660604031151,0.003057737883428627,-0.043308937367936604,-0.7590955514819305,-0.2199740381213103,0.16085781128660973,-0.23328768097870228,-0.3882766777274291,-0.23543931303342525,0.24295580017548343,-0.28072550394940077,-0.2716258012528111,-0.7783189116451151,-0.3882766777274289,-0.9548849049819047,-0.035545226666012925,-0.31199442927479115,-0.02557406616040069,0.13769107170014044,-0.09105005722067619,-0.11770283687754575,-0.7678273325267634,-0.31199442927479115,0.7169520839684049,-0.14112798377442362,-0.3326794016584478,-0.1281969604613433,0.27444371156380487,-0.1596117900501576,-0.22267600493938905,-0.3285410373535707,-0.33267940165844795,2.0002655588805798,0.30209816101917886,-0.1210237513243085,0.4705717849404708,-0.04068226997672985,0.5609285238126034,0.31071076520194013,-0.4260002868787969,-0.12102375132430827,-0.13484676049559524,0.13434878850301812,0.050666552975001874,0.02364883304766254,0.5295919573784584,0.8779642134755716,0.6662102167753972,0.18252022886005928,-0.16121518770202986,-0.27901245753932247,-0.513972243009004,0.1272547069982854,-0.17215603934497953,walking,2026-03-04_14-01-30,11,5.549162109375,6.534738525390625
0.3869826558226281,0.05793127738094768,-0.21637629393607302,0.031080392885616148,0.17307422790908036,0.08369880781544542,-0.019157745552963207,-0.5738004597222609,-0.21637629393607305,-0.037036711513422915,0.24661037427165994,-0.1532490747611383,0.19368438076875086,0.08741964690367396,0.003057737883428627,-0.039602679286433226,-0.7590955514819305,-0.15324907476113844,-0.7073699653471105,-0.25101983104573666,-0.3920000042536884,-0.24913088395522404,0.24295580017548343,-0.28072550394940077,-0.2716258012528111,-0.7783189116451151,-0.39200000425368836,1.395039251035457,-0.05196336930004983,-0.31906043408209844,-0.01598516150973961,0.13769107170014044,-0.09105005722067619,-0.11770283687754575,-0.7678273325267634,-0.3190604340820984,-0.19830963285927408,-0.06154855951269125,-0.30787223852072154,-0.07068334062858737,0.2633562695844583,-0.1596117900501576,-0.2170637635225703,-0.3285410373535707,-0.30787223852072165,0.5025569861252274,0.49878194397059544,0.020037206191483956,0.44889711924498943,-0.18540046457173684,0.5609285238126034,0.3876300661294343,-0.4260002868787969,0.020037206191484018,-0.1125690378411739,0.1413398145953089,-0.931657374719167,0.4128883710356285,0.6414314382697949,0.20734480201542893,-0.24893329116161206,1.5230419242885571,-0.14493634386051787,-0.30578257795136554,-0.29825047703436314,0.14204778334648277,-0.16390658926332194,walking,2026-03-04_14-01-30,12,6.047235595703125,7.032190673828125
0.3085889706665302,0.05478015291537546,-0.21746681010407465,0.02187547939897131,0.20698410575788756,0.08369880781544542,-0.033287302265125454,-0.7280748486150214,-0.2174668101040747,0.46439390180512335,0.393317885125137,-0.046552558776572626,0.352029047215118,0.08741964690367396,0.2008269206552086,0.07292829780643091,-0.7590955514819305,-0.04655255877657242,0.10264816655407262,-0.304020438829539,-0.4019272628752052,-0.30620020595851966,0.1986705203914957,-0.3133619559862937,-0.28116194417699664,-0.34765123433923617,-0.40192726287520514,0.02208330717018416,0.11390412896234775,-0.24033354883211483,0.10335276598780203,-0.024995496632303753,-0.11335697539255075,-0.04454222571681253,-0.7678273325267634,-0.24033354883211486,-0.2815884362316845,-0.1916027880613197,-0.34653508173375847,-0.19415697649345795,0.2633562695844583,-0.19516464298899616,-0.23572052389031606,-1.0941943326663672,-0.3465350817337586,-0.4343784543753467,0.20879354585642226,-0.18000108593448266,0.16556269567328538,-0.18540046457173684,-0.07900567060614766,0.05782494304426042,-0.4260002868787969,-0.1800010859344827,-0.15188438943559382,0.05790394111493149,-1.7129009528251202,-1.3422033196172527,0.8513684841718232,-1.159001594812881,-1.5739226926965595,0.3493737249823522,-0.18130871610451552,-0.24694726679886372,-0.513972243009004,0.07720544611750038,-0.3306870482658566,walking,2026-03-04_14-01-30,13,6.544687744140625,7.5296416015625
