acc_x_mean,acc_x_std,acc_x_var,acc_x_rms,acc_x_min,acc_x_max,acc_x_range,acc_x_dom_freq,acc_x_spec_eng,acc_y_mean,acc_y_std,acc_y_var,acc_y_rms,acc_y_min,acc_y_max,acc_y_range,acc_y_dom_freq,acc_y_spec_eng,acc_z_mean,acc_z_std,acc_z_var,acc_z_rms,acc_z_min,acc_z_max,acc_z_range,acc_z_dom_freq,acc_z_spec_eng,gyr_x_mean,gyr_x_std,gyr_x_var,gyr_x_rms,gyr_x_min,gyr_x_max,gyr_x_range,gyr_x_dom_freq,gyr_x_spec_eng,gyr_y_mean,gyr_y_std,gyr_y_var,gyr_y_rms,gyr_y_min,gyr_y_max,gyr_y_range,gyr_y_dom_freq,gyr_y_spec_eng,gyr_z_mean,gyr_z_std,gyr_z_var,gyr_z_rms,gyr_z_min,gyr_z_max,gyr_z_range,gyr_z_dom_freq,gyr_z_spec_eng,acc_sma,gyr_sma,corr_acc_xy,corr_acc_xz,corr_acc_yz,corr_gyr_xy,corr_gyr_xz,corr_gyr_yz,acc_mag_mean,acc_mag_std,acc_mag_dom_freq,gyr_mag_mean,gyr_mag_std,activity,session,window_id,time_start,time_end
-0.027802474935737585,-0.6632071186641977,-0.34391621490054886,-0.6673423954670896,0.7261686117099155,-0.5514905565142245,-0.6515244487771705,2.0488641514546653,-0.3439162149005489,-0.04889079675190771,-0.8693255816495593,-0.5376312226740686,-0.8629899221282028,0.7316880680826825,-0.7379509195304087,-0.7659254732354597,2.356545536547307,-0.5376312226740686,-0.15244477576524257,-0.5680556995789461,-0.4245518121887041,-0.562365305354395,0.6527167734657359,-0.5170201918215621,-0.5626398435118513,-0.7783189116451151,-0.42455181218870397,-0.023635142999482998,-0.7677629573867172,-0.47190647470946134,-0.7703018130934634,0.6764473725696498,-0.7583463413490178,-0.7360818574837626,0.6150789450628226,-0.47190647470946134,0.05789636671903646,-0.6437481039602784,-0.40561106716036444,-0.6446523893687968,0.5883001098656347,-0.6051736066243253,-0.615357423718171,-0.711367685009969,-0.40561106716036455,-0.006471802395248417,-0.8185631826871479,-0.4915128856589565,-0.8462642843266927,0.7520092130771149,-0.7554428687357353,-0.7890363420176432,0.13794612340072113,-0.4915128856589565,-0.6546066026742613,-0.7711661122460228,-1.0959155616543739,0.05822559368172348,0.4080771766392904,-0.3608834849085751,-1.2803504594182433,-0.3382519748920522,-0.6312197013234078,-0.5586851884270129,-0.513972243009004,-0.7740229733269447,-0.6887769341969506,still,Still_1-2026-03-04_16-41-47,0,0.25332275390625,2.164378173828125
-0.02739641003183992,-0.6727270453717126,-0.34396057727681656,-0.6743667488931654,0.7544124632146788,-0.5666718519511665,-0.6728987521824743,0.9689434292053428,-0.34396057727681656,-0.04982935770329877,-0.8732915468253539,-0.5376506600669652,-0.8662563155064777,0.7379899161119746,-0.7477639732374614,-0.7744893889577267,2.0103631934329473,-0.5376506600669652,-0.130543314264952,-0.5682477758466271,-0.42455200366877677,-0.5640966188471012,0.6542000284068732,-0.5167622548457362,-0.5629088767304299,-0.7783189116451151,-0.42455200366877666,-0.025704682511792382,-0.7677468128856405,-0.47190644963787676,-0.7703064715200084,0.6764473725696498,-0.7573807346336344,-0.7355918695988507,3.3808915002419946,-0.47190644963787676,0.05814278042723834,-0.6438726901722387,-0.4056112188461233,-0.6447863594688759,0.5890481717865562,-0.6051736066243253,-0.6157360777037126,-0.5199543611817699,-0.40561121884612344,-0.006629402128043861,-0.8183490594261872,-0.49151250371247013,-0.8460512970953864,0.7520092130771149,-0.7554428687357353,-0.7890363420176432,3.747203149189636,-0.4915125037124702,-0.6573871207678486,-0.7711661122489104,-0.7026860944966644,0.13896110559942013,0.11052174564446693,-0.3102298439559075,-0.9623967677893672,-0.5528484591984221,-0.6338405850371425,-0.560127515561377,-0.513972243009004,-0.7740334536704806,-0.6887492516224929,still,Still_1-2026-03-04_16-41-47,1,1.2185029296875,3.129556396484375
-0.023307022492700728,-0.672781263879105,-0.3439607075934761,-0.675694806567019,0.7542905527266762,-0.5666718519511665,-0.6728479545605625,2.0488641514546653,-0.3439607075934761,-0.05078701119949575,-0.8741306067174324,-0.5376535499542496,-0.867104649705934,0.7399217277063512,-0.7480509132088976,-0.7755662514233695,2.0103631934329473,-0.5376535499542496,-0.1229674684693044,-0.5686462313721997,-0.4245523254684484,-0.5647530170433688,0.6550665453267476,-0.5167622548457362,-0.5631722149800192,-0.7783189116451151,-0.4245523254684483,-0.027774221954499346,-0.7677100792713926,-0.4719063920172101,-0.7702374468662323,0.6764473725696498,-0.7573807346336344,-0.7355918695988507,3.3808915002419946,-0.47190639201721,0.06103814133228914,-0.6437721765140307,-0.4056110971615888,-0.6447802381452402,0.5890481717865562,-0.6042716391688248,-0.6152627601135399,-1.0941943326663672,-0.4056110971615889,-0.00700370139957251,-0.8184731009904966,-0.49151272825316644,-0.8461532232106939,0.7520092130771149,-0.7554428687357353,-0.7890363420176432,3.4088353030219256,-0.49151272825316644,-0.6584309622864898,-0.7711863148065151,-0.6583214494861107,0.13920722996409396,-0.05971656700603362,0.2504550255077876,-1.3898613751436195,-0.5274075345290339,-0.6346646846499137,-0.5606991987852145,3.3690195445345315,-0.7740670807779065,-0.6885928586942982,still,Still_1-2026-03-04_16-41-47,2,2.183681884765625,4.094734375
-0.021408115113040204,-0.673036207636728,-0.34396130178663986,-0.6764179051024947,0.7542905527266762,-0.5668483170862926,-0.6729596093875733,2.0488641514546653,-0.34396130178663975,-0.04924363705917392,-0.8733596378413243,-0.5376509105022863,-0.8661384460151578,0.740289865262917,-0.74706003820545,-0.7751765417541229,2.0103631934329473,-0.5376509105022864,-0.13304369861364032,-0.5685672726657199,-0.4245522697858417,-0.5639563349618602,0.654513378763061,-0.5168898420765394,-0.5630939992666865,-0.7783189116451151,-0.42455226978584165,-0.026191632927957287,-0.7676938838788253,-0.47190636635911526,-0.7702511085761519,0.6773909616640706,-0.7583463413490178,-0.7365718453686747,1.6906727165213895,-0.47190636635911526,0.062147002983976955,-0.6438679682782845,-0.40561121325912514,-0.6448491494580082,0.5892351873380693,-0.6042716391688248,-0.6153574236460072,1.3941788771002217,-0.40561121325912525,-0.005171604757371004,-0.8186539338793357,-0.49151303941856384,-0.8463559543500029,0.7533116526062635,-0.7537638412986786,-0.7888632766112514,4.987885251804576,-0.4915130394185639,-0.6577627551249292,-0.7712039920406893,-0.9633820821801606,-0.2378396970342507,0.39882404161700785,-0.1936131396291466,-1.724545027241826,-1.1305463053411602,-0.6337637224293694,-0.560650320146792,-0.513972243009004,-0.7741044026925045,-0.6888557886830978,still,Still_1-2026-03-04_16-41-47,3,3.14885986328125,5.059911865234375
-0.01839940735350856,-0.6730730804984438,-0.34396138518969466,-0.6772544890654763,0.7548606553747683,-0.5666123646326122,-0.6730478653185936,2.0488641514546653,-0.34396138518969466,-0.04836500599433953,-0.8736802142813179,-0.5376520517890464,-0.8660921180090034,0.740289865262917,-0.74706003820545,-0.7751765417541229,1.8372720218757674,-0.5376520517890464,-0.1394635485414265,-0.5686131002280642,-0.42455230259063165,-0.5634618902454238,0.6544061612301337,-0.517060913327464,-0.5631819468890514,6.5430316025548265,-0.4245523025906316,-0.025704682523392714,-0.7678232208408798,-0.4719065669318718,-0.7703821720826007,0.6773909616640706,-0.7583463413490178,-0.7365718453686747,1.6906727165213895,-0.4719065669318717,0.060689055341549676,-0.6440055982463533,-0.4056113708692499,-0.6450099309296241,0.5899832492589907,-0.6049932131057216,-0.6161147316892541,1.3941788771002217,-0.4056113708692501,-0.004698805634072915,-0.8187135423736844,-0.49151313778287975,-0.8463942537217165,0.7533116526062635,-0.7537638412986786,-0.7888632766112514,-0.08763244071108607,-0.4915131377828797,-0.657403336549984,-0.7713075301097911,-0.7743240856587043,-0.020426612183970367,0.3856329682273041,-0.8528869480393568,-0.7639099009869701,-1.2167496364383128,-0.6332401172246698,-0.5607626515581916,-0.513972243009004,-0.7742470221298993,-0.6888846499763293,still,Still_1-2026-03-04_16-41-47,4,4.1140380859375,6.025088134765625
-0.018216370216879947,-0.6724807399755238,-0.3439599678255938,-0.6768468442516675,0.7550345319168303,-0.565068801665059,-0.6721436571743769,1.1232178180981032,-0.34395996782559374,-0.05003840844505672,-0.8752883910653503,-0.5376568366332648,-0.8675969771457454,0.7413640165612111,-0.7497161406720699,-0.7771958563425974,1.8372720218757674,-0.5376568366332648,-0.1390053060923878,-0.5686237409894618,-0.4245523100150277,-0.5634990770319244,0.6544061612301337,-0.517060913327464,-0.5631819468890514,-0.7783189116451151,-0.4245523100150277,-0.028748122960835107,-0.7679397844792083,-0.47190673920749965,-0.770425766048385,0.6755037834752289,-0.7583463413490178,-0.7355918695988508,-0.6141710794612538,-0.4719067392074996,0.06068905534154958,-0.6440887363102655,-0.4056114608237406,-0.6450914373195624,0.5899832492589907,-0.6049932131057216,-0.6161147316892541,2.5426588200694167,-0.4056114608237407,-0.007614400142644163,-0.8184562518927362,-0.49151269828287114,-0.8460944363283355,0.7523348230835115,-0.7551070631971258,-0.7890363420176432,-0.4260002868787969,-0.49151269828287114,-0.6575156477804964,-0.7713378339457169,-0.6154893538386502,0.2226150078842705,-0.11733140039208143,-1.1160674857222461,-0.8462295256647926,-1.3419122549182674,-0.6333525447755938,-0.5607380792119248,-0.513972243009004,-0.774273653609868,-0.6886275264465588,still,Still_1-2026-03-04_16-41-47,5,5.07921533203125,6.990263671875
-0.01901656711877836,-0.6716158427959233,-0.34395760124477914,-0.6759888090393473,0.7550345319168303,-0.564909680244062,-0.672042976239741,2.203138540347426,-0.34395760124477914,-0.054382015215197504,-0.8720654618285955,-0.5376456694896643,-0.8663521121689252,0.7370046334123305,-0.7458219699104042,-0.7729184256824194,2.356545536547307,-0.5376456694896643,-0.14428394478007694,-0.568636840232623,-0.42455231905510965,-0.5630882979265558,0.6540605507312953,-0.5170787161968784,-0.5630894577091382,4.3896932160254325,-0.4245523190551096,-0.028200303748449704,-0.7678246511237397,-0.4719065690945311,-0.7703357774110121,0.6755037834752289,-0.7583463413490178,-0.7355918695988508,1.229703957324861,-0.4719065690945311,0.06134615850080609,-0.6442264794524857,-0.405611601152746,-0.6452210819765494,0.5899832492589907,-0.6049932131057216,-0.6161147316892541,3.88255208686681,-0.4056116011527462,-0.007988699429190659,-0.8183876620425381,-0.4915125745590356,-0.8459961042001158,0.7523348230835115,-0.7551070631971258,-0.7890363420176432,1.1530496619038535,-0.4915125745590356,-0.6568426824398905,-0.7713656124505118,0.509470929822587,-0.259056999057731,0.3510330520010964,-0.6931422071010046,-1.8044520546327836,-1.3807098530349409,-0.6327669184873168,-0.5607133093752169,-0.513972243009004,-0.7742633346105765,-0.6885870596933373,still,Still_1-2026-03-04_16-41-47,6,6.0443916015625,7.95543798828125
-0.020291301457282654,-0.6723852444813598,-0.3439597238416039,-0.6762729599660695,0.75379724441666,-0.5649488406882723,-0.6715522016896606,-0.7280748486150214,-0.3439597238416039,-0.07059391883020816,-0.8687410713182045,-0.5376275515253293,-0.8634879434360103,0.730426175028613,-0.7466362749158494,-0.7702706791507515,2.356545536547307,-0.5376275515253293,-0.13620303179649837,-0.5681670385857575,-0.42455192606335984,-0.5636435546427789,0.6537310703037822,-0.5164411893042283,-0.5625401455104326,-0.7783189116451151,-0.42455192606335984,-0.024882953791817385,-0.7675913800477124,-0.4719062003606885,-0.7701508418747829,0.6764473725696498,-0.756656529873135,-0.7352243788252395,2.4589539818489374,-0.4719062003606884,0.05919003856382267,-0.6419981245560188,-0.4056079976671822,-0.6430237726380559,0.5843727851372114,-0.6001225897536347,-0.6107189124313689,1.5855922009284207,-0.4056079976671823,-0.007299200737124032,-0.818749506576988,-0.49151319612132427,-0.8463981132289222,0.7523348230835115,-0.7551070631971258,-0.7890363420176432,2.957678174798311,-0.49151319612132427,-0.6570600121578039,-0.7707216561933681,-0.6845391577850807,-1.7105200652681467,-0.08989838456542165,0.3299208112381727,-1.4092744870521012,-0.7238329311403582,-0.6332616386965284,-0.5601021087988427,-0.513972243009004,-0.7735201693892045,-0.6869765564230854,still,Still_10-2026-03-04_16-49-45,0,0.233476318359375,2.144476318359375
-0.027385017076436032,-0.6727382394459956,-0.34396060429579184,-0.6743764493329623,0.75379724441666,-0.5668853634528014,-0.6727774982000535,0.043297095848780554,-0.34396060429579184,-0.06822411540777347,-0.8682786622870272,-0.5376245004837387,-0.8633157810512376,0.7324124986100784,-0.7442948460821845,-0.7698777754508652,2.1834543649901272,-0.5376245004837387,-0.1146457078235686,-0.5682787506941467,-0.4245520323330007,-0.565328421214818,0.6551061588842672,-0.5160738772283796,-0.5626992442010551,-0.7783189116451151,-0.42455203233300065,-0.026252501956185493,-0.7678232935768282,-0.4719065670418814,-0.7703785731348145,0.6764473725696498,-0.7585877431198762,-0.7362043545016816,2.4589539818489374,-0.47190656704188133,0.058553469901773646,-0.6436008776804915,-0.4056108764568237,-0.6445539096784781,0.5883001098656347,-0.6051736066243253,-0.615357423718171,1.0113522294438233,-0.40561087645682387,-0.008087199265942343,-0.8186287890607031,-0.4915129972998576,-0.8462113872304136,0.7523348230835115,-0.7564502848395815,-0.7897286028516235,3.0704674568542147,-0.49151299729985753,-0.658035495901614,-0.7711560109859901,-1.108725043220354,-0.7928539050572532,0.20661135534439518,-1.4872722186981817,-1.5480398173738137,-0.7651962672869165,-0.6348912251152794,-0.560351953562824,-0.513972243009004,-0.7740341646616679,-0.688594325360996,still,Still_10-2026-03-04_16-49-45,1,1.1986279296875,3.109628662109375
-0.02784967025714641,-0.6727699212185139,-0.34396068044548894,-0.6742386720644675,0.7539504665077283,-0.5668853634528014,-0.6728413427303983,2.0488641514546653,-0.34396068044548894,-0.06471220643887188,-0.8698277869233472,-0.5376342114181153,-0.8649886872359084,0.7324124986100784,-0.7442948460821845,-0.7698777754508652,2.1834543649901272,-0.5376342114181153,-0.10622094085343561,-0.5684543483840881,-0.4245521832051594,-0.5660144729011569,0.6563979878318817,-0.5160738772283796,-0.5630918366202349,-0.7783189116451151,-0.4245521832051594,-0.026252501921384338,-0.7676680585010087,-0.47190632512301073,-0.7702249846282802,0.6764473725696498,-0.7585877431198762,-0.7362043545016816,0.6150789450628226,-0.4719063251230106,0.05723926357543371,-0.643841997506445,-0.40561118230208165,-0.6446861874183123,0.5890481717865562,-0.6051736066243253,-0.6157360777037126,3.3083121153822126,-0.4056111823020818,-0.007575000239480613,-0.8185138882038425,-0.4915128001134411,-0.8461523372911922,0.7523348230835115,-0.7551070631971258,-0.7890363420176432,4.311149559469154,-0.4915128001134411,-0.6589523274794663,-0.7711105552479836,-1.0372605606643397,-0.4800301294597516,0.16757388783091912,-0.029883287316865088,-0.8992586801518576,-0.9170293796175897,-0.6357508616383782,-0.5604739561801168,-0.29825047703436314,-0.7740032414050616,-0.6886413386544955,still,Still_10-2026-03-04_16-49-45,2,2.163779296875,4.0747822265625
-0.02489267272938526,-0.6729637960135395,-0.34396113613312296,-0.6753106177967374,0.7539748496527148,-0.5663964528078448,-0.6725421541422842,2.0488641514546653,-0.34396113613312296,-0.06369782020854838,-0.8732138335326491,-0.5376503708059285,-0.8682227519282919,0.7374440820510193,-0.7488555844677276,-0.7748523813918121,2.529636708104487,-0.5376503708059286,-0.12373590456058996,-0.5680074704270519,-0.4245517603944891,-0.5645691380036894,0.6549491278957764,-0.5161863217886463,-0.5627307467510333,-0.7783189116451151,-0.42455176039448905,-0.025187297761319366,-0.7676222108976797,-0.4719062509436998,-0.7701829271836961,0.6764473725696498,-0.7576221362204675,-0.7357143665233876,0.6150789450628226,-0.47190625094369976,0.05836865972432892,-0.6439038761911021,-0.40561125542527887,-0.6448308527296917,0.5890481717865562,-0.6049932131057216,-0.6156414141712453,0.628525581787425,-0.405611255425279,-0.006727901792091874,-0.8185011796325763,-0.4915127778277766,-0.8461942662004556,0.7523348230835115,-0.7551070631971258,-0.7890363420176432,4.198360277413251,-0.4915127778277766,-0.6584072447685931,-0.7711635869485811,-0.7434680640815032,-1.1191839865985262,0.28128655062390623,0.31692907124078007,-0.39024337198154296,-0.5972116312140219,-0.6345918133816557,-0.5599812340729251,-0.513972243009004,-0.7740446104090846,-0.6887295765125176,still,Still_10-2026-03-04_16-49-45,3,3.128931640625,5.039936279296875
-0.019659710907033112,-0.6717822584075088,-0.34395808399528577,-0.6759749976304299,0.7544722480048776,-0.5638444058018558,-0.6711346526131183,2.0488641514546653,-0.3439580839952857,-0.06576558875390835,-0.8720927552486673,-0.5376457905032717,-0.8670604525577366,0.734556958380504,-0.7481146594563443,-0.7730654141245835,1.8372720218757674,-0.5376457905032718,-0.14869438151844278,-0.5684467946570264,-0.4245521771219138,-0.5627188460426252,0.6537268005790196,-0.5172128516095351,-0.5630825372404931,-0.7783189116451151,-0.42455217712191373,-0.0255220762043337,-0.76780234316567,-0.47190653522585246,-0.7703618450191403,0.6764473725696498,-0.7576221362204675,-0.7357143665233876,5.532079043159128,-0.4719065352258524,0.058984693990920344,-0.6436009039749889,-0.40561087649199096,-0.6445745896011309,0.5884871252745821,-0.6049932131057216,-0.6153574236460072,0.628525581787425,-0.40561087649199107,-0.007121901011448095,-0.8182593600230692,-0.49151233571164793,-0.8459410397833317,0.7523348230835115,-0.7547712576585163,-0.7888632767431826,0.8146818157361427,-0.49151233571164793,-0.6566835483215928,-0.7711004539850632,-0.9606461881370988,-0.5623339544355891,0.11667437563821695,-0.1638622449113818,-0.23002358430479133,-0.38344763864949843,-0.6324043940543772,-0.560531011279773,-0.513972243009004,-0.7739656680603628,-0.6885534250765478,still,Still_10-2026-03-04_16-49-45,4,4.09408544921875,6.005090087890625
-0.01510901982600816,-0.6713949496946033,-0.3439569402989601,-0.6765042470437097,0.7544722480048776,-0.5638444058018558,-0.6711346526131183,2.0488641514546653,-0.3439569402989601,-0.06557582672757155,-0.8709840641516363,-0.5376405112772118,-0.8660357005111265,0.734556958380504,-0.7481146594563443,-0.7730654141245835,2.356545536547307,-0.5376405112772119,-0.16225682688963414,-0.5685391931768325,-0.4245522490205023,-0.5616709071908405,0.6527238896736736,-0.5173558884568991,-0.5628785275918924,-0.34765123433923617,-0.42455224902050226,-0.02807856613280805,-0.7681656694138264,-0.471907050146567,-0.770671192431743,0.6764473725696498,-0.7576221362204675,-0.7357143665233876,1.3833602103903704,-0.4719070501465669,0.060524779520427806,-0.6435186711325207,-0.40561076457595313,-0.6445319171943862,0.5884871252745821,-0.6049932131057216,-0.6153574236460072,0.43711225795922587,-0.40561076457595324,-0.006117202906352297,-0.8183720584730714,-0.4915125460274504,-0.8460874929130656,0.7523348230835115,-0.7547712576585163,-0.7888632767431826,4.423938841525058,-0.4915125460274504,-0.6557129592502757,-0.7712267199178743,-1.0028820162847674,0.40226341196879445,-0.12772238701093794,-0.2739923463715299,-0.5380773828763251,-0.2834342395264609,-0.6311718778006336,-0.5606488643532307,-0.513972243009004,-0.7741093678356384,-0.6885904064524444,still,Still_10-2026-03-04_16-49-45,5,5.059239501953125,6.97024267578125
-0.01660038813963648,-0.6726022987103142,-0.3439602721809602,-0.677288661904801,0.7548922131135329,-0.5642169387110239,-0.6715453563724245,2.203138540347426,-0.3439602721809602,-0.06614744949304709,-0.8708845187691898,-0.537640000808084,-0.8659050024419294,0.7320558694804217,-0.7485420151815275,-0.7721257641695686,2.356545536547307,-0.537640000808084,-0.16846560093993945,-0.5686394336014363,-0.4245523208318075,-0.5611955418622624,0.6527238896736736,-0.5176587418676267,-0.5630919087084499,1.1596856362313401,-0.42455232083180744,-0.02844377901453419,-0.7682747718676999,-0.47190718950652066,-0.7707610892429,0.6773909616640706,-0.7585877431198762,-0.7366943423865936,1.229703957324861,-0.4719071895065206,0.061510434290620274,-0.6440972566917356,-0.40561146981918966,-0.6450914373195624,0.5899832492589907,-0.6049932131057216,-0.6161147316892541,1.0113522294438233,-0.40561146981918983,-0.004797305365700829,-0.8185995593823577,-0.49151294787240446,-0.8462892449676525,0.752660433089908,-0.7561144793009721,-0.7897286028516235,4.198360277413251,-0.4915129478724044,-0.655371437973475,-0.7714716758247555,-0.484812561284863,0.07016042454584973,-0.08471195279499769,-0.9129744716589595,-0.9860079702853556,-0.9042630138096482,-0.6306446146570022,-0.5608024012973245,1.4275236507627638,-0.7744025506806279,-0.6889844215149213,still,Still_10-2026-03-04_16-49-45,6,6.02439306640625,7.93539404296875
-0.009313459992490447,-0.6541653700513944,-0.343834527176426,-0.6606042796082454,0.7276128940959825,-0.5463158874841646,-0.6488520823163682,1.4317665958836239,-0.34383452717642593,-0.017927796968574796,-0.8329672138884221,-0.5370085081099244,-0.8263830140307931,0.6503290169951081,-0.6498374947428436,-0.6773124380906468,1.8372720218757674,-0.5370085081099244,-0.08602015711018028,-0.567893151959882,-0.42455163166968124,-0.5673513466049469,0.6563206583722926,-0.5144039885403774,-0.5618917841042439,-0.7783189116451151,-0.42455163166968113,-0.02053083412543188,-0.759587135460698,-0.4718740213267996,-0.7621842949863497,0.664180714342178,-0.7527941030116021,-0.7268945847817359,-0.7678273325267634,-0.4718740213267996,0.06580213919776412,-0.6134530222564469,-0.405310430292423,-0.6150331994454034,0.5512710429266692,-0.5925460649976696,-0.5899876056765921,-1.0941943326663672,-0.4053104302924231,0.01907904967003879,-0.7872200756290999,-0.4911706466538614,-0.8145496692557386,0.7139128569736223,-0.685259537021448,-0.7326170836524575,-0.4260002868787969,-0.49117064665386134,-0.6535775220684049,-0.7513120573331977,-1.535002322544136,0.6106136802293678,-0.3367746873420467,2.7280702917244435,-0.3633343664877977,0.380101456471382,-0.6314073076250362,-0.5474557884818626,-0.513972243009004,-0.7517215796184196,-0.6570850670594126,still,Still_11-2026-03-04_16-53-37,0,0.147459228515625,2.058403076171875
-0.006298106950358893,-0.6689904597203907,-0.343948257940068,-0.6745426189834839,0.7525881054139774,-0.5606916158546169,-0.6683547031652677,1.4317665958836239,-0.343948257940068,-0.026335378523748832,-0.870636964527396,-0.5376387052967072,-0.8569996792703126,0.7419791471103405,-0.7422738434840126,-0.7732520853015898,2.702727879661667,-0.5376387052967072,-0.06745969743801766,-0.5683256224655012,-0.4245520745387654,-0.5688529405597155,0.6579621303365769,-0.5149139282022243,-0.5627499222162374,-0.7783189116451151,-0.4245520745387653,-0.002331060447801619,-0.7649905388631981,-0.47189990624511563,-0.7661280541737198,0.6771550643005508,-0.7527941030116021,-0.7336319181525847,-0.7678273325267634,-0.47189990624511563,0.11426349717727757,-0.633419708681899,-0.4055675933152983,-0.629274729937705,0.5899832492589907,-0.5925460649976696,-0.6095829504025804,-1.0941943326663672,-0.40556759331529835,0.00840166953772138,-0.8136797381650525,-0.49149748296506485,-0.8399053587128712,0.7523348230835115,-0.7403316258980853,-0.7814214732396536,-0.4260002868787969,-0.49149748296506485,-0.6599820137766605,-0.7628527634103961,0.2684072060925801,-0.1136621230001552,0.25837458552946146,2.524903068886296,-0.31872974536571186,0.06532014535041059,-0.6371254190045782,-0.5596712764431446,2.2904107146613275,-0.7650622087087154,-0.6734611204949353,still,Still_11-2026-03-04_16-53-37,1,1.11258154296875,3.023529052734375
-0.003617726546641614,-0.6692339376033718,-0.34394926111631585,-0.6745423926805072,0.7551335256001807,-0.5608181984124591,-0.6694954206204906,2.6659617070257067,-0.3439492611163158,-0.02818567365506634,-0.8705668323378879,-0.5376383315227846,-0.8576265004609744,0.7419918834015943,-0.7422518977170716,-0.7732456213778992,3.0489102227760267,-0.5376383315227846,-0.0634688605873556,-0.5684719168917637,-0.42455219721214615,-0.569198719096697,0.6584837483784066,-0.5149139282022243,-0.5629084442011395,-0.7783189116451151,-0.42455219721214615,-0.0280176974177905,-0.767102197552402,-0.47190532244249617,-0.7696352361859461,0.6752678862915382,-0.7585877431198762,-0.7355918696922326,-0.7678273325267634,-0.4719053224424961,0.07713716894540035,-0.6419890342991024,-0.4056079771462712,-0.6414287779568125,0.5907313111799122,-0.5997618029914629,-0.6137481442435375,-0.9027810088381681,-0.4056079771462714,0.0029447799122489927,-0.818896280362849,-0.4915134263356618,-0.8450428119118416,0.7546140922595218,-0.7537638412986786,-0.7895555375111973,4.536728123580962,-0.49151342633566175,-0.6604288717217199,-0.7693554588134818,0.5403824245158699,-0.052763813108748545,0.23265199671446962,-1.803666813301722,-1.0926769507025402,-1.2598714082917,-0.6374936680190016,-0.5596407656944021,4.231906608433095,-0.7722131898458104,-0.6859106842280609,still,Still_11-2026-03-04_16-53-37,2,2.077705322265625,3.988658203125
-0.003130897453248113,-0.6694728945450279,-0.34395021849631613,-0.6747030950602072,0.7539006475948726,-0.5610950080904952,-0.6691568512736394,2.820236095918467,-0.34395021849631613,-0.03512250767734055,-0.8702868961839219,-0.5376368098734108,-0.8598476636472034,0.7403125117522735,-0.7422518977170716,-0.772451412216077,1.6641808503185875,-0.5376368098734108,-0.08421432621978478,-0.5679212412461758,-0.4245516640751034,-0.5674922930587466,0.6566947337028817,-0.5150427432171251,-0.5624555139459602,-0.7783189116451151,-0.42455166407510336,-0.029478548805490102,-0.7672450097215546,-0.47190559339165183,-0.7697254631290326,0.6752678862915382,-0.7585877431198762,-0.7355918696922326,-0.6141710794612538,-0.47190559339165183,0.07491944568898656,-0.6418892728028923,-0.4056077488305644,-0.6417120011281519,0.5899832492589907,-0.5997618029914629,-0.6133694902579959,-1.0941943326663672,-0.4056077488305645,0.0018021820597292682,-0.8183306960955408,-0.49151246970364604,-0.8449749758647198,0.7536372626126602,-0.7537638412986786,-0.7890363418857119,1.829785354239275,-0.491512469703646,-0.6595453830879775,-0.769597889413296,-0.19707629138267638,0.09674420223843626,0.7279034416860124,-2.1050142927911613,-1.1445946107707976,-1.0822309623643434,-0.6366191621358209,-0.5599501100322386,4.231906608433095,-0.7724455454315876,-0.6858839437740073,still,Still_11-2026-03-04_16-53-37,3,3.042831787109375,4.95378857421875
-0.004437330534009996,-0.6708973729254991,-0.34395536722043263,-0.6761451598266565,0.7539006475948726,-0.5634901443179123,-0.6706723263897214,2.357412929240186,-0.3439553672204326,-0.041644538356364946,-0.8714289979092934,-0.537642719448506,-0.8626105102627237,0.7403125117522735,-0.7433746571137372,-0.7730902640845847,1.6641808503185875,-0.537642719448506,-0.11653627690926056,-0.5680411176880434,-0.42455179668619186,-0.5651272968529808,0.6555115455297819,-0.5162020783512316,-0.5629127694940427,-0.7783189116451151,-0.42455179668619175,-0.0257655515168195,-0.7680664659606956,-0.47190691731108314,-0.7706229214760137,0.6771550643005508,-0.7585877431198762,-0.7365718453686747,4.456485271700561,-0.47190691731108314,0.0643031227331141,-0.6437080044519798,-0.4056110164485435,-0.644563974640216,0.5892351873380693,-0.6042716391688248,-0.6153574236460072,-1.0941943326663672,-0.4056110164485437,-0.0003648138532225284,-0.8182767536838936,-0.491512368657863,-0.8454188929792679,0.7533116526062635,-0.7537638412986786,-0.7888632766112514,1.829785354239275,-0.4915123686578631,-0.6581310431655253,-0.7709741880618777,-0.5615572219047424,-0.3766737357442893,0.4039505558914108,-0.6348069821401284,-1.3833440758356177,-0.45734702037300495,-0.6347868953547996,-0.5600912161709407,-0.513972243009004,-0.7738799344743372,-0.688605109997917,still,Still_11-2026-03-04_16-53-37,4,4.007960693359375,5.918919677734375
-0.0016322935597916169,-0.6704214052418187,-0.34395375325168576,-0.6753320888443527,0.7544655447347781,-0.5601972458540297,-0.6688241911136148,2.5116873181329464,-0.3439537532516858,-0.044678440748754,-0.8721894818136334,-0.5376462157325429,-0.8640202020362366,0.7405607644558078,-0.7433941324378706,-0.7732187493499502,1.4910896787614076,-0.537646215732543,-0.13913759813150742,-0.56859337314898,-0.4245522886344093,-0.5634847049442184,0.6543186318725007,-0.5167152921040051,-0.5629118323472471,-0.7783189116451151,-0.4245522886344092,-0.023513405523045604,-0.7682607751624052,-0.4719071720223187,-0.7707866555950706,0.6773909616640706,-0.7583463413490178,-0.7365718453686747,-0.7678273325267634,-0.4719071720223187,0.05986767639247903,-0.6439180959275361,-0.40561127191931023,-0.6449127338433538,0.5892351873380693,-0.6049932131057216,-0.6157360777037126,-0.711367685009969,-0.40561127191931035,-0.0019605107911069754,-0.8185240435542626,-0.4915128178536543,-0.8459163225084366,0.7533116526062635,-0.7537638412986786,-0.7888632766112514,-0.31321100482289327,-0.4915128178536543,-0.6567440850976661,-0.7713706630733089,-0.18922497185944215,-0.7004023932215523,0.41685156348757413,-0.541984160660658,-1.0384158043439693,-0.2545065677488167,-0.6330104380570957,-0.5606309800151367,-0.513972243009004,-0.7742628821997777,-0.6887239376191722,still,Still_11-2026-03-04_16-53-37,5,4.97309130859375,6.884050048828125
-0.001208580301061536,-0.6696850272414072,-0.3439510458529749,-0.6746253718136593,0.7536607333684723,-0.5601972458540297,-0.6684888425790811,2.6659617070257067,-0.343951045852975,-0.05060696311017087,-0.872071263654252,-0.5376456952516131,-0.8655573632432346,0.7394337902210893,-0.7433941324378706,-0.772685780210741,3.0489102227760267,-0.5376456952516131,-0.14946058978910629,-0.5686858624929456,-0.4245523519103747,-0.562689137160093,0.6540083652064193,-0.5170994862111952,-0.5630882322094822,3.3130240227607346,-0.4245523519103747,-0.02229602928542671,-0.7681854897958328,-0.4719070759878243,-0.7706671301534307,0.6773909616640706,-0.7583463413490178,-0.7365718453686747,2.4589539818489374,-0.4719070759878242,0.059949814287386154,-0.6438775481004083,-0.4056112245807595,-0.6448751583688946,0.5892351873380693,-0.6049932131057216,-0.6157360777037126,4.073965410695009,-0.40561122458075966,-0.0019211109179788225,-0.8183507333903862,-0.4915125068028026,-0.8457577309841193,0.7529860428480859,-0.7537638412986786,-0.788690211468722,4.536728123580962,-0.4915125068028027,-0.6561899963956258,-0.7712393465051876,0.29434538484494366,0.5871489193975142,0.4518588260930677,-0.5094675889849019,-0.26801527431206384,-1.2588312431725535,-0.6321600370107048,-0.560966454668789,3.5847413105091723,-0.7741668067929762,-0.6886170342734125,still,Still_11-2026-03-04_16-53-37,6,5.938221923828125,7.849179931640625
0.006753832236664996,-0.6657171628580608,-0.34393205833928475,-0.6698464974173004,0.7513425540386377,-0.5521048323117563,-0.6624025896313762,1.5860409847763843,-0.34393205833928475,-0.03526454707637402,-0.8686670600940715,-0.5376270719041237,-0.8589112025567007,0.7361807187443986,-0.7375013538381507,-0.7677943359280078,2.875819051218847,-0.5376270719041238,-0.11450292477461063,-0.5684638625289752,-0.42455219081514073,-0.5653781551540243,0.6560744375776499,-0.516263058294743,-0.5631267994045357,-0.7783189116451151,-0.4245521908151407,-0.018522163397742687,-0.7679957865927491,-0.4719068191140118,-0.7702397189661296,0.6776268588477613,-0.7581049397621845,-0.7365718453686747,6.146704055421166,-0.4719068191140117,0.07925222003668018,-0.6421195875233464,-0.4056082673268542,-0.6411482133606837,0.5901702647392211,-0.6012049505902215,-0.6142214617254644,-1.0941943326663672,-0.4056082673268543,-0.006570302134384984,-0.8181138694288637,-0.49151205317590374,-0.8458256786056768,0.7523348230835115,-0.7551070631971258,-0.7890363420176432,3.0704674568542147,-0.49151205317590363,-0.6566087659982385,-0.7695625348948949,1.4668384183773582,0.35942541221304025,0.5623206755130457,-0.10702608464949415,-0.9751199809565052,-1.0642629384727056,-0.6340499672504397,-0.5593803129999612,-0.513972243009004,-0.7721227905118367,-0.6866698134351815,still,Still_12-2026-03-04_16-54-17,0,0.279662841796875,2.19064013671875
0.012012117250700435,-0.6710379834177616,-0.34395582358692944,-0.6723086110762486,0.7567122504471782,-0.5602597094353189,-0.669799870305148,2.5116873181329464,-0.3439558235869294,-0.03843316535083891,-0.8712874748435505,-0.5376420300996639,-0.8615045947686182,0.7379273197999874,-0.7443837584952322,-0.7725364383603917,1.6641808503185875,-0.5376420300996639,-0.0958013832983287,-0.5683433704325721,-0.424552090152355,-0.5667826147991943,0.6563870763130439,-0.5157446264595547,-0.5628565406863012,-0.7783189116451151,-0.42455209015235496,-0.01900911386030923,-0.7679709644643127,-0.47190678392580976,-0.7702579658223702,0.6776268588477613,-0.7581049397621845,-0.7365718453686747,1.0760477042593513,-0.4719067839258097,0.06947781043316278,-0.6435310475227565,-0.4056107816672296,-0.6437720336000777,0.5901702647392211,-0.6040912457877387,-0.6157360776676307,6.1795119728052,-0.40561078166722975,-0.007535600328808398,-0.8183664976414163,-0.49151253582476767,-0.8460155221123695,0.750706773547966,-0.7551070631971258,-0.7881710159092024,2.957678174798311,-0.4915125358247677,-0.6584681623026188,-0.7707671118870972,0.7904736616165268,0.6894567880004064,0.11489050669216824,-0.31991649599214345,-1.240662074981226,-0.8515537063692262,-0.6359185402604356,-0.5600958559935812,-0.513972243009004,-0.7735820837219282,-0.6882030921366796,still,Still_12-2026-03-04_16-54-17,1,1.244802490234375,3.15578125
0.01341117178514192,-0.6712829380206102,-0.3439565963547598,-0.6719901013467884,0.7590209195125592,-0.560409936555513,-0.6708568990110448,1.5860409847763843,-0.3439565963547597,-0.041699445667540344,-0.8719376543464057,-0.5376450968064307,-0.8629391628226023,0.7379273197999874,-0.7451369769005868,-0.7729650208216778,1.4910896787614076,-0.5376450968064308,-0.0864077168867561,-0.5685965670655726,-0.42455229091091956,-0.567563499712225,0.6571349897672909,-0.5154903728360215,-0.5629046956139567,-0.7783189116451151,-0.4245522909109195,-0.021200390941858733,-0.7680995155808453,-0.47190696221270007,-0.7705280362393022,0.6776268588477613,-0.7581049397621845,-0.7365718453686747,4.302829018635052,-0.4719069622127,0.06668512190457275,-0.6437579060778387,-0.40561107941661473,-0.6443498493340137,0.5901702647392211,-0.6048128195871182,-0.6161147316531722,2.3512454962412175,-0.4056110794166148,-0.009229797140988516,-0.8186566411898644,-0.49151304393130246,-0.8460857595298539,0.750706773547966,-0.7564502848395815,-0.7888632767431825,0.7018925336802391,-0.4915130439313025,-0.6593038612715584,-0.7711509603285411,-0.12478608583365644,0.621549239020617,0.059868278710907614,-0.4765903598437198,-1.5168894398905977,-1.8027575016423611,-0.6366906191274802,-0.5606177886773807,2.93757601258525,-0.7739471006663593,-0.6886045929029402,still,Still_12-2026-03-04_16-54-17,2,2.209942626953125,4.120923828125
0.006459371451371648,-0.6701589749012331,-0.3439528177021852,-0.6733679590684217,0.7580011426532541,-0.5613637891015018,-0.6710355100746097,1.5860409847763843,-0.3439528177021852,-0.04414222544237676,-0.8715475893025936,-0.5376432877460768,-0.8634414493749916,0.7397988516295174,-0.7453194436102907,-0.7739539303042414,0.9718161640898682,-0.5376432877460768,-0.10607746920537627,-0.5678751313989248,-0.4245516106137919,-0.5658711099545756,0.6559271320733406,-0.5154903728360215,-0.5625376224229057,-0.7783189116451151,-0.4245516106137918,-0.021809079020066915,-0.7680537773127839,-0.47190689990025897,-0.7705178664024575,0.6776268588477613,-0.7581049397621845,-0.7365718453686747,4.149172765569542,-0.47190689990025897,0.06569946711089958,-0.6439677351528236,-0.4056113285905719,-0.644648200182557,0.5901702647392211,-0.6048128195871182,-0.6161147316531722,0.43711225795922587,-0.40561132859057203,-0.009091897401073294,-0.8183786390929323,-0.4915125580777322,-0.8458577630456665,0.7520092130771149,-0.7551070631971258,-0.7888632767431826,0.9274710977920462,-0.4915125580777322,-0.6585067100058728,-0.7711686375656029,-0.3390267538170474,0.8690077684961276,0.22653321478529326,-0.44341619116983244,-1.2677004030953227,-2.1085356754487696,-0.6354103101044055,-0.5600469828488719,-0.513972243009004,-0.7739850739917871,-0.6888001099609414,still,Still_12-2026-03-04_16-54-17,3,3.175083984375,5.086067138671875
0.0013906625690126475,-0.6714354305733105,-0.34395706314512303,-0.6755710816897786,0.7580011426532541,-0.5613637891015018,-0.6710355100746097,1.4317665958836239,-0.34395706314512303,-0.046750067548725203,-0.8710823961211362,-0.5376410096245109,-0.8638453147432773,0.7391035218409446,-0.7441503898800123,-0.7729599012245401,1.4910896787614076,-0.537641009624511,-0.12638693008915766,-0.5686260301348787,-0.42455231160275,-0.5644836664753763,0.6553298450204406,-0.5164051743040337,-0.5630006450281926,-0.7783189116451151,-0.4245523116027499,-0.024152528086367215,-0.7679916640787985,-0.4719068132951492,-0.7705376100202247,0.6773909616640706,-0.7581049397621845,-0.7364493484441376,1.844328969586899,-0.47190681329514916,0.06169524461677656,-0.6438830687710331,-0.4056112310813446,-0.6448780688283008,0.5888611563776086,-0.6048128195871182,-0.6154520871784745,-1.0941943326663672,-0.4056112310813448,-0.006077803033224003,-0.8180427370534898,-0.4915119105182343,-0.84576791396737,0.7520092130771149,-0.7547712576585163,-0.7886902114687221,-0.20042172276698966,-0.49151191051823423,-0.6577020589264847,-0.7713226820214973,-0.24771965956705075,-0.36980041143711806,-0.02707486713227479,-0.39036715693229934,-0.7434085060407934,-1.1056564285783346,-0.6341075443030226,-0.5606206879603826,-0.513972243009004,-0.7740790208316877,-0.6887768974241222,still,Still_12-2026-03-04_16-54-17,4,4.140226806640625,6.05121044921875
0.00202183453601957,-0.6722198008222224,-0.34395929097084016,-0.6760014415636212,0.7581117885053319,-0.5635933858025343,-0.6724923472038359,0.3518458736343013,-0.34395929097084016,-0.04767801068709556,-0.871978971367235,-0.5376452830243297,-0.8647393742263563,0.7391035218409446,-0.7441503898800123,-0.7729599012245401,1.4910896787614076,-0.5376452830243298,-0.12581328653189733,-0.5687390410218754,-0.4245523858092156,-0.5645444232740963,0.6553298450204406,-0.5169169556420269,-0.5633612302798888,2.021020990843098,-0.42455238580921556,-0.025613379474066774,-0.7679824450344107,-0.4719068002461899,-0.7705401695491647,0.6771550643005508,-0.7585877431198762,-0.7365718453686747,2.919922741045466,-0.4719068002461899,0.058204384020611136,-0.6441284048048613,-0.4056115023503879,-0.6450293455440688,0.5888611563776086,-0.6053540000054114,-0.6157360777037126,-0.13712771352537156,-0.405611502350388,-0.0037926072981491203,-0.8184014168305859,-0.4915125995915622,-0.8460325062932639,0.752660433089908,-0.7544354523758977,-0.7888632768751136,-0.31321100482289327,-0.4915125995915621,-0.657970871435837,-0.771509555608834,-0.2478523782243062,-0.4681885272434299,0.020033681249453077,-0.2836495794771373,-0.4698022858878175,-0.07064889579706209,-0.6342681174183258,-0.5607742615512993,2.2904107146613275,-0.7742430874267003,-0.6887629765821354,still,Still_12-2026-03-04_16-54-17,5,5.1053701171875,7.016353515625
0.0018842697436408204,-0.6715329777130703,-0.3439573559954252,-0.6755291662500168,0.7561865674373539,-0.5626330082402138,-0.6710824868006081,2.6659617070257067,-0.3439573559954252,-0.04568779952093824,-0.8718721785471676,-0.537644799583663,-0.8641085410988749,0.7376896967923949,-0.7465738942742881,-0.7736702523000566,1.6641808503185875,-0.537644799583663,-0.12586768586090455,-0.5687287730975855,-0.424552379405114,-0.5645387889296747,0.6553291333996468,-0.5169169556420269,-0.5633610140152436,-0.7783189116451151,-0.42455237940511387,-0.025978592344192405,-0.7678766416297075,-0.4719066468842634,-0.7704337188492153,0.6771550643005508,-0.7585877431198762,-0.7365718453686747,0.768735198128332,-0.47190664688426337,0.05691071217582493,-0.643831244219902,-0.40561116937119085,-0.6446461085916751,0.5881130944566871,-0.6053540000054114,-0.615357423718171,-0.3285410373535707,-0.40561116937119096,-0.00416690658469559,-0.8186184769820418,-0.49151297991935844,-0.8462688902691894,0.752660433089908,-0.7544354523758977,-0.7888632768751136,-0.31321100482289327,-0.4915129799193585,-0.6576589172290586,-0.7713580364908084,-0.2568868126323172,-0.14959577910037944,-0.28053994440883223,-0.2396440240297379,-0.8056241214925197,-1.339723884643949,-0.6341677133847111,-0.5608178703581111,-0.513972243009004,-0.7741297602465369,-0.688572817229909,still,Still_12-2026-03-04_16-54-17,6,6.070513427734375,7.981496337890625
-0.00930929896860056,-0.6704187755080466,-0.3439537440378477,-0.6759867984922426,0.7553733141402666,-0.5620557443217895,-0.6703783683484401,-0.7280748486150214,-0.3439537440378477,-0.037749360484170484,-0.872046416127991,-0.5376455847772211,-0.8616990523167561,0.7378840933134281,-0.7433768569842373,-0.7719430671230708,1.8372720218757674,-0.5376455847772211,-0.12144663659521193,-0.5684545648957475,-0.42455218337898365,-0.5648392014865736,0.655202702105288,-0.5163563698861563,-0.5629276196663436,-0.7783189116451151,-0.42455218337898354,-0.02412209369405713,-0.7679491473882359,-0.47190675269627125,-0.7704951406659427,0.6771550643005508,-0.7585877431198762,-0.7365718453686747,0.0004539328007843344,-0.47190675269627125,0.05806064268886992,-0.6437651285232759,-0.40561108841213567,-0.6446798112147546,0.5884871252745821,-0.6049932131057216,-0.6153574236460072,-0.9027810088381681,-0.40561108841213583,-0.004659405670838723,-0.8189305051421416,-0.4915134781992229,-0.8466006674877719,0.7536372626126602,-0.7547712576585163,-0.7895555375771629,4.875095969748672,-0.4915134781992229,-0.6574809425185553,-0.7713479352076746,0.1004337707916554,-1.2388470338370088,0.5620434304888013,-0.3611017381102872,-0.32967597578802466,-1.5396475919034691,-0.6343203508655921,-0.5604277858597806,-0.513972243009004,-0.7742472252057805,-0.6886643168770559,still,Still_13-2026-03-04_16-54-40,0,0.236390625,2.147364501953125
-0.021581317124403795,-0.6722385179915671,-0.34395934059013183,-0.6758295186357658,0.7525926510690135,-0.5666611091256522,-0.6721336761475877,1.4317665958836239,-0.3439593405901318,-0.03761220824536324,-0.8741752822390052,-0.5376536918550399,-0.8626593340335842,0.7418601822709392,-0.7456899188603302,-0.7751395766786024,3.395092565890386,-0.5376536918550399,-0.10491017221108673,-0.5684690692503432,-0.42455219495522023,-0.5661184389339572,0.6563460395139369,-0.5160687614613064,-0.5630724448903855,-0.7783189116451151,-0.4245521949552201,-0.02594815795188268,-0.7676622388711991,-0.4719063157761051,-0.7702215958216685,0.6771550643005508,-0.7585877431198762,-0.7365718453686747,-0.6141710794612538,-0.47190631577610503,0.05543223005184396,-0.6438141521358333,-0.40561114868164583,-0.6444690681451266,0.5884871252745821,-0.6057147869051009,-0.6157360776315487,0.8199389056156242,-0.40561114868164594,-0.005762603605177398,-0.8185207732176519,-0.4915128121473653,-0.8462349801477524,0.7523348230835115,-0.7547712576585163,-0.7888632767431826,4.762306687692768,-0.4915128121473653,-0.6586535873786793,-0.7709994412422796,0.31498122129873385,-0.6967626939033763,-0.1177464644538792,-0.8227040394262084,-0.4979786704299853,-1.5244261142269677,-0.6357313298491377,-0.5606073127524392,-0.513972243009004,-0.7739189013736668,-0.6886244233303302,still,Still_13-2026-03-04_16-54-40,1,1.20152880859375,3.112504150390625
-0.026148499558236133,-0.6719646339444086,-0.3439585980518753,-0.6743303971348873,0.752487640153363,-0.5665220421285285,-0.6720019283396687,1.4317665958836239,-0.34395859805187523,-0.03792957964053411,-0.8739462770092563,-0.537652951677781,-0.8626802118643435,0.7418601822709392,-0.7453187514941708,-0.7749283818615257,2.0103631934329473,-0.537652951677781,-0.09767724876791518,-0.5685830850555794,-0.4245522812569641,-0.5666993026378743,0.6569687077084811,-0.5159092518439672,-0.5631492909276323,-0.7783189116451151,-0.4245522812569641,-0.025704682720599423,-0.7679094999672592,-0.4719066952222171,-0.7704676515966672,0.6771550643005508,-0.7585877431198762,-0.7365718453686747,-0.6141710794612538,-0.47190669522221707,0.05403588585407781,-0.6438798381379582,-0.4056112272793942,-0.6443332694552255,0.5892351873380693,-0.6057147869051009,-0.6161147316892541,2.9254854677258146,-0.40561122727939436,-0.006629401947831578,-0.8181666365444727,-0.49151215708297064,-0.8458747340255657,0.7523348230835115,-0.7547712576585163,-0.7888632767431826,0.8146818157361427,-0.4915121570829706,-0.6588720360812685,-0.7708782259476665,0.08801679809996003,-0.12025769151090301,0.40643361304545117,-1.1191630814321751,-0.40493216499905926,-1.1411835778110238,-0.636141727050272,-0.5607863404276753,-0.513972243009004,-0.7738133460920128,-0.6887723283171813,still,Still_13-2026-03-04_16-54-40,2,2.166667236328125,4.077644775390625
-0.027919958434192843,-0.672231831757697,-0.343959322883857,-0.673927017126082,0.752487640153363,-0.5665220421285285,-0.6720019283396687,1.4317665958836239,-0.343959322883857,-0.03784844574960687,-0.8740788551268304,-0.5376533840650548,-0.8627066320293447,0.7438523774265723,-0.7453187514941708,-0.7758705316503358,1.144907335647048,-0.5376533840650548,-0.11213317172603277,-0.568180473280509,-0.4245519392667279,-0.5654978873250645,0.6546853537882209,-0.5159092518439672,-0.56245536976953,-0.7783189116451151,-0.42455193926672785,-0.02485251941110785,-0.7681656973897666,-0.47190705018320517,-0.7707191405751073,0.6771550643005508,-0.7585877431198762,-0.7365718453686747,0.6150789450628226,-0.4719070501832051,0.05668483290221502,-0.643717480199942,-0.40561102851509334,-0.6445224832146735,0.5890481717865562,-0.604452032824946,-0.615357423718171,-1.0941943326663672,-0.4056110285150934,-0.007673500008652783,-0.8179148210123335,-0.491511646507454,-0.8455749746612343,0.7510323833061435,-0.7547712576585163,-0.7881710157772712,1.265838943959757,-0.491511646507454,-0.6577769946569925,-0.7710448969668106,0.3395696045263655,-0.10001553980064129,0.6981451262435271,-0.8828425489692783,-0.5252726143373567,-1.2716667412660525,-0.6349427126303453,-0.5604612411047936,-0.513972243009004,-0.7739377743209125,-0.6886552711924815,still,Still_13-2026-03-04_16-54-40,3,3.131806640625,5.0427861328125
-0.02961832357952761,-0.6723605687825606,-0.34395966009814744,-0.6734358151694516,0.7513982540236196,-0.5678325081992315,-0.6723771747958929,1.4317665958836239,-0.3439596600981474,-0.040921485539925584,-0.8745346635674218,-0.5376547893144114,-0.8640288718460769,0.7432131165712315,-0.7472534601526044,-0.7766690644117891,3.0489102227760267,-0.5376547893144114,-0.13624803377306355,-0.5684014565846722,-0.424552139841172,-0.5636813477751196,0.6545314064898364,-0.5168111615789551,-0.5630440421336547,-0.7783189116451151,-0.42455213984117196,-0.028017697440991123,-0.7680158321733436,-0.471906847264555,-0.7705280362257061,0.6762114750263005,-0.7585877431198762,-0.7360818573903808,1.3833602103903704,-0.471906847264555,0.05976500385165279,-0.6435728653667244,-0.40561083876730997,-0.6445735765536916,0.5890481717865562,-0.604452032824946,-0.615357423718171,1.0113522294438233,-0.40561083876731013,-0.007437100469530342,-0.8179509175593813,-0.4915117219811488,-0.8456257874169204,0.7510323833061435,-0.7561144793009721,-0.7888632766112514,-0.4260002868787969,-0.4915117219811488,-0.6562842117227846,-0.7710600488708164,0.19399061277819385,0.2667896873707652,0.681429513584994,-0.2851037479977604,-1.0043801227085696,-1.0309962530369245,-0.6330933433510959,-0.5605077421578566,-0.513972243009004,-0.773935426306594,-0.6885382551260496,still,Still_13-2026-03-04_16-54-40,4,4.09694775390625,6.007927001953125
-0.030078618240942528,-0.6712833855832518,-0.343956597740818,-0.6727009142776722,0.7464312775140179,-0.5676540565897888,-0.6701946249335399,2.6659617070257067,-0.343956597740818,-0.04140972004510821,-0.8742722109428305,-0.5376539955637043,-0.8640885118303187,0.7432131165712315,-0.7442631655941802,-0.7749675820891198,3.0489102227760267,-0.5376539955637043,-0.1484365619137286,-0.5687678124154253,-0.4245524033939105,-0.5627782435406649,0.6545314064898364,-0.5171999598765109,-0.5633179773508569,6.973699279860706,-0.4245524033939104,-0.028017697440991203,-0.7679742592511112,-0.4719067886175516,-0.7704876127381418,0.6762114750263005,-0.7585877431198762,-0.7360818573903808,-0.30685857333023475,-0.4719067886175516,0.05970340042264552,-0.6436812900560775,-0.4056109821533616,-0.6446776898252542,0.5890481717865562,-0.604452032824946,-0.615357423718171,0.24569893413102672,-0.4056109821533617,-0.0049155051803152616,-0.8183209661536147,-0.4915124516036094,-0.846024851900634,0.7523348230835115,-0.7547712576585163,-0.7888632767431826,1.3786282260156606,-0.4915124516036094,-0.655441684002622,-0.7711686375723409,0.3573565587955168,-0.2691963591132324,-0.014472532770854302,-0.09983667072123537,-0.8889707760681244,-0.8116419362935208,-0.632020000009953,-0.5608618959939361,-0.08252871105972226,-0.7740856148252631,-0.6886081514722884,still,Still_13-2026-03-04_16-54-40,5,5.0620888671875,6.973067626953125
-0.025636605087358752,-0.6701198975580904,-0.3439526756168686,-0.6732564127260132,0.7464312775140179,-0.5646567151553055,-0.6682981163732484,1.4317665958836239,-0.34395267561686854,-0.04087701269808343,-0.8735401516108576,-0.5376515608165261,-0.8635484550903002,0.7435753070653317,-0.7442631655941802,-0.7751388693731796,3.0489102227760267,-0.5376515608165261,-0.1500467091418501,-0.5687917166644584,-0.4245524176002787,-0.5626545238494625,0.6536580105689556,-0.5173833089684109,-0.5631817306244062,8.696369989084221,-0.4245524176002786,-0.026130764375344888,-0.7679847658545677,-0.47190680353590153,-0.7705395293949735,0.6771550643005508,-0.7585877431198762,-0.7365718453686747,-0.15320232026472522,-0.4719068035359015,0.05994981416215511,-0.6439478888207428,-0.40561130610197516,-0.6449437941599289,0.5890481717865562,-0.6051736066243253,-0.6157360777037126,1.3941788771002217,-0.4056113061019752,-0.004836705313917443,-0.8184532558465649,-0.491512692936212,-0.8461496809926842,0.7523348230835115,-0.7547712576585163,-0.7888632767431826,1.829785354239275,-0.49151269293621197,-0.6553966816815797,-0.7713353086039979,0.658305169704457,0.004151442802384395,0.3525679337874766,-0.10412831325800566,-0.6254167925646831,-1.1735734621483862,-0.6318859998691688,-0.5609021638616738,-0.29825047703436314,-0.7742381758294272,-0.6887772408121481,still,Still_13-2026-03-04_16-54-40,6,6.02722998046875,7.938207275390625
0.003214423676514718,-0.6710381640103952,-0.34395582416707,-0.6748344196613065,0.7583950854579066,-0.5605202134700061,-0.6706659022220635,1.5860409847763843,-0.34395582416707,-0.043351160798349636,-0.8714355034605833,-0.5376427508446082,-0.8631334821511627,0.7337200620843504,-0.7457525092934633,-0.7713255615983493,1.6641808503185875,-0.5376427508446082,-0.11261186961896476,-0.5683900153215441,-0.424552130224992,-0.5655089806083934,0.6557195760084925,-0.516345012883254,-0.5630766980950738,-0.7783189116451151,-0.42455213022499194,-0.025582945104957452,-0.7679908015083857,-0.47190681207637136,-0.7705485071409349,0.6771550643005508,-0.7585877431198762,-0.7365718453686747,-0.6141710794612538,-0.4719068120763713,0.07401592897023973,-0.6416206862177375,-0.4056071058244343,-0.64163797337602,0.5899832492589907,-0.5961539337195308,-0.6114762201859603,-1.0941943326663672,-0.4056071058244345,-0.00499430497162427,-0.8184506196133386,-0.4915126882273074,-0.8461532232343357,0.752660433089908,-0.7547712576585163,-0.7890363420176432,0.3635246875125283,-0.49151268822730737,-0.6582434737942864,-0.7702974026434526,-0.2432179657197081,-0.28110221798952034,0.2711893908089674,-1.288310460645923,-1.2476431164045716,-0.6602545829747679,-0.6351167879270232,-0.5602556047612318,-0.513972243009004,-0.7729320639081352,-0.685896957199474,still,Still_14-2026-03-04_16-55-03,0,0.242447509765625,2.153421875
0.0005803768624058229,-0.6714555184342637,-0.3439571238184321,-0.6757694956845375,0.7574099770736467,-0.5617686987830386,-0.6710453819952905,1.4317665958836239,-0.3439571238184321,-0.04236310201160741,-0.8729360655391463,-0.537649306972246,-0.8637348414022774,0.7406810762895238,-0.7441587227228158,-0.7737107003527538,1.6641808503185875,-0.537649306972246,-0.0924455563366068,-0.5684212781848105,-0.4245521563022565,-0.5670581888436704,0.6572120820199487,-0.5158173726673342,-0.5631585182191592,-0.7783189116451151,-0.4245521563022564,-0.024000356124817115,-0.7679235861907606,-0.47190671574864806,-0.7704676515834068,0.6762114750263005,-0.7585877431198762,-0.7360818573903808,-0.7678273325267634,-0.471906715748648,0.06487808798180972,-0.6439953550773324,-0.40561135951249555,-0.6447663912427758,0.5899832492589907,-0.6049932131057216,-0.6161147316892541,0.628525581787425,-0.40561135951249566,-0.00576260353008873,-0.8184467700304229,-0.4915126813437605,-0.8461629861799049,0.7523348230835115,-0.7561144793009721,-0.7895555375771629,1.0402603798479497,-0.4915126813437605,-0.6598873121011456,-0.7712519731002012,0.4396157388781669,-0.3163794261125177,0.5093287957892589,-0.1936825161036417,-1.2396682867973519,-1.7354527059277896,-0.6368443921603462,-0.5604102673119996,-0.08252871105972226,-0.774121749674191,-0.6887873259266367,still,Still_14-2026-03-04_16-55-03,1,1.2075859375,3.1185615234375
-0.0025566187563033052,-0.6712124473553106,-0.34395637687348285,-0.6761658716398126,0.7574099770736467,-0.5617686987830386,-0.6710453819952905,1.4317665958836239,-0.34395637687348285,-0.03953564758745175,-0.8732023991331296,-0.5376503279362436,-0.8629112032771148,0.7427254267819469,-0.7441587227228158,-0.7746775154658436,2.875819051218847,-0.5376503279362437,-0.08774663708060165,-0.5685857340729821,-0.42455228316302285,-0.5674589224683732,0.6567547470564892,-0.5158173726673342,-0.5630195321405366,-0.7783189116451151,-0.42455228316302274,-0.026282936441298574,-0.7679818247624256,-0.4719067993664277,-0.7705350532060096,0.6762114750263005,-0.7585877431198762,-0.7360818573903808,1.6906727165213895,-0.4719067993664277,0.06282464060913316,-0.6438141521458836,-0.40561114868165804,-0.6447663912427758,0.5892351873380693,-0.6049932131057216,-0.6157360777037126,3.3083121153822126,-0.4056111486816581,-0.005467104109940104,-0.818607497380728,-0.49151296134517786,-0.8463172389191749,0.7523348230835115,-0.7561144793009721,-0.7895555375771629,1.0402603798479497,-0.4915129613451778,-0.6600904667527157,-0.7712822769207263,0.4472090084381581,0.39348359842086494,0.38369487309934924,-0.019959259141032,-0.41119944447993995,-0.8691005220455098,-0.6371389128028925,-0.5605346589855021,-0.513972243009004,-0.7741892724620133,-0.6888266584089854,still,Still_14-2026-03-04_16-55-03,2,2.172724365234375,4.08370263671875
-0.005242949317165888,-0.6720259544077892,-0.34395876737222314,-0.6772606001519305,0.7582070796793382,-0.5636424544771468,-0.6725631003329595,1.5860409847763843,-0.3439587673722231,-0.03938797984102938,-0.8735631616113414,-0.5376516422918782,-0.863034339267659,0.7427254267819469,-0.7454516211235084,-0.7754131766961357,2.0103631934329473,-0.5376516422918783,-0.11024126594796757,-0.5679615219150062,-0.4245517096624943,-0.5655837683412095,0.6555601729506891,-0.516042977995258,-0.5628154504037208,-0.7783189116451151,-0.4245517096624942,-0.027469878135802577,-0.7677262568417001,-0.4719064174919711,-0.770261401068783,0.6762114750263005,-0.7576221362204675,-0.7355918694120868,1.9979852226524086,-0.4719064174919711,0.060524779551735505,-0.643831244219902,-0.40561116937119085,-0.6448382662559256,0.5892351873380693,-0.6049932131057216,-0.6157360777037126,-0.13712771352537156,-0.40561116937119096,-0.005408004221405099,-0.8185825142914795,-0.4915129188176419,-0.8462920319241289,0.7536372626126602,-0.7561144793009721,-0.7902477984111431,3.85999243124554,-0.4915129188176419,-0.6586939433971735,-0.7711610616261132,0.1641911820549808,0.16936778578153536,0.2473222570774343,-0.13914173804999136,0.029084937506436034,-1.0636807987750507,-0.6354230065045311,-0.5599662463235462,-0.513972243009004,-0.7741064833559421,-0.6887635635192043,still,Still_14-2026-03-04_16-55-03,3,3.137864501953125,5.0488515625
-0.0073883029925754466,-0.6724951083550016,-0.34396000416371914,-0.6778870685650655,0.7561171885918254,-0.5649709781511861,-0.6725328823051991,2.820236095918467,-0.34396000416371914,-0.04239545445303565,-0.8738993484505054,-0.5376527960719408,-0.864258195665357,0.7422495768603791,-0.7454516211235084,-0.7751881375468119,1.8372720218757674,-0.5376527960719408,-0.13897403559202023,-0.5683183561659878,-0.42455206808805546,-0.5634558429601181,0.6543202923210195,-0.5168187329142233,-0.5629852181501712,-0.7783189116451151,-0.42455206808805535,-0.027013362053945666,-0.7677470305543259,-0.47190644997693176,-0.7702919414688271,0.6764473725696498,-0.7576221362204675,-0.7357143665233876,1.9979852226524086,-0.4719064499769317,0.06089440006316341,-0.6438861249741338,-0.4056112346725192,-0.644892684459593,0.5890481717865562,-0.6049932131057216,-0.6156414141712453,3.1168987915540134,-0.40561123467251936,-0.005348904317852325,-0.8185655113166102,-0.4915128896647758,-0.8462744271080053,0.7536372626126602,-0.7561144793009721,-0.7902477984111431,0.13794612340072113,-0.49151288966477585,-0.6571167808299009,-0.7711964160848361,-0.055269260955497716,0.10137829536205066,0.6077429816222241,-0.9114698807117051,-0.3279771011153636,-1.3629278358858439,-0.6331642618730201,-0.5604297719749504,-0.513972243009004,-0.774139660121145,-0.688771774659265,still,Still_14-2026-03-04_16-55-03,4,4.103005615234375,6.0139931640625
-0.007832838882662783,-0.6723444013399326,-0.3439596181780048,-0.6777706439077749,0.7561171885918254,-0.5634500561626062,-0.6715705489728357,1.4317665958836239,-0.34395961817800474,-0.04895105525582777,-0.8740361369994054,-0.5376532459089748,-0.8664973280411442,0.7399417108741991,-0.748578364512338,-0.7758758224957109,1.8372720218757674,-0.5376532459089748,-0.15696781870959506,-0.5685611928617098,-0.424552265332577,-0.5620872733770763,0.6530939324864313,-0.517335936965314,-0.5629769280054401,-0.7783189116451151,-0.4245522653325769,-0.026769886834262884,-0.7679658574476343,-0.47190677664076425,-0.7705121648102075,0.6771550643005508,-0.7585877431198762,-0.7365718453686747,2.151641475717918,-0.4719067766407642,0.060114089967623234,-0.6437561042577583,-0.4056110771678028,-0.6447597764462443,0.5890481717865562,-0.6049932131057216,-0.6156414141712453,-1.0941943326663672,-0.4056110771678029,-0.006117202906352104,-0.8187156261610846,-0.4915131411837627,-0.8464213856260104,0.7523348230835115,-0.7561144793009721,-0.7895555375771629,3.521624585077829,-0.4915131411837627,-0.6563633009064642,-0.7712393465013373,-0.4536215463512962,-0.7042904333612187,0.6585505449931291,-0.7411823130421066,-0.5696079699063453,-0.9721667898811562,-0.6317223173411126,-0.5607506268750214,-0.513972243009004,-0.7741816304447499,-0.6889372889346799,still,Still_14-2026-03-04_16-55-03,5,5.068154541015625,6.97913330078125
-0.005199539243290259,-0.6713678424467119,-0.3439568576055815,-0.6766573568711233,0.7579715854216597,-0.5634500561626062,-0.6723432384319609,2.6659617070257067,-0.34395685760558153,-0.05319743171254357,-0.8733117544781496,-0.5376507346830659,-0.8671311356185194,0.7399417108741991,-0.7469921971010163,-0.7749732907355686,3.0489102227760267,-0.5376507346830659,-0.1630223465611963,-0.5687884379056234,-0.4245524156733779,-0.56163668637763,0.6530939324864313,-0.5176544446232854,-0.5632013386189008,5.25102857063719,-0.42455241567337787,-0.026861190022793482,-0.7681207842839451,-0.47190699076648374,-0.7706630753542242,0.6771550643005508,-0.7585877431198762,-0.7365718453686747,0.30776643893180344,-0.4719069907664837,0.057978504629597326,-0.6437825609792914,-0.40561111000116823,-0.6446904484710718,0.5890481717865562,-0.6051736066243253,-0.6157360777037126,-1.0941943326663672,-0.4056111100011684,-0.00651120220079676,-0.8184802532064996,-0.4915127409247774,-0.8461826091213366,0.7510323833061435,-0.7561144793009721,-0.7888632766112514,3.6344138671337327,-0.4915127409247774,-0.6558591462615523,-0.7712570237258861,0.5290335704850841,-0.5667998074883328,0.4744734636933168,-0.6783138930046193,-1.3789202787382806,-0.7983946128617343,-0.6311660650402743,-0.5610612882303404,5.526237204280941,-0.7741751573779956,-0.6887767385693292,still,Still_14-2026-03-04_16-55-03,6,6.033296142578125,7.9442724609375
-0.011077126069438952,-0.6701810930225137,-0.34395289780473387,-0.6757323112581362,0.7526208048034309,-0.5640384664091405,-0.6704859818851987,1.5860409847763843,-0.34395289780473387,-0.05316924465120439,-0.872405793932079,-0.537647146153284,-0.8663989449064596,0.7379060816391877,-0.7470645889179551,-0.7740517911413587,1.6641808503185875,-0.537647146153284,-0.1167566691275245,-0.5683203022105532,-0.424552069818989,-0.5651751169911513,0.6558932114821712,-0.5161570596009882,-0.5629970406174399,-0.7783189116451151,-0.42455206981898896,-0.026069895567524395,-0.7680778783316536,-0.4719069328891984,-0.7706322274772796,0.6771550643005508,-0.7595533498352594,-0.7370618332535867,1.0760477042593513,-0.4719069328891983,0.06413884692764606,-0.6438567679386273,-0.4056111999557177,-0.6447140324539313,0.5899832492589907,-0.6049932131057216,-0.6161147316892541,5.6052720013206025,-0.4056111999557178,-0.0046003057147240385,-0.8184870704746123,-0.4915127529750118,-0.8461709979746708,0.7536372626126602,-0.7547712576585163,-0.7895555375771629,1.7169960721833715,-0.4915127529750118,-0.6587542848287822,-0.7712039920416519,0.6327440434950706,-0.07847723107764375,0.9570675824922071,-0.8129900847200221,-0.9148771653158726,0.023637213850852903,-0.6351195538899868,-0.5604190024599368,-0.513972243009004,-0.7741529313278992,-0.6888550009884562,still,Still_17-2026-03-04_16-56-11,0,0.233652587890625,2.144636474609375
-0.014359486089721412,-0.6703904462047368,-0.34395364457333855,-0.6756913275088753,0.752317398040558,-0.564347721834348,-0.6705552337142718,1.4317665958836239,-0.34395364457333855,-0.04825161762716032,-0.8728403800717527,-0.5376489296686712,-0.8655009800595345,0.7406332544528326,-0.7464000123533406,-0.7749633817659068,1.6641808503185875,-0.5376489296686712,-0.09812556728872848,-0.5685424188316465,-0.4245522514316343,-0.5666556981506877,0.6568043233051215,-0.5158902211904552,-0.5630859253866005,-0.7783189116451151,-0.4245522514316342,-0.026800321261374233,-0.7681099748197079,-0.4719069762879809,-0.7706536422678035,0.6771550643005508,-0.7595533498352594,-0.7370618332535867,5.685735296224638,-0.4719069762879809,0.06364601955820373,-0.6437058907554611,-0.405611013749922,-0.6446129016652639,0.5892351873380693,-0.6049932131057216,-0.6157360777037126,-0.711367685009969,-0.4056110137499221,-0.00446240600484437,-0.8187280008055215,-0.49151316132751877,-0.8463942537128962,0.752660433089908,-0.7561144793009721,-0.7897286028516235,3.0704674568542147,-0.4915131613275187,-0.6598705026792587,-0.771231770552222,0.5614437382678671,-0.4671176465469715,0.7507948207891734,-0.4218183594328978,-0.755931778758557,-0.1363848357814888,-0.6365775659363987,-0.5607880675892101,-0.513972243009004,-0.7741807683348958,-0.688831878746455,still,Still_17-2026-03-04_16-56-11,1,1.1987958984375,3.109781005859375
-0.020864628673899138,-0.6706238731542513,-0.3439544528549377,-0.6747992152266444,0.752317398040558,-0.564394679879999,-0.6705849454896897,1.5860409847763843,-0.3439544528549377,-0.04699462037433124,-0.8734238342366543,-0.5376511440385551,-0.8655106301691262,0.740569268684363,-0.7464000123533406,-0.7749331215887952,1.8372720218757674,-0.5376511440385551,-0.09293871481066728,-0.5686642859637902,-0.4245523376393524,-0.5670812808856698,0.6566257064858865,-0.5158902211904552,-0.5630316429606654,-0.7783189116451151,-0.42455233763935235,-0.027713353367086167,-0.7679271962151063,-0.47190672099025277,-0.7704515523621198,0.6764473725696498,-0.7595533498352594,-0.7366943423865936,2.151641475717918,-0.47190672099025277,0.06087386555812891,-0.6438218276398434,-0.40561115799333924,-0.6448297145641023,0.5892351873380693,-0.6049932131057216,-0.6157360777037126,4.839618706007806,-0.40561115799333936,-0.005624703812700292,-0.8185034879745604,-0.49151278188271486,-0.8462177203710028,0.7523348230835115,-0.7561144793009721,-0.7895555375771629,0.7018925336802391,-0.49151278188271486,-0.6600308042000943,-0.7712368211923452,0.1360420746205544,-0.1448303844272181,0.5827633898245101,-0.7412171387517154,-1.3503777776136907,0.1891335384665357,-0.6369123721605958,-0.5608246899886694,-0.513972243009004,-0.7741799908388644,-0.6887148535344788,still,Still_17-2026-03-04_16-56-11,2,2.163939453125,4.074927001953125
-0.022138252222357522,-0.6713948879219458,-0.3439569401109102,-0.6750811138060971,0.7524521756649935,-0.5650555412592476,-0.6710592515637802,1.4317665958836239,-0.34395694011091016,-0.04736455275270297,-0.8734577008494886,-0.5376512662329774,-0.8656457662360026,0.7393508309407557,-0.747712511560976,-0.7751037116080455,1.4910896787614076,-0.5376512662329775,-0.11471027411577826,-0.5677319762178292,-0.42455143595053535,-0.5651799844876502,0.6546976885486461,-0.5159751429238687,-0.562505543167207,-0.7783189116451151,-0.4245514359505353,-0.026800321249773804,-0.767961926950414,-0.4719067710234778,-0.770507739573874,0.6764473725696498,-0.7585877431198762,-0.7362043545016816,2.3052977287834278,-0.4719067710234777,0.05927217653699887,-0.6438658335790987,-0.4056112107291359,-0.6448422691433524,0.5890481717865562,-0.6049932131057216,-0.6156414141712453,0.628525581787425,-0.4056112107291361,-0.006432402274328328,-0.8182157061928819,-0.49151225224263595,-0.8459286573005597,0.7523348230835115,-0.7561144793009721,-0.7895555375771629,0.9274710977920462,-0.49151225224263595,-0.6585789498381194,-0.7711736882201643,-0.32086533331181305,-0.945052756450226,0.4734967165931176,-0.7225955267101615,-1.408898219703961,0.3370750541797167,-0.6351466202015119,-0.559571404392357,-0.513972243009004,-0.774112805316546,-0.6887377296206871,still,Still_17-2026-03-04_16-56-11,3,3.129083984375,5.040073486328125
-0.019703512323405756,-0.6709489115197222,-0.34395553557639835,-0.6753092091640126,0.7515166924271879,-0.5642375414845785,-0.6701518815245443,2.5116873181329464,-0.3439555355763983,-0.04926884511110912,-0.8736233353773329,-0.5376518538415526,-0.8663236144018094,0.7393508309407557,-0.747712511560976,-0.7751037116080455,1.6641808503185875,-0.5376518538415526,-0.14422136327351243,-0.5683220711020259,-0.4245520713902454,-0.5630486360566068,0.6541022991511961,-0.5165345008956417,-0.5627187080191194,-0.7783189116451151,-0.42455207139024537,-0.026709018038042563,-0.7680576500045533,-0.4719069052243132,-0.7706037640783674,0.6771550643005508,-0.7585877431198762,-0.7365718453686747,2.919922741045466,-0.4719069052243132,0.05814278044289228,-0.6437615143013642,-0.405611083914372,-0.6446819345626726,0.5890481717865562,-0.6051736066243253,-0.6157360777037126,0.628525581787425,-0.4056110839143721,-0.008146299079389002,-0.8182894589012089,-0.4915123926112338,-0.8458885375706959,0.7523348230835115,-0.7561144793009721,-0.7895555375771629,0.4763139695684319,-0.4915123926112338,-0.6567449059838234,-0.7710954033391648,0.168403948786437,-0.2518616885202901,0.6152803612854866,0.045261516124392935,-0.8512945985707256,-0.11396984777357805,-0.6327150454738465,-0.5603350291944892,-0.513972243009004,-0.7740368790334949,-0.688846181266941,still,Still_17-2026-03-04_16-56-11,4,4.094229736328125,6.005219482421875
-0.017996305610357373,-0.6711266930370164,-0.343956106709204,-0.6757972838228054,0.7515166924271879,-0.5642375414845785,-0.6701518815245443,2.5116873181329464,-0.343956106709204,-0.05084839580691651,-0.874096711508066,-0.537653441487009,-0.867099265589816,0.7407098231769509,-0.7481095940682542,-0.775972347373453,1.144907335647048,-0.537653441487009,-0.16026422361945275,-0.568619388706716,-0.42455230698707475,-0.5618359276120294,0.6535090446161275,-0.5174484838409222,-0.5631823794183417,-0.7783189116451151,-0.42455230698707463,-0.02640467396413727,-0.7677140563656903,-0.47190639829429587,-0.7702688594896178,0.6771550643005508,-0.7585877431198762,-0.7365718453686747,1.6906727165213895,-0.4719063982942958,0.05801957360835867,-0.6438689592597764,-0.4056112144327238,-0.6447741343890709,0.5890481717865562,-0.6051736066243253,-0.6157360777037126,2.5426588200694167,-0.40561121443272385,-0.007555300209056004,-0.8185280966687265,-0.4915128249170723,-0.8461674345394589,0.7523348230835115,-0.7561144793009721,-0.7895555375771629,-0.4260002868787969,-0.4915128249170723,-0.65589616403078,-0.7711004539783254,0.4124368305678637,-0.4700944909598169,-0.14939100809312683,-0.40743563566287366,-0.9116496397325031,-0.08170240543094708,-0.6313712556724317,-0.5607382300030604,-0.513972243009004,-0.7740291635066072,-0.6888231215929465,still,Still_17-2026-03-04_16-56-11,5,5.05937646484375,6.970364013671875
-0.015849386564959784,-0.6717824035647864,-0.3439580844106705,-0.6767323583598877,0.7533724927541993,-0.5646917819449779,-0.671212567467192,1.4317665958836239,-0.3439580844106705,-0.0500925709108762,-0.8743520972528588,-0.5376542415904517,-0.867045898952492,0.7407098231769509,-0.7485259440687629,-0.7762092511807763,1.8372720218757674,-0.5376542415904517,-0.1678947927907435,-0.5687615840224844,-0.4245523996322026,-0.5612519832785523,0.6532130103659213,-0.5177047837712847,-0.5632729943046637,-0.1323173956862967,-0.4245523996322026,-0.02619163312516378,-0.7676595045652034,-0.47190631137761047,-0.7702170840920834,0.6771550643005508,-0.7585877431198762,-0.7365718453686747,6.146704055421166,-0.4719063113776104,0.059292711065514224,-0.6439776335052201,-0.4056113397224892,-0.6449510321033153,0.5892351873380693,-0.6051736066243253,-0.6158307412361799,4.265378734523209,-0.4056113397224893,-0.004777605455417566,-0.8188509710731411,-0.4915133566173012,-0.846530716998617,0.7536372626126602,-0.7557786740183537,-0.7900747332686137,0.9274710977920462,-0.4915133566173013,-0.6554724981283719,-0.7712822769274641,-0.08865224880620243,-0.07128838939202406,-0.3311678513423747,-1.3418908701407803,-1.123340042304574,0.10613622665150767,-0.6307297321658885,-0.5609821862374443,0.1331930549149186,-0.7741833413506655,-0.6888623913294294,still,Still_17-2026-03-04_16-56-11,6,6.024522216796875,7.93550732421875
-0.0030409300264966706,-0.6642531529153115,-0.343923178401805,-0.6699016670495579,0.7501492881700731,-0.5505028649300506,-0.660891766799753,1.5860409847763843,-0.343923178401805,-0.036184117974374506,-0.8673626143050065,-0.5376180734142427,-0.8583198013795521,0.7383617856212654,-0.7405252523007653,-0.7705464100095429,1.6641808503185875,-0.5376180734142427,-0.10413780705434048,-0.5684698127575938,-0.42455219554499557,-0.5661779339044799,0.6563130677504925,-0.5158518529374069,-0.5629095976125804,-0.7783189116451151,-0.4245521955449955,-0.020713440235683972,-0.7679902827632482,-0.47190681134319284,-0.7703966194112728,0.6783345506685768,-0.7583463413490178,-0.7370618332068957,0.9223914511938416,-0.4719068113431928,0.070134913013227,-0.6429327625559731,-0.4056098551361838,-0.6432181223974517,0.5897962337074776,-0.6030088852261873,-0.6149787697326295,-1.0941943326663672,-0.4056098551361839,-0.005703503649062494,-0.818574730059995,-0.4915129054920571,-0.8462873885231412,0.752660433089908,-0.7547712576585163,-0.7890363420176432,0.13794612340072113,-0.49151290549205706,-0.6572421982643452,-0.7706837764179525,0.2371132870211523,-0.021451374041085176,0.20946783568774116,-0.35500117232304385,-1.238068956321372,-1.4616092922662043,-0.6347413940303412,-0.5592099426279004,-0.513972243009004,-0.7734499723941806,-0.6878172612236735,still,Still_18-2026-03-04_16-56-41,0,0.237799560546875,2.148784912109375
-0.019142952260520162,-0.6663428984003719,-0.343935545554324,-0.6714605043791037,0.7468530388895829,-0.560157737087066,-0.6656272162985418,1.4317665958836239,-0.34393554555432393,-0.03410068730071392,-0.8703288028732252,-0.5376370406900298,-0.8595349173546114,0.7401078606177786,-0.7425908679589727,-0.7725475031162018,1.6641808503185875,-0.5376370406900299,-0.08736004944393365,-0.5684504515023094,-0.4245521800714498,-0.5674505465198805,0.6575116743741238,-0.5155643468278985,-0.5630712914789447,-0.7783189116451151,-0.4245521800714497,-0.021200390733051567,-0.7677724449561704,-0.47190648937115215,-0.7702193389406301,0.6771550643005508,-0.7576221362204675,-0.7360818573903808,-0.30685857333023475,-0.4719064893711521,0.06019622776078033,-0.6433246332406574,-0.4056104851548219,-0.6443387841850687,0.5890481717865562,-0.604452032824946,-0.615357423718171,-1.0941943326663672,-0.40561048515482195,-0.004659405580732505,-0.8183384520946874,-0.49151248409187304,-0.8460308036217721,0.752660433089908,-0.7547712576585163,-0.7890363420176432,2.055363918351082,-0.49151248409187304,-0.6586778734103758,-0.7709792386596486,-0.9209035202550618,-0.9791895231124628,0.08842433862514906,-0.33380484752465994,-1.1397066269916947,-0.857791190263062,-0.636139361704837,-0.5597799075704888,2.5061324806359684,-0.7738339507450899,-0.6884439189913631,still,Still_18-2026-03-04_16-56-41,1,1.202943359375,3.113930908203125
-0.03488013627011783,-0.6695268442688119,-0.3439504309214423,-0.670169050751843,0.7468530388895829,-0.5629179431500033,-0.6673736821386711,-0.7280748486150214,-0.34395043092144223,-0.02959531348717647,-0.8703814575068669,-0.5376373291953057,-0.8580298994196658,0.7399744468463659,-0.7414296098482206,-0.7718236513205364,1.4910896787614076,-0.5376373291953058,-0.08549151552948511,-0.5683933576968955,-0.4245521330428759,-0.5675733224538073,0.6572493235081558,-0.5155643468278985,-0.5629915619130959,-0.7783189116451151,-0.42455213304287587,-0.02406122485143505,-0.7679161054069972,-0.47190670486229125,-0.7704614470492744,0.6771550643005508,-0.7576221362204675,-0.7360818573903808,-0.4605148263957443,-0.47190670486229125,0.05222885179043021,-0.6438529947918628,-0.40561119545792446,-0.6440298288805864,0.5890481717865562,-0.6051736066243253,-0.6157360777037126,-0.9027810088381681,-0.40561119545792457,-0.005920203247866636,-0.8184546755994048,-0.4915126954705195,-0.8461701067245381,0.7523348230835115,-0.7547712576585163,-0.7888632767431826,-0.20042172276698966,-0.49151269547051946,-0.6581736139631245,-0.7708782259014642,-0.016715206073193854,0.2926421001554317,-0.043138267620480356,-0.5942137120336916,-0.809156709921376,-0.9573191140034698,-0.6358072652313674,-0.5596466483835498,-0.513972243009004,-0.7737600147460528,-0.6886113088252738,still,Still_18-2026-03-04_16-56-41,2,2.168087890625,4.07907861328125
-0.039754407520595114,-0.6703749937261441,-0.34395359016006477,-0.6690051053987955,0.7491340988612422,-0.5680806243593609,-0.6715907379671193,2.6659617070257067,-0.3439535901600647,-0.030460948851348053,-0.8699182352355244,-0.537634733445167,-0.8580876974722835,0.7399744468463659,-0.7414296098482206,-0.7718236513205364,2.702727879661667,-0.537634733445167,-0.11041272712420562,-0.5678013839094392,-0.424551522275314,-0.5655235753132845,0.6554591227979746,-0.515576624668874,-0.5624561627398956,-0.7783189116451151,-0.42455152227531395,-0.02579598589752926,-0.7680038379627282,-0.47190683044936443,-0.7705607460246693,0.6771550643005508,-0.7576221362204675,-0.7360818573903808,1.844328969586899,-0.4719068304493644,0.050503955950420405,-0.6439257956552006,-0.40561128080222403,-0.6437750494951967,0.5890481717865562,-0.6058951803549458,-0.6161147316531722,5.796685325148801,-0.40561128080222414,-0.006570302066805174,-0.818625457572942,-0.4915129916916243,-0.8463209925444396,0.7523348230835115,-0.7547712576585163,-0.7888632767431826,1.7169960721833715,-0.4915129916916243,-0.65620638033639,-0.7707923650626863,0.007801927485277149,-0.4653615821950888,0.24066264232750242,0.11126502620920957,-0.7975965859051642,-0.6471539672920945,-0.6339150965311343,-0.5596394952169682,-0.513972243009004,-0.7736969870444083,-0.688545594935686,still,Still_18-2026-03-04_16-56-41,3,3.13323388671875,5.044227294921875
-0.03477025974987045,-0.6694132530360462,-0.34394998206333555,-0.6701372950374301,0.7491340988612422,-0.5654720249126708,-0.6699401982174253,1.7403153736691448,-0.34394998206333555,-0.03797639887235406,-0.8699864201673057,-0.537635123698519,-0.8605753709696585,0.7396879734740238,-0.743183337003638,-0.7726860457291805,2.0103631934329473,-0.537635123698519,-0.14066900202709717,-0.5682918126835448,-0.4245520442362408,-0.5633197581409012,0.6542759346248748,-0.5167329926580781,-0.5629113277297416,-0.7783189116451151,-0.4245520442362407,-0.029143770304473553,-0.7678962233125209,-0.4719066757679015,-0.7703660167475062,0.6771550643005508,-0.7576221362204675,-0.7360818573903808,2.7662664879799563,-0.47190667576790146,0.05157174864682753,-0.6436147911244229,-0.40561089500988934,-0.643753998754595,0.5883001098656347,-0.6058951803549458,-0.6157360776676307,2.9254854677258146,-0.40561089500988945,-0.005703503671589122,-0.8185671091998749,-0.49151289241168955,-0.8462799747901711,0.7523348230835115,-0.7547712576585163,-0.7888632767431826,2.280942482462889,-0.4915128924116895,-0.6549492189560621,-0.7707772131586805,-0.6209227678905442,-1.5087125432706792,0.42392646355508,-0.3542394098102869,-0.8712852445844059,-0.2923800724217283,-0.6320902099911653,-0.5604252293531194,-0.513972243009004,-0.7736864783846452,-0.6881892767813291,still,Still_18-2026-03-04_16-56-41,4,4.09838134765625,6.009375244140625
-0.026025940525146014,-0.6697388347818426,-0.3439512523398732,-0.6728825459800869,0.7507111688384339,-0.5633110305503642,-0.6692300047371461,1.7403153736691448,-0.3439512523398732,-0.04270260901037242,-0.8717813123382828,-0.5376443827956918,-0.863157703242872,0.7396879734740238,-0.743183337003638,-0.7726860457291805,1.6641808503185875,-0.5376443827956918,-0.15593860608804241,-0.5687481616477864,-0.4245523914410677,-0.5621883388288915,0.6536601454313369,-0.5172392489676323,-0.5630808792115468,4.3896932160254325,-0.42455239144106766,-0.029661155182551063,-0.7681079827787779,-0.47190697361223266,-0.7705395294125388,0.6771550643005508,-0.7585877431198762,-0.7365718453686747,0.30776643893180344,-0.47190697361223266,0.054877799073375165,-0.6434344792109202,-0.4056106459835535,-0.644081621069276,0.5883001098656347,-0.6049932131057216,-0.6152627601857037,-1.0941943326663672,-0.4056106459835536,-0.005526203990966301,-0.8186250984306312,-0.4915129910866544,-0.8463351135135817,0.752660433089908,-0.7561144793009721,-0.7897286028516235,4.649517405636865,-0.49151299108665447,-0.6548870043354734,-0.770966612077148,-0.6167756839507937,-0.5702894326239112,0.07005444069634435,-1.0900817746671259,-0.49773200641194265,-0.9352288390101532,-0.6313201134459686,-0.5608568991754331,2.93757601258525,-0.773895779606843,-0.6884836149420813,still,Still_18-2026-03-04_16-56-41,5,5.063530029296875,6.974522705078125
-0.02052712070037685,-0.6703889661995724,-0.3439536393666259,-0.6746856435628827,0.7522679404758561,-0.5633110305503642,-0.6698786798293099,1.7403153736691448,-0.3439536393666259,-0.04044289217215837,-0.8727152743495296,-0.5376484279812921,-0.8629705748162353,0.7427518948663824,-0.7442610206224091,-0.774748240430008,2.0103631934329473,-0.5376484279812922,-0.16416939064074004,-0.5685945441356351,-0.4245522894698062,-0.5615274108266701,0.6527082340162107,-0.5172392489676323,-0.5627915892045382,-0.7783189116451151,-0.42455228946980617,-0.025400338658294365,-0.7681448324962906,-0.4719070227290893,-0.7707012099180827,0.6773909616640706,-0.7585877431198762,-0.7366943423865936,1.0760477042593513,-0.4719070227290893,0.058615073448184826,-0.6436011982560743,-0.4056108768855466,-0.6445574275215069,0.5890481717865562,-0.6049932131057216,-0.6156414141712453,-1.0941943326663672,-0.4056108768855467,-0.005742903589770314,-0.8185011796191568,-0.49151277782775304,-0.8462159094725308,0.752660433089908,-0.7547712576585163,-0.7890363420176432,3.4088353030219256,-0.49151277782775304,-0.6546430537248387,-0.7711913654524135,-0.6984469352126567,-0.43361046619302646,0.1297616806730666,-1.0318856157731098,-0.5310140626860873,-1.390635414833753,-0.6307130181951809,-0.560665275328927,-0.513972243009004,-0.7741132260716062,-0.6888491823982155,still,Still_18-2026-03-04_16-56-41,6,6.02867822265625,7.9396689453125
-0.02110006070925236,-0.6708327622759491,-0.3439551543946613,-0.674909399962225,0.7526063194557004,-0.5654663206964908,-0.6713833927188672,2.0488641514546653,-0.34395515439466123,-0.07259533079518979,-0.8716063763945896,-0.5376435662960244,-0.8656675304998821,0.7335164182468299,-0.7498603963958477,-0.7735666485110617,2.356545536547307,-0.5376435662960244,-0.1305368738380628,-0.5677510573641068,-0.4245514599902193,-0.563986934949124,0.6539348310577302,-0.5161726115328905,-0.5624128377226486,-0.7783189116451151,-0.42455145999021926,-0.024274265771611254,-0.7678718936328035,-0.4719066398465986,-0.7704214942360136,0.6766832697533403,-0.7590705464775678,-0.7365718453686747,0.46142269199731295,-0.47190663984659853,0.05953912444498545,-0.6421557764737215,-0.4056083460370213,-0.6431849724256519,0.5883001098656347,-0.6030088852261873,-0.6142214617615464,0.43711225795922587,-0.4056083460370214,-0.003418307951531971,-0.8186379096521408,-0.49151301262015035,-0.846217720309553,0.7523348230835115,-0.7547712576585163,-0.7888632767431826,2.957678174798311,-0.49151301262015035,-0.657531158730055,-0.7706458966126978,-1.625888406726781,0.22534655892136177,0.08466898421392667,0.8885947111841417,-0.09692775262098985,-0.9032502733723329,-0.6338268023656964,-0.5594282263988397,-0.513972243009004,-0.7733761542644997,-0.6879788601776098,still,Still_3-2026-03-04_16-46-00,0,0.216269287109375,2.12724755859375
-0.02271198221285534,-0.6713825911363094,-0.3439569026408959,-0.6749242288883984,0.7526063194557004,-0.5654663206964908,-0.6713833927188672,2.0488641514546653,-0.3439569026408958,-0.06974528617492037,-0.8730869300723378,-0.5376498905784899,-0.8674530847564885,0.7349230093933368,-0.7498603963958477,-0.7742318542003118,2.356545536547307,-0.5376498905784898,-0.09433592289315132,-0.5676973423106003,-0.42455139172017214,-0.5666732781100041,0.6558713884444957,-0.5154028932190714,-0.5624590462684977,-0.7783189116451151,-0.42455139172017203,-0.02366557769340305,-0.7677962027156777,-0.4719065258514853,-0.7703351879975504,0.6766832697533403,-0.7571393330468014,-0.7355918695988507,0.46142269199731295,-0.4719065258514853,0.060689054934549624,-0.6422438636769978,-0.4056085344916722,-0.6432827248482359,0.5883001098656347,-0.604452032824946,-0.6149787697326295,0.43711225795922587,-0.4056085344916723,-0.003910807030166258,-0.8184820277182687,-0.49151274406403866,-0.846118864286153,0.7523348230835115,-0.7547712576585163,-0.7888632767431826,2.393731764518793,-0.49151274406403866,-0.6603743611756849,-0.7705474091885318,-1.6136065669484796,-0.44039439950461956,0.1268851922762965,1.1712246028051627,0.04962820361256742,-0.2833946676883533,-0.6369843248750213,-0.5593677579774262,-0.513972243009004,-0.7733517599088885,-0.6881168931157858,still,Still_3-2026-03-04_16-46-00,1,1.181409912109375,3.092389892578125
-0.023178766981908627,-0.6726253904238507,-0.34396032921013403,-0.6756354201456926,0.7529354185960011,-0.5669829317599044,-0.6724801273197041,2.0488641514546653,-0.34396032921013403,-0.06951059072315523,-0.8742587713250175,-0.5376539537932804,-0.868481190988089,0.7372708611770392,-0.7517119878883199,-0.7763957597556291,2.1834543649901272,-0.5376539537932805,-0.08325506716576417,-0.5683329316216017,-0.424552080993375,-0.5677197531633572,0.6570678602057457,-0.5154028932190714,-0.5628226592252262,-0.7783189116451151,-0.42455208099337494,-0.021809079020066895,-0.7676066352677052,-0.47190622545971983,-0.7700893777530153,0.6766832697533403,-0.7571393330468014,-0.7355918695988507,0.46142269199731295,-0.47190622545971983,0.05970340029741484,-0.6429082149777883,-0.4056098127449809,-0.6439233999071319,0.5883001098656347,-0.604452032824946,-0.6149787697326295,0.43711225795922587,-0.40560981274498104,-0.00408810671829803,-0.8183953449371171,-0.4915125885549305,-0.8460504404695283,0.7523348230835115,-0.7547712576585163,-0.7888632767431826,0.13794612340072113,-0.49151258855493046,-0.6614172542413423,-0.7707645865925432,-0.9708223482839685,0.11542698553686535,0.42952400721652234,0.6050959666989962,-0.3763445871168967,-0.023066650500283354,-0.6380651145282135,-0.5603071277774521,-0.513972243009004,-0.7735869596343573,-0.6883017725394951,still,Still_3-2026-03-04_16-46-00,2,2.146550537109375,4.0575341796875
-0.02007556204878632,-0.6735446890115737,-0.34396239540893053,-0.6771347835185499,0.7548103756120932,-0.5670666050930117,-0.673314326438456,2.0488641514546653,-0.34396239540893053,-0.07102583977441237,-0.8736375477067754,-0.5376519034865389,-0.8676554786948443,0.7349184169919665,-0.7509946168825387,-0.7748750556067016,2.1834543649901272,-0.5376519034865389,-0.1129921788520616,-0.56754061742125,-0.4245511819568511,-0.565247542706212,0.6543883707102897,-0.5155299688731673,-0.5620978843110811,-0.7783189116451151,-0.4245511819568511,-0.022174291785789092,-0.7676294263658787,-0.4719062627005464,-0.7701262025320582,0.6766832697533403,-0.7571393330468014,-0.7355918695988507,0.30776643893180344,-0.4719062627005464,0.058512400946493334,-0.6432482899816169,-0.40561036931027206,-0.644213927021766,0.5883001098656347,-0.604452032824946,-0.6149787697326295,0.43711225795922587,-0.4056103693102722,-0.005289804496897053,-0.8181353162247857,-0.49151209560527503,-0.8458553457979715,0.7523348230835115,-0.7547712576585163,-0.7888632767431826,0.13794612340072113,-0.49151209560527503,-0.6594994353297478,-0.7708731752902176,-0.9023681772288322,-0.591674693093453,0.243395474793815,0.2119407005941146,-1.0790381931859625,-0.7361092620180134,-0.6356307957937323,-0.5591561532049686,-0.513972243009004,-0.773683640158395,-0.6884102857097238,still,Still_3-2026-03-04_16-46-00,3,3.11169287109375,5.0226796875
-0.01666413051144859,-0.6733349672673167,-0.34396195911408134,-0.6778637621493075,0.7563294308813469,-0.5649631081262025,-0.6726163397495756,2.0488641514546653,-0.3439619591140813,-0.07013132469480336,-0.8731552535184656,-0.5376501503412312,-0.867440083886277,0.7349184169919665,-0.7495945120476742,-0.7740783937461854,2.1834543649901272,-0.5376501503412312,-0.14657815445665295,-0.568234224019049,-0.424551990934463,-0.5628511693815652,0.6534929145448022,-0.5170530350461714,-0.5628988564685374,-0.7783189116451151,-0.4245519909344629,-0.023543839868954267,-0.7679233654508593,-0.47190671542789253,-0.7704571131880326,0.6773909616640706,-0.7583463413490178,-0.7365718453686747,5.839391549290148,-0.4719067154278925,0.06109974475346952,-0.6433657059216358,-0.4056105460989776,-0.6443814644141643,0.5883001098656347,-0.6049932131057216,-0.6152627601857037,0.628525581787425,-0.40561054609897773,-0.00659000208972113,-0.818395695457121,-0.49151258919264484,-0.8460979139712949,0.7523348230835115,-0.7551070631971258,-0.7890363420176432,4.987885251804576,-0.49151258919264484,-0.6573040969290791,-0.7711181312009491,-0.45626113525580525,-1.1422484954276322,-0.2254839785242265,-0.08405447603056344,-1.2723731023929652,-0.891258782827486,-0.6327021988428129,-0.5602581025478586,-0.513972243009004,-0.7739843726543951,-0.6884238159188208,still,Still_3-2026-03-04_16-46-00,4,4.076837158203125,5.98782470703125
-0.014747917232043205,-0.6733603035441558,-0.34396201292342854,-0.6782707771192557,0.7562730500954954,-0.5649631081262025,-0.672592847022332,5.597175095988153,-0.3439620129234286,-0.07224168774700858,-0.8736411985901427,-0.5376519162196401,-0.8673795791990832,0.7355107948963204,-0.7495945120476742,-0.7743585413591864,2.356545536547307,-0.5376519162196403,-0.1631682890648546,-0.5686731106580979,-0.42455234351219906,-0.5616141209052641,0.6531971175015272,-0.5176952684445287,-0.5632614601902551,-0.7783189116451151,-0.424552343512199,-0.026191632997559406,-0.7677592665158539,-0.4719064689913401,-0.7703158133866735,0.6764473725696498,-0.7583463413490178,-0.7360818574837626,0.30776643893180344,-0.47190646899134003,0.06471381220764938,-0.6438401234446391,-0.4056111800532737,-0.6446461085805187,0.5899832492589907,-0.6042716391688248,-0.6157360776315487,0.628525581787425,-0.4056111800532738,-0.008303898857237509,-0.8187077900105956,-0.49151312838140293,-0.8462596858388695,0.7523348230835115,-0.7564502848395815,-0.7897286028516235,1.4914175080715641,-0.49151312838140293,-0.6562109244784909,-0.7711989414015288,-0.5399746996466886,-0.24736463896242386,0.4565451437763699,-0.03639860324645314,-1.4044914350940458,-0.7423353418077671,-0.6312314978504026,-0.5608793366258968,-0.513972243009004,-0.7740844563564679,-0.6885299759301309,still,Still_3-2026-03-04_16-46-00,5,5.041982421875,6.95296875
-0.014226847494318646,-0.6733705733515014,-0.3439620346483319,-0.6783687677715764,0.7562730500954954,-0.565615333860158,-0.6730055299664431,6.677095818237476,-0.3439620346483319,-0.07648753288215059,-0.8740009135369682,-0.5376531311592541,-0.8664650930778168,0.7342385735097483,-0.7523092512586006,-0.7753015727696217,2.1834543649901272,-0.5376531311592541,-0.1712295567211298,-0.5687366971347692,-0.4245523843532869,-0.5609880993226114,0.6523023729568335,-0.517968143460208,-0.5631818027126213,5.03569473198425,-0.42455238435328685,-0.024639478374927748,-0.7676529817126246,-0.4719063008668526,-0.7702097684881258,0.6764473725696498,-0.7573807346336344,-0.7355918695988507,5.378422790093619,-0.47190630086685253,0.06354334718956993,-0.643717612925596,-0.405611028683743,-0.644631001573446,0.5884871252745821,-0.6042716391688248,-0.6149787695883017,0.43711225795922587,-0.4056110286837431,-0.007062801190492668,-0.8185429207289882,-0.4915128506690421,-0.8462168147892748,0.7523348230835115,-0.7551070631971258,-0.7890363420176432,-0.4260002868787969,-0.49151285066904216,-0.6554971967715183,-0.7711459097057439,-0.7175068540136205,0.072698117347898,-0.011714863547633852,-0.06057043546913856,-1.1186480657446698,-0.8708165538934366,-0.6304653421763692,-0.5609432548663233,5.310515438306299,-0.7740371073063329,-0.6884441437943957,still,Still_3-2026-03-04_16-46-00,6,6.007127685546875,7.91811181640625
-0.0291864507446076,-0.6702878266197724,-0.34395328110779183,-0.6723735387722886,0.7485728989937508,-0.5643779155542125,-0.6690140815666578,2.0488641514546653,-0.34395328110779183,-0.01316705818264256,-0.866129157353589,-0.5376086155128201,-0.8501680238627496,0.7391818898994126,-0.7361691675541413,-0.768455634981983,2.1834543649901272,-0.5376086155128202,-0.11227850664224873,-0.5683964495646733,-0.42455213564318606,-0.5655360079185422,0.6556469906875285,-0.516385529758473,-0.5630831860344285,-0.7783189116451151,-0.42455213564318595,-0.026252501840181467,-0.7675190835718245,-0.4719060795385758,-0.7700775662085754,0.6766832697533403,-0.7573807346336344,-0.7357143665233876,0.46142269199731295,-0.4719060795385758,0.056500022669981866,-0.6418130849485658,-0.405607570629293,-0.642736071772828,0.5858689084087914,-0.6039108524066528,-0.6134641536461355,0.43711225795922587,-0.40560757062929315,-0.006077802965644413,-0.8184637778127868,-0.4915127116901761,-0.8461772444696369,0.7523348230835115,-0.7547712576585163,-0.7888632767431826,0.9274710977920462,-0.4915127116901761,-0.6552458867304604,-0.7703479090225449,-1.4392021655787588,0.09222175158775267,-0.4613427781425259,0.9507468806058393,-0.6425453207183457,0.2558136636428093,-0.6331306916293366,-0.5587805039668358,3.153297778559891,-0.7730761685074758,-0.6874688845213739,still,Still_4-2026-03-04_16-46-34,0,0.22101904296875,2.132011962890625
-0.03098399458024049,-0.6712668942338844,-0.3439565466063462,-0.6724011698012229,0.7485728989937508,-0.5657166612940061,-0.6698611464777029,2.0488641514546653,-0.3439565466063463,-0.013903059344742617,-0.8727863164559971,-0.5376487140322712,-0.8530864958116942,0.7451529647205681,-0.7391892152630463,-0.7729978901637069,2.1834543649901272,-0.5376487140322712,-0.09844187731122858,-0.5685669873587494,-0.4245522695773932,-0.5666369955208647,0.6568726389013229,-0.5158701673835286,-0.5630925575023854,-0.7783189116451151,-0.42455226957739317,-0.026100329820629434,-0.7677983618882842,-0.4719065291503492,-0.770355303177124,0.6766832697533403,-0.7583463413490178,-0.7362043544082997,0.46142269199731295,-0.4719065291503492,0.05953912481285083,-0.6421105937678493,-0.405608247649334,-0.6431408087274478,0.5881130944566871,-0.6039108524066528,-0.614600115747088,0.43711225795922587,-0.40560824764933406,-0.006984001271532835,-0.818335876410137,-0.4915124793176121,-0.8460223046353098,0.7523348230835115,-0.7547712576585163,-0.7888632767431826,1.0402603798479497,-0.49151247931761205,-0.656352579954651,-0.770512054740397,-1.2757804414972227,0.21120802230121963,-0.21299363290405518,0.4768833892326805,-1.0583223339707568,-0.0800682505214375,-0.634378633678695,-0.5600540516551326,3.153297778559891,-0.7732309653506824,-0.688167420741316,still,Still_4-2026-03-04_16-46-34,1,1.18616650390625,3.097161376953125
-0.030815563590891437,-0.6716939728131177,-0.34395782951565473,-0.6726887830864354,0.7521199710253421,-0.5667871674749941,-0.6720164809123964,2.0488641514546653,-0.34395782951565473,-0.01755697611425813,-0.8721383392333673,-0.53764599160639,-0.854309454597312,0.7445808937580896,-0.7414251463854812,-0.7739995944555261,2.356545536547307,-0.5376459916063902,-0.09679414067333889,-0.5684682128980064,-0.4245521942754932,-0.5667398295890991,0.6568709784528041,-0.5158701673835286,-0.5630920528848801,-0.5629850729921756,-0.42455219427549307,-0.02357427426126429,-0.7679371195139026,-0.47190673535869715,-0.7704713818344958,0.6766832697533403,-0.7583463413490178,-0.7362043544082997,0.6150789450628226,-0.47190673535869704,0.05740353954526723,-0.6431189780585733,-0.40561016547907497,-0.6440281870354455,0.5881130944566871,-0.6039108524066528,-0.614600115747088,0.628525581787425,-0.4056101654790751,-0.005723203619416552,-0.8183514332742523,-0.49151250809438196,-0.8460702033773402,0.7523348230835115,-0.7547712576585163,-0.7888632767431826,-0.4260002868787969,-0.491512508094382,-0.6568088699710657,-0.7709287323036575,-1.6370484655809452,0.3670003140636961,-0.014447231760263914,0.3721667828004263,-0.7101345098795111,-0.8066137322439257,-0.6347543089762588,-0.5598824264826727,3.3690195445345315,-0.7737753733521716,-0.6884394139790536,still,Still_4-2026-03-04_16-46-34,2,2.15131494140625,4.06231298828125
-0.027900348745677508,-0.670761698513752,-0.3439549180402219,-0.6730549400916929,0.7514745194317893,-0.5663919177145699,-0.671497447880261,2.0488641514546653,-0.3439549180402218,-0.02535938076928366,-0.8710840809727204,-0.5376410181122616,-0.856845690945133,0.7439745127744835,-0.7414251463854812,-0.7737128245002697,2.356545536547307,-0.5376410181122616,-0.11767052114668498,-0.567751330580869,-0.42455146033274094,-0.5649628872712787,0.6532995908958293,-0.5161267742599155,-0.5621874899623922,-0.7783189116451151,-0.4245514603327408,-0.024182962385873894,-0.7681514968257817,-0.4719070315260692,-0.7706957219082242,0.6776268588477613,-0.7583463413490178,-0.7366943422932118,-0.30685857333023475,-0.4719070315260693,0.05929271112812956,-0.6439135289272762,-0.4056112666344839,-0.6448891670520975,0.5888611563776086,-0.6049932131057216,-0.6155467507109419,-1.0941943326663672,-0.40561126663448405,-0.0037926072530962236,-0.818816431258732,-0.4915133026607841,-0.8464233340175628,0.752660433089908,-0.7561144793009721,-0.7897286028516235,-0.20042172276698966,-0.4915133026607841,-0.6561745758585542,-0.7713984415675158,-2.175772220564077,-0.1535599970330782,0.2901836575778302,-0.7587728837418801,-0.31140687995730226,-0.901227054955665,-0.6337369777312808,-0.5592662131819727,3.3690195445345315,-0.774337655832937,-0.6888980651653019,still,Still_4-2026-03-04_16-46-34,3,3.116464599609375,5.02746484375
-0.02533548856096497,-0.6703750799340656,-0.3439535904639435,-0.6735166971688477,0.7512300176549147,-0.5636148955947439,-0.6696384630927431,2.0488641514546653,-0.34395359046394347,-0.0330992690633392,-0.8722779676787328,-0.5376465997651094,-0.8601849908620567,0.743267581083258,-0.7439500585356721,-0.7748151810591448,2.1834543649901272,-0.5376465997651095,-0.14925222780220138,-0.5679833635513899,-0.424551733946726,-0.5625994097295794,0.6532995908958293,-0.5163835857669852,-0.5623684313821758,-0.7783189116451151,-0.424551733946726,-0.023635143057484632,-0.7677300185243578,-0.4719064233932664,-0.7702694340066167,0.6776268588477613,-0.7564151279182512,-0.7357143665233877,0.6150789450628226,-0.4719064233932663,0.06241395113459782,-0.6436515343865639,-0.40561094347297616,-0.6446294445294668,0.5892351873380693,-0.6049932131057216,-0.6157360777037126,0.628525581787425,-0.4056109434729763,-0.005151904711928754,-0.8185269702232353,-0.4915128229549678,-0.8462322480532674,0.7523348230835115,-0.7547712576585163,-0.7888632767431826,-0.08763244071108607,-0.4915128229549678,-0.6548097358625035,-0.771143384383276,-2.036560105129676,0.23611723579867083,-0.06872920991761784,-0.16047366365042134,-0.4022969494021134,-0.9455457171766847,-0.6316918839926461,-0.559561384973913,3.3690195445345315,-0.7740271433946285,-0.6886067234383871,still,Still_4-2026-03-04_16-46-34,4,4.08161572265625,5.99261669921875
-0.026994479397528404,-0.6712800689971241,-0.3439565874674287,-0.6736517525912306,0.7512300176549147,-0.5636148955947439,-0.6696384630927431,2.0488641514546653,-0.3439565874674287,-0.03523253444390055,-0.8735435836894074,-0.5376515729894323,-0.8615180603715477,0.743267581083258,-0.7452810399886456,-0.7755725116062828,2.1834543649901272,-0.5376515729894324,-0.16581534502213213,-0.5685929495764662,-0.42455228833201075,-0.5613983336800553,0.6532988792750356,-0.5176669270949437,-0.5632724175989432,2.667022506801916,-0.4245522883320107,-0.022539504470308336,-0.767448175334772,-0.4719059580292734,-0.769963080102746,0.6766832697533403,-0.7564151279182512,-0.7352243786384758,0.46142269199731295,-0.4719059580292733,0.06224967531347612,-0.6431219766805444,-0.4056101703141316,-0.6441216278743851,0.5884871252745821,-0.6035500656444805,-0.6146001157470878,0.628525581787425,-0.4056101703141317,-0.005959603181065519,-0.818409531180919,-0.4915126143069022,-0.8461258802379649,0.7523348230835115,-0.7547712576585163,-0.7888632767431826,0.2507354054566247,-0.4915126143069021,-0.6538497662812348,-0.7708277195531735,-1.3370048274849626,0.19739348379615312,-0.18305457866465344,0.23931583892484243,-0.722877240062553,-0.42170447362299024,-0.6304030564485359,-0.5605408390556028,2.93757601258525,-0.7736580287872922,-0.6883229751685863,still,Still_4-2026-03-04_16-46-34,5,5.04676806640625,6.957767333984375
-0.026640947785071766,-0.6720678958281782,-0.34395888216173115,-0.674239958011617,0.7536577535554358,-0.5652601894987406,-0.6716910784906973,0.043297095848780554,-0.34395888216173115,-0.0352070224906579,-0.8729749091947084,-0.5376494585548148,-0.8612619489480605,0.7404681409040916,-0.7444102304663172,-0.7737531071617542,2.1834543649901272,-0.5376494585548148,-0.15953868320159884,-0.5672233961645531,-0.4245507091932432,-0.5616429477370384,0.6515527990540678,-0.5117389808413154,-0.5585651292441829,3.5283578614136744,-0.4245507091932432,-0.022722111009774604,-0.7677458482779582,-0.4719064481350028,-0.7702591103760804,0.6766832697533403,-0.7573807346336344,-0.7357143665233876,0.6150789450628226,-0.4719064481350028,0.061243486022595446,-0.643141427524246,-0.4056102015522092,-0.64416049709209,0.5884871252745821,-0.6035500656444805,-0.6146001157470878,0.628525581787425,-0.40561020155220934,-0.0050928048158848,-0.8188473495196128,-0.4915133509927363,-0.8465408852411455,0.752660433089908,-0.7561144793009721,-0.7897286028516235,3.4088353030219256,-0.4915133509927363,-0.654137213097537,-0.7710575235531613,-0.5507718870341763,0.3839512380540333,0.11198853533086006,0.2178961904651027,-0.6769525519547445,0.3141597898557891,-0.6307227343568577,-0.5601753661002639,-0.513972243009004,-0.773904948249431,-0.6883800438325647,still,Still_4-2026-03-04_16-46-34,6,6.011919921875,7.922917236328125
-0.020713984675319878,-0.6698457587828163,-0.3439516586112897,-0.6742079402896854,0.7528210964192282,-0.5620168977129313,-0.6692903316865586,1.894589762561905,-0.34395165861128973,-0.08682522494440204,-0.8673283506315662,-0.5376178231450954,-0.8589588466125258,0.7264612665957169,-0.7490084029227367,-0.7697453375307473,2.1834543649901272,-0.5376178231450954,-0.12939185504999368,-0.568062735000566,-0.42455181961955674,-0.5641477223382065,0.6530422213754177,-0.5163778561078634,-0.5622861787288,-0.7783189116451151,-0.4245518196195567,-0.029417680287679174,-0.7673889932884941,-0.47190585433407006,-0.769866806110855,0.6762114750263005,-0.7568979314599682,-0.7352243786384758,0.46142269199731295,-0.47190585433407,0.05278328296457182,-0.6416437744770902,-0.405607162720791,-0.642289663580007,0.5862429397969493,-0.6035500656444805,-0.6134641539347911,0.43711225795922587,-0.4056071627207911,-0.00532920440006041,-0.8186225760101075,-0.49151298683554157,-0.8463294565782276,0.7523348230835115,-0.7551070631971258,-0.7890363420176432,0.4763139695684319,-0.4915129868355416,-0.6563575882100913,-0.770062548005267,-1.0376894866449342,-0.7970773041768194,0.4630541409047538,0.7915239574887996,-0.1379776265068223,0.0033999378610453917,-0.6333097716045099,-0.5592273139296626,-0.513972243009004,-0.772846416074769,-0.6870226041693458,still,Still_5-2026-03-04_16-47-02,0,0.229837158203125,2.140827880859375
-0.035053578340551964,-0.6716960912190644,-0.3439578356648934,-0.6712547245108785,0.7486181617777109,-0.5657175441714801,-0.6698805651828618,-0.7280748486150214,-0.34395783566489335,-0.07551562957602662,-0.8724781241984383,-0.5376474509366479,-0.8656868319524367,0.7337267604912803,-0.7506479157231848,-0.7741142233956899,2.356545536547307,-0.5376474509366479,-0.11148601008824513,-0.5684995712418658,-0.42455221885950667,-0.5656181981316819,0.6556486511360473,-0.5162521105532065,-0.5629896876195045,-0.5629850729921756,-0.4245522188595066,-0.030026368377487563,-0.7677529143656432,-0.4719064591313104,-0.7701845969633642,0.676919166937031,-0.7588291448907346,-0.7365718453686747,1.3833602103903704,-0.4719064591313104,0.054282299476183564,-0.6434412920747355,-0.4056106557310027,-0.6440150850131353,0.5884871252745821,-0.6049932131057216,-0.6153574236460072,0.43711225795922587,-0.4056106557310028,-0.005624703857753331,-0.8187521964773835,-0.4915132004541663,-0.8464596360929285,0.7523348230835115,-0.7551070631971258,-0.7890363420176432,3.6344138671337327,-0.4915132004541663,-0.6579568419546812,-0.7708504474197705,-1.0874280739499453,-1.0752294241978444,0.6905240109268157,-0.6237507556408995,-0.1065812306437044,-1.1784452683604563,-0.6350323314806076,-0.5606288273450587,-0.29825047703436314,-0.7737442596333524,-0.6884716874345082,still,Still_5-2026-03-04_16-47-02,1,1.19498388671875,3.1059755859375
-0.04285975863531692,-0.6720572081827411,-0.3439588529894285,-0.6686000715745178,0.7478126015304486,-0.5685934244272189,-0.6713645610045711,1.894589762561905,-0.3439588529894285,-0.06975252280978744,-0.8717797496092101,-0.5376443755839235,-0.8663175183483653,0.7356803946910128,-0.7487898505921887,-0.7739808949289572,2.1834543649901272,-0.5376443755839235,-0.10617018704908261,-0.5687171459349889,-0.424552372071658,-0.5660701601592047,0.6556486511360473,-0.5162521105532065,-0.5629896876195045,3.3130240227607346,-0.4245523720716579,-0.03136548221914785,-0.767630395092604,-0.4719062642766368,-0.7699889421903375,0.676919166937031,-0.7578635381753515,-0.7360818574837626,1.5370164634558798,-0.4719062642766368,0.05305023108388536,-0.6435208649592259,-0.4056107676119292,-0.6439123340646071,0.5877390636387921,-0.6049932131057216,-0.6149787698047934,0.43711225795922587,-0.4056107676119294,-0.006846101554144373,-0.8188011362444886,-0.4915132785439248,-0.8464774762827003,0.752660433089908,-0.7561144793009721,-0.7897286028516235,3.4088353030219256,-0.49151327854392474,-0.6577966425806465,-0.7707090295771781,-0.28650105737790865,0.07639493890244789,0.02871605367040159,-0.047240855457243526,-0.49860223832322187,-1.4105769117807003,-0.6351391137785106,-0.5606712142739809,3.5847413105091723,-0.7736005937286345,-0.6884835128796145,still,Still_5-2026-03-04_16-47-02,2,2.160130859375,4.071124755859375
-0.03942207431585239,-0.6720883130196621,-0.3439589377414986,-0.6698705819586397,0.7478126015304486,-0.5685934244272189,-0.6713645610045711,-0.7280748486150214,-0.3439589377414986,-0.07359497377801417,-0.8709535520791494,-0.5376403554498113,-0.8649269263776033,0.7330954565743354,-0.7487898505921887,-0.7727584248843791,2.356545536547307,-0.5376403554498113,-0.11270657224831619,-0.5684844255472397,-0.4245522070644351,-0.565520948484256,0.6553919932364294,-0.5162509850844504,-0.5629108952004513,-0.7783189116451151,-0.424552207064435,-0.030665490662399607,-0.7676844719812719,-0.47190635137662446,-0.7700834658043433,0.676919166937031,-0.7578635381753515,-0.7360818574837626,1.5370164634558798,-0.4719063513766244,0.053707334243141815,-0.6435339064530491,-0.4056107856028267,-0.6440150850330658,0.5877390636387921,-0.6057147869051009,-0.6153574237903349,-1.0941943326663672,-0.4056107856028268,-0.0067673016727289,-0.8184881819771627,-0.49151275493712254,-0.8461799255833461,0.752660433089908,-0.7547712576585163,-0.7890363420176432,2.280942482462889,-0.49151275493712254,-0.6573872647632607,-0.7707469093631818,-0.6969773832068478,-0.5188924231042376,0.01734573377037104,-0.5217880495306226,-1.3200580719277968,-0.6929272425109169,-0.6346914479183272,-0.5605576019566052,8.114898395976631,-0.773655651997114,-0.6883651716820135,still,Still_5-2026-03-04_16-47-02,3,3.125278564453125,5.03627490234375
-0.03377807566708928,-0.6725064928887824,-0.34396003288649935,-0.6720688457561208,0.7482834591225616,-0.5673250778197606,-0.6707582365394128,2.9745104848112276,-0.3439600328864994,-0.07987105107043016,-0.8707765120372702,-0.5376394401524215,-0.8633012250687633,0.7329170175717661,-0.7518867878924774,-0.7744361996457112,2.0103631934329473,-0.5376394401524216,-0.12799703681144964,-0.5683397735182042,-0.4245520870043216,-0.5643108967026162,0.6548001619429483,-0.5162509850844504,-0.5627310351038936,-0.7783189116451151,-0.4245520870043215,-0.02655684591408678,-0.7678723568866546,-0.47190664053383924,-0.7704233240806985,0.6773909616640706,-0.7583463413490178,-0.7365718453686747,-0.4605148263957443,-0.47190664053383913,0.058964159548501434,-0.6434289669244186,-0.4056106380774504,-0.6444078009445259,0.5884871252745821,-0.6042716391688248,-0.6149787695883017,0.628525581787425,-0.40561063807745046,-0.005171604674773709,-0.8185461683680406,-0.49151285629353203,-0.8462514270075008,0.7523348230835115,-0.7547712576585163,-0.7888632767431826,0.4763139695684319,-0.49151285629353203,-0.656570711868971,-0.7710752007834853,-0.3603034930920082,-0.9026442620315048,0.10363782280033328,-0.5129301854944895,-1.0408738770736234,-0.4792703918677772,-0.6335900221481413,-0.560375943233752,-0.513972243009004,-0.7739913967478292,-0.6885735241512747,still,Still_5-2026-03-04_16-47-02,4,4.090427734375,6.00142529296875
-0.028318154167706316,-0.6722082762185351,-0.34395926033693003,-0.6737848000257611,0.7521476377252914,-0.5670783515019047,-0.6722122500025558,1.894589762561905,-0.34395926033693003,-0.07990254467347933,-0.8711085047592544,-0.5376411409582533,-0.8635288254534472,0.7329170175717661,-0.7514058000303421,-0.7741625167931185,2.1834543649901272,-0.5376411409582533,-0.14703935383124458,-0.5683641203902007,-0.42455210815087185,-0.5628358422329556,0.6536129412520172,-0.5171489045211214,-0.5630028797628592,-0.7783189116451151,-0.42455210815087185,-0.02409165910454037,-0.767857752470018,-0.47190661880691365,-0.770404479834616,0.6766832697533403,-0.7583463413490178,-0.7362043544082997,0.6150789450628226,-0.4719066188069136,0.06019622797210737,-0.6433190004899351,-0.40561047672158274,-0.6443332694356279,0.5884871252745821,-0.6042716391688248,-0.6149787695883017,0.628525581787425,-0.40561047672158285,-0.005230704585835277,-0.8188544393383159,-0.4915133619965808,-0.8465521166609086,0.7523348230835115,-0.7561144793009721,-0.7895555375771629,4.536728123580962,-0.49151336199658086,-0.6556913796659876,-0.7711459096999687,-0.3634009974700357,-1.1371211307795064,-0.062412432881675445,-0.529655112740971,-0.7536871447105551,-0.22582261253287558,-0.6321619798371277,-0.5604613946826212,-0.513972243009004,-0.7740393589941287,-0.6885085654079178,still,Still_5-2026-03-04_16-47-02,5,5.055577880859375,6.966574951171875
-0.024262903174334657,-0.6726109069971653,-0.3439602934700691,-0.6752999386125068,0.753587447773339,-0.5670068177340657,-0.6727669280002794,1.894589762561905,-0.3439602934700691,-0.07574475246785055,-0.8721600537154983,-0.5376460869612188,-0.8653919563349949,0.7350717272376349,-0.7488153843832075,-0.7737075724228181,2.1834543649901272,-0.537646086961219,-0.15874881952651218,-0.5685805706469879,-0.42455227944359974,-0.56195019215266,0.6536129412520172,-0.5174024419372644,-0.5631815143597612,3.959025538719553,-0.42455227944359963,-0.02524816645313597,-0.7676995006228762,-0.4719063752752272,-0.7702596828387467,0.6766832697533403,-0.7583463413490178,-0.7362043544082997,-0.7678273325267634,-0.4719063752752272,0.060524779567389476,-0.6433010566037376,-0.4056104497352847,-0.644318620979203,0.5877390636387921,-0.6049932131057216,-0.6149787698047934,0.628525581787425,-0.40561044973528476,-0.004994305031695117,-0.8189227507775504,-0.49151346650864797,-0.8466100712159478,0.7536372626126602,-0.7561144793009721,-0.7902477984111431,2.8448888927424076,-0.491513466508648,-0.6555222417318117,-0.7710752007844478,-0.7025830031453159,-0.05776707324936968,-0.453554569059907,-0.7662270037063105,-1.1118299722402551,0.03388605605945564,-0.6313808668897372,-0.5607268148889705,5.741958970255581,-0.7739816215166448,-0.6885060969362119,still,Still_5-2026-03-04_16-47-02,6,6.020728271484375,7.931723876953125
-0.0023674145094483867,-0.6726165162941516,-0.3439603073235966,-0.6773219100646314,0.7587640742922283,-0.5632288574192149,-0.6725334932994057,2.0488641514546653,-0.34396030732359656,-0.07723636618027103,-0.8729659795849863,-0.537649423789105,-0.8655631838475807,0.7313546575021396,-0.7507118296078219,-0.773028774532276,2.1834543649901272,-0.537649423789105,-0.13241938226368594,-0.5679803587589172,-0.4245517306240432,-0.5638969981061179,0.6530982022111939,-0.5166943174590054,-0.5625261603967123,-0.7783189116451151,-0.4245517306240431,-0.01986127716980067,-0.7674179029903249,-0.47190590524708126,-0.7698104754845515,0.6766832697533403,-0.7561737263314181,-0.7351018817139388,0.46142269199731295,-0.47190590524708126,0.06208539953931592,-0.6430895103248361,-0.40561011769071903,-0.6440946133305437,0.5884871252745821,-0.602106918045722,-0.6138428077760049,1.2027655532720225,-0.40561011769071914,-0.007043101205121227,-0.8185350900288443,-0.49151283708182575,-0.8462104836291423,0.7523348230835115,-0.7551070631971258,-0.7890363420176432,0.5891032516243355,-0.49151283708182575,-0.6578439968558664,-0.770895903177028,-0.3180320146587437,-0.28916601780351076,-0.20233759080902564,1.229175164503582,-0.1172216691861355,-0.5349156285455272,-0.6338149057071923,-0.5598155588644862,-0.513972243009004,-0.7737475893505337,-0.6877730676856378,still,Still_7-2026-03-04_16-48-22,0,0.240842529296875,2.15179638671875
-0.004440079660326775,-0.6728548205570747,-0.34396088217525256,-0.677890655582194,0.7585851126913643,-0.5632288574192149,-0.672458923638613,2.203138540347426,-0.34396088217525256,-0.07530927946446374,-0.872746547632921,-0.5376485542802226,-0.8659378438168408,0.73375382776408,-0.7511509856187494,-0.774413271626431,2.529636708104487,-0.5376485542802226,-0.10756374960691235,-0.5684811942120278,-0.42455220452892223,-0.56591693128096,0.6555186617377196,-0.516181819913622,-0.5629006586739138,-0.7783189116451151,-0.42455220452892223,-0.02083517809493376,-0.767844148473099,-0.4719065984546615,-0.770267136441614,0.6776268588477613,-0.7571393330468014,-0.7360818574837626,0.30776643893180344,-0.47190659845466143,0.06208539955496965,-0.6437441595664053,-0.4056110622129039,-0.6447313451834592,0.5899832492589907,-0.6049932131057216,-0.6161147316892541,0.43711225795922587,-0.405611062212904,-0.006708201844264782,-0.818478959979524,-0.49151273863578543,-0.8461736734827761,0.7523348230835115,-0.7551070631971258,-0.7890363420176432,1.9425746362951786,-0.4915127386357854,-0.6596833272785858,-0.7711610616386263,-0.21098882933398763,-0.6023033175096036,0.5060218235009695,0.09056709781745917,-0.43400724857171663,-1.2767383598695512,-0.6360382384835527,-0.5605605744808736,-0.513972243009004,-0.7740504028983889,-0.6886454008931352,still,Still_7-2026-03-04_16-48-22,1,1.205970458984375,3.1169267578125
-0.006720553027976877,-0.6728484349923518,-0.34396086712063645,-0.6781646902630742,0.7568474260782758,-0.5656500937119587,-0.6732668543707258,1.7403153736691448,-0.34396086712063645,-0.07202359362591942,-0.8718481400096069,-0.5376446898100088,-0.8659811143152205,0.73375382776408,-0.750310192956868,-0.773934859274982,2.356545536547307,-0.5376446898100088,-0.1009383731002857,-0.5686675034576818,-0.4245523397863818,-0.5664658933098913,0.6570374977185451,-0.516181819913622,-0.5633622395148995,-0.7783189116451151,-0.4245523397863817,-0.02284384875302072,-0.7678288738046891,-0.47190657547236703,-0.7703440429444373,0.6771550643005508,-0.7581049397621845,-0.7363268514262187,2.7662664879799563,-0.471906575472367,0.060791727671048776,-0.6437963075699935,-0.40561112690281476,-0.6448048305940098,0.5884871252745821,-0.6049932131057216,-0.6153574236460072,2.3512454962412175,-0.40561112690281487,-0.005624703857753395,-0.8185598877305332,-0.4915128799853774,-0.8462725803223752,0.7523348230835115,-0.7551070631971258,-0.7890363420176432,1.1530496619038535,-0.49151287998537735,-0.6601556393824894,-0.77123682119042,-0.530615877465331,-0.0851021833612368,0.2544672214307535,-0.4412608915561751,-0.7638344699579462,-0.9823418791416016,-0.6366182664189275,-0.560879035242173,-0.513972243009004,-0.774138315126749,-0.6887011173924827,still,Still_7-2026-03-04_16-48-22,2,2.17109912109375,4.082058837890625
-0.00812695478065922,-0.6725025659131239,-0.3439600229857792,-0.6779325140903887,0.7568474260782758,-0.565536433583395,-0.6731949381704875,3.128784873703988,-0.34396002298577916,-0.07039383870693693,-0.8715941325199053,-0.5376435084538475,-0.8660540228448287,0.7348512624842439,-0.750310192956868,-0.7744538585742784,2.1834543649901272,-0.5376435084538476,-0.11803677485694819,-0.5680883369073296,-0.4245518463926164,-0.5650243910004507,0.6549529232066764,-0.516181819913622,-0.5627287282810118,-0.7783189116451151,-0.4245518463926163,-0.02600902675970321,-0.7676331455605749,-0.47190626874853925,-0.7701924032008993,0.6771550643005508,-0.7585877431198762,-0.7365718453686747,1.6906727165213895,-0.47190626874853925,0.05935431444755979,-0.6438459679744227,-0.40561118705986166,-0.6448263037250246,0.5884871252745821,-0.6049932131057216,-0.6153574236460072,1.0113522294438233,-0.40561118705986177,-0.005408004228913945,-0.8186326790218694,-0.49151300383998214,-0.8463407819165473,0.7523348230835115,-0.7551070631971258,-0.7890363420176432,1.1530496619038535,-0.49151300383998214,-0.6589222756918011,-0.771219143949508,-0.726374380826056,0.205746173187743,0.19379272636567024,-0.20122696711526653,-0.6229372136743342,-0.3199022013521906,-0.6351369196183855,-0.5600076222264058,-0.513972243009004,-0.7741241661839187,-0.6885892193845402,still,Still_7-2026-03-04_16-48-22,3,3.1362294921875,5.0471923828125
-0.011480970366128619,-0.6724178370993585,-0.3439598075965319,-0.6778142040665796,0.7570041726230761,-0.5645374473752854,-0.6726281624874731,2.0488641514546653,-0.3439598075965319,-0.06935958480560163,-0.8723379256100007,-0.5376468572866422,-0.8668687067835336,0.7350915228642427,-0.7507621043443751,-0.7748246209090427,2.0103631934329473,-0.5376468572866423,-0.1454229281995519,-0.5682900733819479,-0.4245520426575476,-0.5629500765347714,0.6538722084278789,-0.5168091152721259,-0.5628422672197206,-0.7783189116451151,-0.4245520426575475,-0.0259481579518826,-0.7679511875979375,-0.4719067556286306,-0.7705077395676148,0.6771550643005508,-0.7585877431198762,-0.7365718453686747,1.6906727165213895,-0.47190675562863055,0.060031952080542975,-0.6440111990884854,-0.40561137705358996,-0.6450074402642677,0.5890481717865562,-0.6051736066243253,-0.6157360777037126,2.3512454962412175,-0.40561137705359007,-0.0048367052763732,-0.8183844365191971,-0.4915125686727882,-0.846083161308805,0.7523348230835115,-0.7561144793009721,-0.7895555375771629,0.3635246875125283,-0.49151256867278825,-0.657198725345812,-0.7713050047805853,-0.5102302226020882,0.5447891514718449,0.5056990681596201,-0.19683585094736775,-0.762689543370783,-0.6007214411317189,-0.6327811329965166,-0.5602737010052528,-0.513972243009004,-0.7742040193941511,-0.6888969522226878,still,Still_7-2026-03-04_16-48-22,4,4.101361328125,6.012325927734375
-0.012178184358962113,-0.6725707556364896,-0.3439601938734663,-0.6779047615960303,0.7570041726230761,-0.5641889211461832,-0.6724076394034582,-0.5738004597222609,-0.34396019387346627,-0.06660380678866162,-0.8736110636582853,-0.5376518108767591,-0.868384096773012,0.7350915228642427,-0.7505234637355803,-0.7746888340260444,2.1834543649901272,-0.5376518108767592,-0.1598841169155034,-0.5687145310617419,-0.42455237041047483,-0.561875709398,0.653461128816014,-0.517548957506238,-0.5632386082260833,0.7290179589254612,-0.42455237041047483,-0.025826420336240982,-0.7679916316322334,-0.47190681324931144,-0.7705485071409349,0.6771550643005508,-0.7595533498352594,-0.7370618332535867,2.4589539818489374,-0.47190681324931144,0.05986767629072884,-0.6439848637713058,-0.4056113478183704,-0.6449778038027185,0.5890481717865562,-0.6051736066243253,-0.6157360777037126,3.691138763038611,-0.40561134781837044,-0.004679105543577718,-0.8180643400185981,-0.49151195415749926,-0.8457671295180316,0.7523348230835115,-0.7547712576585163,-0.7888632767431826,4.085570995357347,-0.49151195415749926,-0.6565411537139704,-0.7711736882066886,-0.5126736937193243,0.2758506593290149,0.3800710325330697,-0.5739768046554554,-1.0471545195149277,-0.3919957271694578,-0.6315580264163944,-0.5609482722129907,5.526237204280941,-0.7740683212098576,-0.6890625492982422,still,Still_7-2026-03-04_16-48-22,5,5.066494873046875,6.977459228515625
-0.009683767769478517,-0.6724413692477564,-0.3439598677570379,-0.6779001909186921,0.7552133311728715,-0.5643764636346165,-0.6717800959823538,1.4317665958836239,-0.3439598677570379,-0.07912471876745654,-0.8710255868571624,-0.5376407224298498,-0.8636801355988327,0.7305987153284077,-0.7485604528216483,-0.7714471372483579,2.356545536547307,-0.5376407224298498,-0.1312539080317235,-0.5682846096693119,-0.4245520376857439,-0.5640485600567141,0.6543627523617142,-0.5166945220896884,-0.5629106068475911,-0.7783189116451151,-0.42455203768574384,-0.024791650440881455,-0.7676898963312093,-0.4719063600178747,-0.7702476865531267,0.6757396806589194,-0.7573807346336344,-0.7352243786384758,3.5345477533075043,-0.4719063600178747,0.0608533311313638,-0.6428349780454249,-0.40560968422254995,-0.6438622599016365,0.5869910014327394,-0.602106918045722,-0.6130854998049218,1.3941788771002217,-0.40560968422255006,-0.006412702349027488,-0.8185470092247744,-0.491512857748778,-0.846250510860918,0.7523348230835115,-0.7561144793009721,-0.7895555375771629,0.7018925336802391,-0.491512857748778,-0.657749108296492,-0.7709767133650947,0.05843883489160501,-0.4973150807789494,0.41587533363091056,0.4467529391919894,-1.1355818958076882,-0.45848317632580093,-0.6338231974136789,-0.5600751434244681,-0.513972243009004,-0.7738443255487603,-0.6876989105772405,still,Still_8-2026-03-04_16-48-50,0,0.233354248046875,2.144339599609375
