acc_x_mean,acc_x_std,acc_x_var,acc_x_rms,acc_x_min,acc_x_max,acc_x_range,acc_x_dom_freq,acc_x_spec_eng,acc_y_mean,acc_y_std,acc_y_var,acc_y_rms,acc_y_min,acc_y_max,acc_y_range,acc_y_dom_freq,acc_y_spec_eng,acc_z_mean,acc_z_std,acc_z_var,acc_z_rms,acc_z_min,acc_z_max,acc_z_range,acc_z_dom_freq,acc_z_spec_eng,gyr_x_mean,gyr_x_std,gyr_x_var,gyr_x_rms,gyr_x_min,gyr_x_max,gyr_x_range,gyr_x_dom_freq,gyr_x_spec_eng,gyr_y_mean,gyr_y_std,gyr_y_var,gyr_y_rms,gyr_y_min,gyr_y_max,gyr_y_range,gyr_y_dom_freq,gyr_y_spec_eng,gyr_z_mean,gyr_z_std,gyr_z_var,gyr_z_rms,gyr_z_min,gyr_z_max,gyr_z_range,gyr_z_dom_freq,gyr_z_spec_eng,acc_sma,gyr_sma,corr_acc_xy,corr_acc_xz,corr_acc_yz,corr_gyr_xy,corr_gyr_xz,corr_gyr_yz,acc_mag_mean,acc_mag_std,acc_mag_dom_freq,gyr_mag_mean,gyr_mag_std,activity,session,window_id,time_start,time_end
-0.14708350270977158,-0.5630529606881873,-0.34086075352561823,-0.5612786998253034,0.6020364603677897,-0.5066407294157198,-0.5714232631276397,-0.7280748486150214,-0.34086075352561823,-0.09407415852652523,-0.7290759329863298,-0.5308113997865815,-0.7309770160745342,0.5746935999381273,-0.6573201177750768,-0.6458005284780827,-0.23982203681039096,-0.5308113997865817,0.017491644790644016,-0.5370949118322204,-0.42421179838810175,-0.5388854596055921,0.6019574729438845,-0.49126987333215977,-0.5290709965144134,0.2983502816195822,-0.42421179838810164,-0.2062481312808105,-0.679266628332743,-0.4694501426744295,-0.6768789828938652,0.5709920965066652,-0.6892811634042673,-0.6462744732253403,-0.4605148263957443,-0.46945014267442947,-0.22612873037331754,-0.5548020624166068,-0.40323536168110063,-0.5346933076492036,0.46334507544285103,-0.5677422869882457,-0.5324651770484414,0.05428561030282759,-0.4032353616811008,-0.0811175560022282,-0.6840460543991115,-0.4859711375950615,-0.7125568427993836,0.6189843029601899,-0.6514411948961222,-0.664732443242822,-0.08763244071108607,-0.48597113759506144,-0.5995116133036903,-0.6575691496234968,1.4139292485939567,-0.016397583158672593,-0.4841556874210866,-0.9158270694846468,-0.9777906347712373,-0.48291261762567206,-0.583341545993446,-0.5206096561866147,-0.513972243009004,-0.6573659719918609,-0.5968937322347445,standing,2026-03-04_13-51-15,0,0.07438037109375,1.05927880859375
-0.2210684496315917,-0.5615619035578819,-0.34077954608065847,-0.5442973265782338,0.6020364603677897,-0.5290723185770944,-0.5856164078845437,-0.41952607082950055,-0.3407795460806584,-0.12749521347714618,-0.7213172279279216,-0.5300859491883474,-0.7218554550657895,0.5746935999381273,-0.6665787424750222,-0.651068700543208,-0.41291320836757084,-0.5300859491883474,0.05849676462765463,-0.5358535307380125,-0.4241853525188111,-0.5371101327348397,0.6019574729438845,-0.49120465423384213,-0.5290250451612935,-0.34765123433923617,-0.42418535251881107,-0.2636536266245933,-0.6697456300510999,-0.46890950132942916,-0.6642673179294227,0.5709920965066652,-0.6892811634042673,-0.6462744732253403,0.15411018586629388,-0.4689095013294291,-0.08146636032772121,-0.5480631977843797,-0.40287082606441554,-0.5452155475711628,0.4624010851903235,-0.559640753608146,-0.5277359770894058,-1.0941943326663672,-0.4028708260644157,-0.0701860343508329,-0.6966460258776255,-0.4869410338723299,-0.7253695227521878,0.5977334334144913,-0.6514411948961222,-0.6534373739937139,-0.20042172276698966,-0.48694103387232984,-0.5920213485716344,-0.6591029133151527,1.4762196231392002,0.17899102706108677,-0.4603363749627648,-1.0215372662963296,-1.294196971022209,0.05218513486336491,-0.5774882830599398,-0.5194672847642041,-0.513972243009004,-0.6609604746602719,-0.6004338117489754,standing,2026-03-04_13-51-15,1,0.5718046875,1.55670263671875
-0.17455674736018784,-0.5756746841782148,-0.34150618991437454,-0.566005804585883,0.6171606343215909,-0.5134138600873515,-0.5820107635242172,-0.41952607082950055,-0.34150618991437454,-0.044167691172958226,-0.7643404765326465,-0.5336486836975352,-0.7647326788359181,0.616855275991432,-0.6582092786143723,-0.6662455803497719,-0.5860043799247507,-0.5336486836975352,0.009533956807390229,-0.5268852839098197,-0.4239649489023954,-0.5288108867585435,0.5465615094577022,-0.4907711980727154,-0.5118845718716786,1.3750194748842797,-0.42396494890239533,-0.14543552814841954,-0.668047435715679,-0.46880742853716656,-0.6692139913277579,0.5654610194573092,-0.6573149782447524,-0.627181355347189,0.30776643893180344,-0.4688074285371666,0.11000755248152731,-0.5402224005814585,-0.40241396467250157,-0.5426055161112691,0.4624010851903235,-0.5226584613745073,-0.5083291023376132,0.8199389056156242,-0.4024139646725017,-0.15503719172557348,-0.7149724722212937,-0.48818540268675786,-0.7317961246838561,0.5759018822448342,-0.6832366241925928,-0.6582201876779102,-0.31321100482289327,-0.4881854026867579,-0.5995421942983743,-0.6635422320688134,1.423901654071903,-0.935901933389609,-1.3118658298567873,-0.5511214906197297,-0.45858780504591873,0.5931002770605334,-0.5831893998030033,-0.5156989140648525,-0.29825047703436314,-0.6660030627244653,-0.5918114920071681,standing,2026-03-04_13-51-15,2,1.069227783203125,2.054127197265625
-0.14153055061329067,-0.606421676722476,-0.3427642322191408,-0.5972979954284727,0.6466160342055709,-0.5134138600873515,-0.594284229827923,0.660394651419822,-0.3427642322191408,-0.028454714089136832,-0.793570102812539,-0.535428852847865,-0.7915072180549598,0.6500120045950242,-0.6582092786143723,-0.6819260746844668,0.9718161640898682,-0.535428852847865,-0.0508793763738336,-0.5237732613993573,-0.42387641811175764,-0.5258352877711352,0.5465615094577022,-0.4858530509528482,-0.5084193980065073,1.3750194748842797,-0.4238764181117576,0.015997351216996036,-0.6713722602350441,-0.4690056709857231,-0.6745235422800453,0.5654610194573092,-0.6573149782447524,-0.627181355347189,0.30776643893180344,-0.469005670985723,0.09287523501163061,-0.5414441434568571,-0.40248746665910035,-0.544174735882269,0.46913551493656785,-0.5226584613745073,-0.511737936008259,0.8199389056156242,-0.4024874666591005,-0.12021924207071501,-0.7215717247637707,-0.4885852202900535,-0.7431576637593924,0.5759018822448342,-0.6961895706460423,-0.6648957929771014,-0.4260002868787969,-0.4885852202900536,-0.6069978391536066,-0.669893925852984,1.1097306921339298,-0.9198850511440707,-1.4835145871988193,-0.15718548593183382,0.5416390614880634,0.3200331868574184,-0.5887820574225352,-0.5155655140490909,-0.513972243009004,-0.6718635399937813,-0.5939519787515573,standing,2026-03-04_13-51-15,3,1.56665185546875,2.55155126953125
-0.176449251459484,-0.6179835486075893,-0.3431220112216328,-0.595547415953763,0.6545848793809234,-0.5419643544772006,-0.6156694467265875,1.1232178180981032,-0.34312201122163277,-0.08503144827157733,-0.8072927612199703,-0.5360858943419802,-0.8051146620952219,0.67094316577994,-0.6819049035276067,-0.7053076963928934,0.10636030630396878,-0.5360858943419803,0.029669516686546812,-0.5280267351559828,-0.42399586472044587,-0.5297817846242172,0.5869204453825222,-0.4858530509528482,-0.5206846536500721,0.5136841202725217,-0.4239958647204458,0.02557294411681725,-0.6882797648518756,-0.4699124735593348,-0.6910405208514026,0.6076466515154301,-0.6953546555523107,-0.6683904225188348,0.15411018586629388,-0.4699124735593348,0.06921942760577644,-0.5687430297438713,-0.403906981045524,-0.5711941230438888,0.5043794174748725,-0.5474197387460329,-0.5425714541437506,0.8199389056156242,-0.40390698104552414,0.04895457343742803,-0.7488787706538188,-0.48996790950516694,-0.7756610180439366,0.6757330759418908,-0.6866392440789648,-0.7130351775139373,-0.4260002868787969,-0.489967909505167,-0.6082396249747241,-0.6896913610480835,0.2849091804520745,0.4815906744983474,-1.4077484002388145,0.64043055659483,-0.051505894731213836,0.7320329051787711,-0.5903387708600203,-0.5259224649944866,-0.29825047703436314,-0.6942150471990746,-0.6269212134009048,standing,2026-03-04_13-51-15,4,2.064075439453125,3.048974365234375
-0.18135918335552514,-0.6117010467582782,-0.3429354177441256,-0.5901461077109464,0.6511259517682934,-0.5419643544772006,-0.6142281819103641,1.1232178180981032,-0.3429354177441256,-0.09015559918721365,-0.7981690316723541,-0.5356617715850037,-0.7962542951164019,0.6589157177542515,-0.6622059262239207,-0.6884109213334553,0.4525426494183285,-0.5356617715850037,0.052369868722986594,-0.5245477162355523,-0.4238990300507595,-0.5260948985164807,0.5808260781349255,-0.48966554622421643,-0.5215187148931909,0.2983502816195822,-0.42389903005075946,-0.06469608697208595,-0.6789712329916161,-0.46943417598180504,-0.68206188372748,0.6047516531664766,-0.6872233353395476,-0.6627609442835366,0.46142269199731295,-0.469434175981805,0.07332895157125471,-0.5749635612721639,-0.40417076725226597,-0.5772558948520191,0.5151628409425797,-0.5515795645900521,-0.5502127229748255,0.8199389056156242,-0.4041707672522661,0.04661903825112773,-0.7462228181108056,-0.4898526395911227,-0.7733971936870088,0.6661146558639429,-0.6866392440789648,-0.7079228821975593,-0.4260002868787969,-0.4898526395911227,-0.6028105094135846,-0.687978171856799,0.29514309704742975,0.2424703873279439,-1.574285001331413,0.7718029016080032,0.22423810388081328,0.8233464355174234,-0.5853553805978085,-0.5237339652721478,0.7803583528388411,-0.692383423997488,-0.6272730509003343,standing,2026-03-04_13-51-15,5,2.561499267578125,3.546398193359375
-0.17105498198753036,-0.6082908081190004,-0.3428263417427682,-0.5908630878677333,0.6511259517682934,-0.5318295081463638,-0.6078155581756964,0.9689434292053428,-0.3428263417427682,-0.06061432979884109,-0.7793632648813152,-0.534628324655474,-0.7792396474807277,0.6589157177542515,-0.6387144983549153,-0.6750442618046233,-0.23982203681039096,-0.534628324655474,0.010351101356358597,-0.5225789136583011,-0.423840792774464,-0.5245194466335508,0.5747452319559396,-0.4720461678389967,-0.5072566520366013,0.7290179589254612,-0.42384079277446396,0.01021232644718048,-0.6604206074732446,-0.46832794309464565,-0.6637672134536677,0.5697683020901029,-0.6488312596795955,-0.625113063583924,0.30776643893180344,-0.4683279430946456,0.052576595831663235,-0.572264831174349,-0.4040590457760478,-0.5746473692613875,0.4984734108002306,-0.5570211688358623,-0.5446204103429267,0.8199389056156242,-0.40405904577604795,-0.012966012609036336,-0.7398727167537451,-0.48956025821050325,-0.7696778721083424,0.6442097986632145,-0.6875406447166005,-0.6967447693655077,-0.08763244071108607,-0.4895602582105033,-0.6025617557695829,-0.6840446418276962,0.625178031265305,-0.47392535612755504,-1.6304475495729138,0.20822627322827011,0.6182487164123774,1.3858444141368984,-0.585153427157447,-0.5147129030132714,-0.29825047703436314,-0.6873792507578085,-0.6025852228058826,standing,2026-03-04_13-51-15,6,3.058923095703125,4.043822021484375
-0.18534406986093913,-0.5943973010571173,-0.34232530089538915,-0.5773554475651942,0.606008698569546,-0.5299775265995356,-0.5878443112754635,1.2774922069908636,-0.3423253008953891,-0.07749294750791216,-0.7731233380319852,-0.5342380333287815,-0.7731434441542715,0.6442977268015676,-0.6387144983549153,-0.6681311152436763,-0.41291320836757084,-0.5342380333287815,0.04621616003005562,-0.5220804296686494,-0.42382565338264316,-0.523725915230621,0.5740578382743079,-0.4720461678389967,-0.5070477501158794,0.7290179589254612,-0.4238256533826431,0.07363594965806274,-0.6542181078958464,-0.4679126000788901,-0.656421786493757,0.5697683020901029,-0.6488312596795955,-0.625113063583924,0.30776643893180344,-0.46791260007889,0.04519919397927991,-0.5643461833400873,-0.40370716888541575,-0.5668249256361227,0.4984734108002306,-0.5346656044720212,-0.5328890759282341,0.628525581787425,-0.4037071688854159,-0.058125528653734666,-0.7326960385745811,-0.48920132922737003,-0.7606104624507358,0.6442097986632145,-0.6875406447166005,-0.6967447693655077,-0.20042172276698966,-0.48920132922737003,-0.5994113441951197,-0.6738560029192588,0.52652379655385,-0.05216537181743804,-1.6373530022694704,-0.28112327502047935,0.6957469314124969,0.30598166403259247,-0.5820523974964048,-0.5132532485524178,-0.29825047703436314,-0.6770928518411106,-0.6027468473965003,standing,2026-03-04_13-51-15,7,3.556345947265625,4.541244873046875
-0.204082444073828,-0.5893105400653511,-0.3421191031474581,-0.568765077228876,0.606008698569546,-0.5216218460908001,-0.5825574195554987,-0.2652516819367402,-0.3421191031474581,-0.11952109509243769,-0.7778415472896686,-0.534535322010245,-0.7750105884807821,0.6442977268015676,-0.6779200232053528,-0.6904391207530556,-0.23982203681039096,-0.5345353220102451,0.056566442485970696,-0.5257578334226948,-0.4239335923706812,-0.5272360491260557,0.5740578382743079,-0.47627550094355486,-0.5100276069977157,0.7290179589254612,-0.42393359237068107,-0.04303967797438139,-0.6779602300038576,-0.46937913815807025,-0.6812830782522861,0.5968389688079834,-0.6670440276674028,-0.6484122411461551,0.30776643893180344,-0.4693791381580702,0.062050566301774364,-0.561604597548716,-0.40357697798439207,-0.564221240847834,0.5096680439402835,-0.5346656044720212,-0.5385555753671245,0.628525581787425,-0.4035769779843922,0.025186343799372752,-0.7259428862917208,-0.48883597558032316,-0.75547322902831,0.6660777049855657,-0.6593297898218796,-0.6938286734836601,-0.08763244071108607,-0.48883597558032305,-0.5963529850032498,-0.678630416431633,0.631084748585852,-0.14391728233145495,-1.7370405580184747,0.009345212106146477,0.3673500503095841,-0.06836045840798367,-0.5806744674711214,-0.5236177505547417,-0.29825047703436314,-0.6814324018820553,-0.6239060405006928,standing,2026-03-04_13-51-15,8,4.05377001953125,5.038669189453125
-0.16168775430864024,-0.610661787498804,-0.342902757905702,-0.5950747538489143,0.6607781680782508,-0.5216218460908001,-0.605378744037076,-0.7280748486150214,-0.342902757905702,-0.06484434895142277,-0.7888221931931676,-0.5351749336748033,-0.7882084186331203,0.667517856368057,-0.668638786855312,-0.6961393562728418,0.10636030630396878,-0.5351749336748034,0.024163460963444336,-0.5288526481990431,-0.4240177134864019,-0.530652119716305,0.5802927955578897,-0.4861164357729773,-0.518856054899862,0.2983502816195822,-0.4240177134864018,-0.13902434530995955,-0.6955606339041852,-0.47025081383129363,-0.6959783270167657,0.6010833370851384,-0.6848645889263882,-0.6596591341652236,0.0004539328007843344,-0.47025081383129363,0.0917245347832797,-0.5635442495182045,-0.4036695322741078,-0.565792202968125,0.5029509319351886,-0.5314805253455093,-0.5334841014136456,0.628525581787425,-0.4036695322741079,-0.08272091988741326,-0.717541770338876,-0.4883441029564471,-0.7440943604425888,0.664961060878935,-0.6593297898218796,-0.6932351649458621,-0.4260002868787969,-0.48834410295644715,-0.6071229632426736,-0.6810951061224518,0.29707033019288337,0.10167186277544307,-1.8636182432481259,0.6148452990162869,0.38673624065780626,-0.05003309130360553,-0.5898495928998376,-0.5240944506140011,-0.29825047703436314,-0.6853792938527874,-0.623443027013111,standing,2026-03-04_13-51-15,9,4.55119384765625,5.536093017578125
-0.13827325453726408,-0.6251048627015514,-0.3433110218422879,-0.611361932163645,0.6565764679743219,-0.5430494711144513,-0.6171858873130207,-0.41952607082950055,-0.34331102184228784,0.007627308665017245,-0.8021715089391624,-0.5358540442272473,-0.795374563397842,0.6790264555210305,-0.668638786855312,-0.7015820079281356,0.10636030630396878,-0.5358540442272473,0.009282984143918144,-0.5221249254365772,-0.4238270112324954,-0.524073772874365,0.5658092594825622,-0.48079537258898414,-0.5107053894562336,0.2983502816195822,-0.42382701123249533,-0.02284465769409368,-0.6657438538271292,-0.4686662378894149,-0.6692322576364209,0.5835206620664913,-0.6312729037118547,-0.6233445831050958,0.0004539328007843344,-0.46866623788941486,0.005121654522983369,-0.5627133649194503,-0.4036301486531866,-0.5642534143541525,0.5029509319351886,-0.5314805253455093,-0.5334841014136456,-0.13712771352537156,-0.40363014865318675,-0.1807263836089373,-0.7434917269830318,-0.4897297909747244,-0.7495395523028929,0.664961060878935,-0.6770137175095837,-0.7023489925839835,-0.4260002868787969,-0.48972979097472435,-0.6095034560307575,-0.6744306839043578,0.017684981553892514,-0.10949452736067047,-2.0801450315506864,0.2028223027415465,1.4282537267901163,-0.42320951055382794,-0.5892420601528486,-0.515070741739372,-0.29825047703436314,-0.6788633070234047,-0.6055845361807919,standing,2026-03-04_13-51-15,10,5.0486171875,6.033515625
-0.16000897092372673,-0.6082565537910551,-0.3428252183157077,-0.5938678095649155,0.645121707220898,-0.5404172655260123,-0.610747445312837,-0.5738004597222609,-0.34282521831570767,-0.03972999323001971,-0.7921628559442336,-0.5353550183538531,-0.7908437530495905,0.6717771919775113,-0.6755167278237849,-0.7020672423639991,0.7987249925326882,-0.535355018353853,0.013594977029711859,-0.5226904348907814,-0.42384415796652697,-0.5246101364581632,0.5658092594825622,-0.48079537258898414,-0.5107053894562336,0.9443517975784006,-0.42384415796652697,0.049841218257677455,-0.6704935939324917,-0.4689539170948767,-0.6730046142398688,0.5835206620664913,-0.6312729037118547,-0.6233445831050958,0.0004539328007843344,-0.46895391709487666,-0.08899374705650812,-0.570233926985868,-0.40397222174671116,-0.5646580105697703,0.5024065453662073,-0.5588228033525311,-0.547556712432689,0.43711225795922587,-0.4039722217467112,0.019288148061446655,-0.7342018360483342,-0.4892791450267118,-0.7637048021225509,0.692859911328914,-0.6590729056310035,-0.7079313173461455,-0.31321100482289327,-0.4892791450267118,-0.6039506514973163,-0.6818490397715454,0.8778763683730547,-0.882566816206397,-1.9532559023439031,0.5143830325351597,0.7598470511253725,0.5173942631576076,-0.5852269607453277,-0.5194103700176749,2.93757601258525,-0.6849306413970748,-0.6051151413627865,standing,2026-03-04_13-51-15,11,5.546041015625,6.53093994140625
-0.19018049221631786,-0.61787139560292,-0.3431188433145452,-0.5912389062271766,0.645121707220898,-0.5404172655260123,-0.610747445312837,-0.5738004597222609,-0.34311884331454523,-0.06761179749512805,-0.8022311112304348,-0.5358568340205369,-0.8009000863527995,0.6717771919775113,-0.6923053396469951,-0.7116199889851893,0.7987249925326882,-0.5358568340205369,0.012165830588642365,-0.5276726362493992,-0.42398636343398477,-0.5295763085731728,0.5816027399469552,-0.48234188045784193,-0.5165947181184443,1.1596856362313401,-0.4239863634339847,-0.006444282939055548,-0.6903736757497397,-0.47001299359474175,-0.6935639540237584,0.6018061817713959,-0.6782823092169589,-0.6566943788411486,0.6150789450628226,-0.47001299359474163,0.022669889163510256,-0.5571654464530048,-0.40335705103367625,-0.5594039353861685,0.5012292126942122,-0.5289844379745491,-0.5313027515763433,0.628525581787425,-0.4033570510336764,0.04183993681441356,-0.753142449258605,-0.4901442974856787,-0.7803556204039781,0.7000270155365544,-0.6590729056310035,-0.711740711506078,-0.31321100482289327,-0.49014429748567867,-0.6068306485857559,-0.6914794640756807,0.30243360233291944,-0.30753341536416173,-1.9858678227488245,0.013819516826181866,0.39097011516270463,0.7108501346609271,-0.5890112088681707,-0.5259064655527573,-0.29825047703436314,-0.6919315089891428,-0.6177788400242279,standing,2026-03-04_13-51-15,12,6.043465087890625,7.028364501953125
-0.18256296715463596,-0.6334048141918284,-0.3435011496838761,-0.6021396309213068,0.6608097267933102,-0.5582732674146026,-0.6285823564625508,1.5860409847763843,-0.343501149683876,-0.039001886781849314,-0.8150432253983227,-0.5364065274003014,-0.8123045626830462,0.6902644796599463,-0.686660195070968,-0.7171509088454918,0.10636030630396878,-0.5364065274003014,-0.011670539563848096,-0.5269849888495,-0.42396768266846535,-0.529016402930766,0.567772140636477,-0.48905405446681677,-0.5171207285596865,0.2983502816195822,-0.4239676826684653,0.0013170641494288423,-0.682861116301804,-0.4696402909350514,-0.6860591234655611,0.5827336082537161,-0.6629781025644325,-0.6390243806920327,0.6150789450628226,-0.46964029093505133,0.10750178172387345,-0.5608410517311087,-0.40353995318060104,-0.5627438044144079,0.5012292126942122,-0.5289844379745491,-0.5313027515763433,0.628525581787425,-0.40353995318060115,-0.024718415896837,-0.7726525860630463,-0.49081531083671104,-0.8011011462381776,0.6964511363795339,-0.7075375704708046,-0.7348174964394848,0.3635246875125283,-0.4908153108367109,-0.6130621296868114,-0.6953140265419562,-0.508096817683128,0.47185541369194445,-1.9241627174763776,-0.20712966149158835,0.38857628253692156,1.8508339288845121,-0.5937349493974551,-0.5196588325136732,-0.29825047703436314,-0.695375383337959,-0.6147618433144215,standing,2026-03-04_13-51-15,13,6.540888916015625,7.525788330078125
-0.1664629877843815,-0.6281447616271391,-0.34338442559757515,-0.6046686213245064,0.6608097267933102,-0.5558083553618637,-0.6270227320718811,0.043297095848780554,-0.34338442559757515,-0.04369421913802637,-0.8149955797592696,-0.5364046675964256,-0.8125341849149196,0.6897596037103237,-0.686660195070968,-0.7169121426945114,0.7987249925326882,-0.5364046675964256,0.025065512675245264,-0.5305802999055858,-0.42406200287695966,-0.5323567728720218,0.567772140636477,-0.48905405446681677,-0.5171207285596865,0.2983502816195822,-0.42406200287695966,-0.01648612411963256,-0.6806292450764256,-0.46952312568778676,-0.683968241734114,0.5827336082537161,-0.6629781025644325,-0.6390243806920327,0.6150789450628226,-0.4695231256877867,0.09675239937874856,-0.5599114139845444,-0.40349442398551316,-0.5621332201065495,0.4735093121087313,-0.5317325719945328,-0.5187136065154592,0.628525581787425,-0.4034944239855133,-0.029880606184201873,-0.766002094001498,-0.4906116782628081,-0.794415124957647,0.6964511363795339,-0.6830195108090356,-0.7221815383127215,0.5891032516243355,-0.49061167826280816,-0.6170197630200664,-0.6937294299826167,-0.17446315466101772,0.41497439131330577,-1.5220196446841718,-1.117503143217216,-0.7810650485638346,1.6852724796887817,-0.5976444369867043,-0.5206360835934024,-0.29825047703436314,-0.6949229136885892,-0.6081375564165776,standing,2026-03-04_13-51-15,14,7.0383134765625,8.0232119140625
-0.16410223953286845,-0.6162663944783501,-0.3430728584427005,-0.598132498210616,0.6697112359960591,-0.5356881496966105,-0.618001147462626,-0.41952607082950055,-0.3430728584427005,-0.06358066724265686,-0.805696417070413,-0.5360153304666212,-0.804212917586705,0.6768471421981632,-0.683949796564125,-0.7092633548216177,0.7987249925326882,-0.5360153304666212,0.041265352463897766,-0.5349471746065823,-0.42416541994960405,-0.5364841232300914,0.5888773656352215,-0.4896802205213379,-0.5239758751332887,0.2983502816195822,-0.42416541994960394,-0.030418899150763734,-0.6933223669857944,-0.4701501446421816,-0.6965552780374858,0.5973738242717029,-0.6900268049165846,-0.6603523717475901,0.46142269199731295,-0.4701501446421815,0.0749158480592773,-0.5602937428418605,-0.40351320850585864,-0.5628699343526422,0.4735093121087313,-0.5317325719945328,-0.5187136065154592,0.628525581787425,-0.4035132085058588,-0.04061298474837245,-0.7612560415925282,-0.4904504848105984,-0.7891335700937235,0.6816364474002111,-0.6830195108090356,-0.7143073693256308,0.5891032516243355,-0.4904504848105984,-0.6153791522546423,-0.6981698685371551,0.7120911975078511,-0.44547942693825876,-1.5269081056721976,-1.478480993137138,-0.6932095777090873,1.4781730182774968,-0.5973564481477024,-0.5271633563230715,-0.29825047703436314,-0.699524013111145,-0.6112227008677783,standing,2026-03-04_13-51-15,15,7.535737548828125,8.5206357421875
-0.19257494548398482,-0.5595135214958156,-0.34066627636198316,-0.5492906823313064,0.5908992768385287,-0.4910791499986571,-0.556936343315973,-0.5738004597222609,-0.3406662763619832,-0.09316111901394798,-0.789883180984728,-0.5352328615445167,-0.7883011919307058,0.6446278024086614,-0.676894731003238,-0.6900118273699594,-0.5860043799247507,-0.5352328615445167,0.052135281652341804,-0.5283319327089261,-0.4240039893772663,-0.5298287771052086,0.5758536688063541,-0.49115084847773005,-0.5210540760187596,0.7290179589254612,-0.42400398937726624,-0.02371705448354192,-0.6732830941893168,-0.4691166415171437,-0.6767033645248787,0.5762010230522829,-0.6753601270570216,-0.6419152731489113,0.6150789450628226,-0.46911664151714366,0.027504014689878734,-0.5664133850866967,-0.4038024899758588,-0.5685401922828289,0.4993082390637647,-0.555661232033811,-0.5443293415485776,1.0113522294438233,-0.40380248997585894,0.06676832217566821,-0.674380437646577,-0.48516395907303556,-0.703532382235289,0.6292216025929037,-0.5572742611181377,-0.6216425379183542,-0.31321100482289327,-0.4851639590730356,-0.6009628601175399,-0.6756770914196605,1.3330587987436253,-1.9398030478739932,-2.0104978416919157,0.139808375080654,0.930620563431683,0.3347564156502295,-0.5844836624772791,-0.5149420529321954,-0.29825047703436314,-0.6776008736752014,-0.5796258414847556,standing,2026-03-04_13-51-15,16,8.033160888671874,9.018060302734376
-0.15473718773685904,-0.5519159625246342,-0.34022888118289274,-0.5504786833179363,0.5908992768385287,-0.4910791499986571,-0.556936343315973,-0.41952607082950055,-0.34022888118289274,-0.05492814152911741,-0.7856983456027784,-0.5350004140860517,-0.785193322965632,0.6446278024086614,-0.6468250818950853,-0.6729021495750888,-0.41291320836757084,-0.5350004140860518,0.060532202829991485,-0.5226219996736566,-0.42384209385508764,-0.5240954278635436,0.5470776362702641,-0.49115084847773005,-0.5123089149441431,0.7290179589254612,-0.4238420938550876,0.05109600629727205,-0.6631954112067677,-0.46850637736955797,-0.6658068930962611,0.5762010230522829,-0.6319466899269578,-0.619885540031659,0.30776643893180344,-0.4685063773695579,0.011526091114393296,-0.56365223129292,-0.40367462155499617,-0.5653923639082855,0.4993082390637647,-0.5470273273375306,-0.5397986027290076,1.0113522294438233,-0.4036746215549962,0.10751627224125766,-0.6801946553499989,-0.4856560776992322,-0.705462639982959,0.6292216025929037,-0.5572742611181377,-0.6216425379183542,-0.20042172276698966,-0.48565607769923214,-0.5986318079317181,-0.6694205024855345,1.4304427276179725,-1.544385144476562,-1.7241112970412462,0.051082909984529336,0.5336876398190215,0.009812988267164403,-0.5810711145213462,-0.5090923235689916,-0.513972243009004,-0.6714900911988692,-0.5801702458462457,standing,2026-03-04_13-51-15,17,8.530583740234375,9.515484375
-0.15380964804146618,-0.5971932090292603,-0.3424334421314896,-0.5873856181756466,0.6518680694611917,-0.49756577801906127,-0.5864450854004801,-0.5738004597222609,-0.3424334421314896,-0.03642003285488815,-0.8048093408996488,-0.5359754507331187,-0.8025527763043754,0.6896259818497563,-0.6468250818950853,-0.6941827079267118,-0.5860043799247507,-0.5359754507331186,0.046337984430061305,-0.5298902321591591,-0.42404454207013387,-0.5314383359592274,0.5470776362702641,-0.4851244783718341,-0.5080629215478814,0.2983502816195822,-0.4240445420701338,0.08424080904618021,-0.6626647816022048,-0.4684726077955921,-0.6643488687641408,0.5120687426249313,-0.6319466899269578,-0.5865828655656451,0.30776643893180344,-0.468472607795592,0.047822159735046874,-0.5520272239333887,-0.4030884062020866,-0.5547809141272217,0.47139799843712793,-0.5427735318702267,-0.5234387699141193,0.628525581787425,-0.40308840620208664,0.018614878167668387,-0.7608962427028106,-0.49043772558945076,-0.7894941084033613,0.6998538301374354,-0.692316061943502,-0.728781303266968,-0.31321100482289327,-0.49043772558945076,-0.6119012082792556,-0.6839399945640645,0.8485319958133509,0.0033579531999002985,-1.0446649334243345,-1.1995498251724124,-1.0341906607573668,0.017830957223442932,-0.5927907828726336,-0.5202812046062669,-0.29825047703436314,-0.6858940798417688,-0.588264180586124,standing,2026-03-04_13-51-15,18,9.02800830078125,10.012908203125
-0.1544783578517342,-0.6183755522544835,-0.3431330372960024,-0.6022862189934209,0.6468921408643792,-0.5495806662139353,-0.6172831097206509,1.4317665958836239,-0.3431330372960024,-0.021114440673244868,-0.807571624968509,-0.5360980625258522,-0.8038805563580325,0.6873780994142297,-0.6876941781453983,-0.7163742186608144,0.6256338209755083,-0.5360980625258522,-0.006070316335300075,-0.5303917347858688,-0.4240572619180144,-0.5323908659268773,0.5758341868365279,-0.4893622774170393,-0.5197879836883275,0.9443517975784006,-0.4240572619180143,-0.02800031206374502,-0.6832588958248056,-0.4696608631568954,-0.6865875599945896,0.6066834973540538,-0.6555807345700211,-0.6477073793808695,0.46142269199731295,-0.46966086315689537,0.09943056225798713,-0.57927436601444,-0.40434057704050264,-0.5809088220086698,0.5218730869833887,-0.5555985592149096,-0.5557183280729847,0.8199389056156242,-0.4043405770405027,-0.22093472761067243,-0.7589971048340722,-0.49036911920335635,-0.7491909991858726,0.6643146508545955,-0.7227528901526015,-0.7255781759126149,-0.4260002868787969,-0.49036911920335635,-0.6144819833080406,-0.6872858249843746,0.8417958960112882,-0.15800768889867767,-1.2053769507300676,-0.505269255999991,0.16503595573297045,1.0647146184346121,-0.594285864722536,-0.5253338509434538,-0.29825047703436314,-0.6901164082523638,-0.6251280818412617,standing,2026-03-04_13-51-29,0,0.073319091796875,1.058219482421875
-0.12838073450361567,-0.6036787249500664,-0.3426701049638154,-0.598282784508123,0.6499825068519104,-0.5264048719365583,-0.6039067765632072,-0.5738004597222609,-0.3426701049638154,0.03736553580439807,-0.8007202126767048,-0.535785448843416,-0.7889129792388205,0.6785632207329418,-0.6798220167660982,-0.7077262102004324,-0.5860043799247507,-0.5357854488434161,-0.008765746355397605,-0.5296146801902586,-0.42403748448560447,-0.5316280543298364,0.5732177873664256,-0.4867023415764215,-0.5171187402799843,0.9443517975784006,-0.4240374844856044,0.05448128174840471,-0.6896722931651199,-0.4699796123543274,-0.6916436887562896,0.6066834973540538,-0.6606556547951046,-0.6502825990718374,0.46142269199731295,-0.46997961235432734,-0.0033777536180782863,-0.569596463962144,-0.4039444824782404,-0.5705339403039881,0.48396207438610805,-0.5555985592149096,-0.5365285315943802,0.8199389056156242,-0.40394448247824055,-0.00024874998103264156,-0.7063608299353233,-0.4876252223319395,-0.7371017906765334,0.6643146508545955,-0.6557910808681577,-0.6910678341529891,-0.4260002868787969,-0.48762522233193945,-0.6104146732770267,-0.6822839660768202,0.7125684470740803,-0.06835271084071469,-1.2664927669588653,-0.28403163209988425,0.00724489920455016,-0.7294626293996579,-0.5907538492264078,-0.5259649679734699,-0.29825047703436314,-0.6843616289814146,-0.6213075919756549,standing,2026-03-04_13-51-29,1,0.57074365234375,1.5556435546875
-0.1418196281923052,-0.6019574677399049,-0.34260922727207693,-0.5938598643244659,0.6499825068519104,-0.5145945537046664,-0.596434031093217,-0.5738004597222609,-0.34260922727207693,-0.010604295453999291,-0.8008358935633779,-0.5357909633348312,-0.7965895617567396,0.6785632207329418,-0.6798220167660982,-0.7077262102004324,-0.06673086525321109,-0.5357909633348312,0.045966205259471225,-0.5271086029168719,-0.42397106314030286,-0.5286988109866883,0.5732177873664256,-0.47784809645173987,-0.5108803138860427,0.7290179589254612,-0.4239710631403028,0.11815264268151694,-0.6803029165659609,-0.46950574737988754,-0.6799471779753645,0.6136286368392567,-0.639710559981092,-0.6432606901456985,0.46142269199731295,-0.46950574737988754,-0.02399598406667437,-0.5735824939339915,-0.40411411493025395,-0.5731847741344824,0.48396207438610805,-0.5670885261404406,-0.5425580212652015,0.628525581787425,-0.404114114930254,0.31378155265637264,-0.7507316090186733,-0.4900458721423806,-0.712699372411746,0.7252456901805061,-0.6156198458249038,-0.7027501571474112,-0.31321100482289327,-0.4900458721423806,-0.6088800545296698,-0.6707990434088761,0.864783815665577,-0.550886619215265,-1.3436998142563572,-0.06999993464135597,0.5389145216382702,0.7137212536542904,-0.5893105874172538,-0.5222734408111037,-0.29825047703436314,-0.6744839907548859,-0.6119696035095106,standing,2026-03-04_13-51-29,2,1.068167724609375,2.0530673828125
-0.16350094214009078,-0.6254625714747235,-0.3433198854739579,-0.6040420931056344,0.6880686760588766,-0.5145945537046664,-0.6123037635103677,-0.2652516819367402,-0.3433198854739579,-0.07829101798010706,-0.8146369473013751,-0.536390624530263,-0.8123584886548921,0.6822331951028164,-0.6811625645931823,-0.7102245898850862,1.144907335647048,-0.536390624530263,0.05361554617770145,-0.5286688943858614,-0.4240128902705213,-0.5301410346531032,0.5782848441752723,-0.47784809645173987,-0.5124202144234786,0.9443517975784006,-0.4240128902705213,0.06523130423976993,-0.6725404047230322,-0.46907376720359817,-0.6745863729889737,0.6136286368392567,-0.639710559981092,-0.6432606901456985,0.46142269199731295,-0.4690737672035981,0.07711739265792152,-0.580610954477656,-0.4043910671841545,-0.5827394994599593,0.5314219279546326,-0.5472423300468328,-0.5561667349706633,0.8199389056156242,-0.40439106718415463,0.24870507626209018,-0.7462139013175719,-0.48985224562361135,-0.7301246939680547,0.7369971497537442,-0.6156198458249038,-0.7089961862509443,-0.4260002868787969,-0.48985224562361135,-0.6129993193740364,-0.6770811214446215,0.6387988520717434,-0.8586616403834775,-1.5041593285534014,-0.6822834647564087,0.5054302539913782,-0.13038117012187453,-0.5931856891981608,-0.5247297114595364,-0.29825047703436314,-0.6814672520763422,-0.615033913522443,standing,2026-03-04_13-51-29,3,1.565591552734375,2.5504912109375
-0.17283424178824844,-0.633644325139739,-0.343506154157301,-0.6055516092384936,0.6756764879406735,-0.557563500111746,-0.6343279423568522,-0.41952607082950055,-0.343506154157301,-0.07728857647924182,-0.8154260893614442,-0.5364214221700047,-0.8131445846115397,0.6688991399641014,-0.7005274432301527,-0.7149372893046116,0.6256338209755083,-0.5364214221700048,-0.004231132847054261,-0.5306807048665707,-0.42406451798797895,-0.5326699958950196,0.5782848441752723,-0.49119217481022176,-0.5218220380077754,0.9443517975784006,-0.4240645179879789,-0.08179549905960905,-0.6755504868143305,-0.4692455133525988,-0.6783983315267296,0.5948166575404651,-0.6779070622698107,-0.6528744362644026,0.46142269199731295,-0.46924551335259873,0.11188488250840338,-0.5731081284672918,-0.40409440423631593,-0.5744833455421097,0.49402961272706775,-0.5417969149134246,-0.5343819497507922,0.43711225795922587,-0.404094404236316,-0.0431336937390325,-0.7354076942102437,-0.48934050112083893,-0.7642531338967073,0.6820138674210576,-0.674366366143081,-0.7100483707693934,-0.4260002868787969,-0.4893405011208389,-0.6155818488745517,-0.6848189972178153,0.1495938848490636,-0.7493380650317618,-1.6170136166655316,-1.0247738139617573,0.02728418825666577,0.4406346640584577,-0.5961359451202051,-0.5253039290111332,0.1331930549149186,-0.6878850239106028,-0.6230176642486142,standing,2026-03-04_13-51-29,4,2.063015380859375,3.047915283203125
-0.15942089757990607,-0.6172441121625698,-0.34310101556471134,-0.600123634390844,0.6729364390973221,-0.5320129594677061,-0.617019620037021,-0.41952607082950055,-0.34310101556471134,-0.05091503857783756,-0.8176937120130068,-0.5365078184693268,-0.8153900554264135,0.6688991399641014,-0.7059347809283056,-0.7180140729880756,0.6256338209755083,-0.5365078184693268,0.006684502214715746,-0.534304370602672,-0.42415096423650017,-0.5362099611133395,0.5889586374347208,-0.49119217481022176,-0.5250658500660904,0.9443517975784006,-0.42415096423650006,-0.14567084872842037,-0.6868960696095234,-0.46984462299554713,-0.6873758630257372,0.5948166575404651,-0.6810313661611272,-0.6544598343681438,0.46142269199731295,-0.46984462299554713,0.09254036463147104,-0.5648455928007655,-0.4037304213257353,-0.567044846126479,0.49402961272706775,-0.5140178326178926,-0.5198045631620083,0.43711225795922587,-0.40373042132573533,-0.14078734556135483,-0.7579305739071974,-0.49032966252523036,-0.7697484642058869,0.6820138674210576,-0.7143217411361493,-0.7306403120696582,-0.4260002868787969,-0.4903296625252303,-0.6167332074583569,-0.6894514296471067,0.40253630062888796,-0.1258679953506076,-1.4276782983645884,-1.2256599442190983,-0.2440963383655009,0.6189041543612179,-0.598061879934881,-0.5287592902834234,-0.29825047703436314,-0.6902916126667341,-0.6208655437984716,standing,2026-03-04_13-51-29,5,2.560440185546875,3.545340576171875
-0.14790630724572212,-0.6076302735295496,-0.3428045809290881,-0.5965932957771714,0.6483600833252737,-0.5320129594677061,-0.6067791522238454,-0.11097729304397982,-0.3428045809290881,-0.04967639370642507,-0.8092349228949552,-0.5361696608825363,-0.807354214448346,0.6550554895441233,-0.6833763528120459,-0.6986313466873265,0.6256338209755083,-0.5361696608825364,0.020518262399100262,-0.5300762868306911,-0.42404927987422963,-0.5318985499706896,0.583345213143731,-0.4843810433616841,-0.5185609941920404,0.9443517975784006,-0.4240492798742296,-0.1358598070875724,-0.6805690780186426,-0.4695199262921417,-0.6817050079419171,0.5652721785632598,-0.6864975096832476,-0.6418916901022281,0.46142269199731295,-0.4695199262921417,0.06844873878719387,-0.5635463385113291,-0.4036696307935954,-0.5661051110732346,0.4942621430922878,-0.5140178326178926,-0.5199222653830243,0.43711225795922587,-0.4036696307935955,-0.1477170410639791,-0.7593160868976305,-0.4903807903553164,-0.7691466752305963,0.6520889539224751,-0.7111462326292834,-0.713098320807144,-0.4260002868787969,-0.4903807903553164,-0.6126932875488316,-0.6879279898833381,0.3577721771304906,0.17848343257768962,-1.3917003846792515,-0.5898804274144293,0.03613564262493034,0.5888939151549591,-0.5932234119227072,-0.5254525411004939,-0.08252871105972226,-0.6895921712365018,-0.6113949618223327,standing,2026-03-04_13-51-29,6,3.0578642578125,4.042764404296875
-0.12052805726506449,-0.6066408408564228,-0.34277160006643026,-0.6023536917533432,0.6483600833252737,-0.5169119234447621,-0.5972242701015422,-0.41952607082950055,-0.3427716000664302,0.020758694497070206,-0.7877397322831526,-0.5351151299448259,-0.780664311705316,0.6550554895441233,-0.6833763528120459,-0.6986313466873265,-0.41291320836757084,-0.5351151299448259,-0.0028341120985886704,-0.5242546016800954,-0.42389051713829884,-0.5262583433822144,0.5682020524631658,-0.4843810433616841,-0.5139589219930931,0.9443517975784006,-0.42389051713829873,-0.03244877212955272,-0.6670375614625753,-0.46874591845479524,-0.6705074402104951,0.5652721785632598,-0.6449473519001462,-0.6208074602542399,0.46142269199731295,-0.46874591845479524,0.05191496323180658,-0.5672600561270367,-0.40384082488665884,-0.5697381108730817,0.4942621430922878,-0.5620192755367689,-0.5451115636760226,0.43711225795922587,-0.40384082488665896,-0.1073577301741649,-0.731666962654088,-0.4891473836576717,-0.7540533501793522,0.6520889539224751,-0.6701345228761866,-0.6919619725684957,-0.31321100482289327,-0.4891473836576717,-0.6074021022858105,-0.6786559590029533,0.7853373071556151,0.1890543963638742,-1.1405985389592281,-0.2486156266240884,0.2162759862557107,0.09531461686591743,-0.5875937366766082,-0.5177299204452901,-0.29825047703436314,-0.683212484182001,-0.6068138430869221,standing,2026-03-04_13-51-29,7,3.555288330078125,4.540188720703125
-0.12895809122174956,-0.6155752123557681,-0.3430526813522414,-0.6072021673385157,0.6548846358172498,-0.5169119234447621,-0.5999429184808697,-0.5738004597222609,-0.3430526813522414,-0.002782981066139973,-0.7907836756607135,-0.5352814912699553,-0.7865395007955791,0.6568960288839317,-0.6843608056053148,-0.7000619305354845,-0.41291320836757084,-0.5352814912699553,0.013490978168569827,-0.5270582504324571,-0.4239696873341268,-0.5289559326766774,0.5682020524631658,-0.48809307613737446,-0.5165743051135007,0.9443517975784006,-0.42396968733412677,-0.04552853052705574,-0.6691672701499632,-0.46887492985295237,-0.6725597309456024,0.5786062354731762,-0.6449473519001462,-0.6277315826092101,0.46142269199731295,-0.4688749298529523,-0.0032972335482481623,-0.564245702777749,-0.40370247327199604,-0.565389421802377,0.4979837238404113,-0.5620192755367689,-0.5469953534310952,0.43711225795922587,-0.40370247327199615,0.15368280032304668,-0.727415381000324,-0.48891792123946126,-0.7403574651782818,0.6882912672353347,-0.6520208984432926,-0.7018686155159853,-0.4260002868787969,-0.48891792123946126,-0.6091476201402979,-0.6714953331687947,0.7153701992658198,0.5433006004200941,-1.1728186830031162,-0.6321929821324683,-0.8168731736724515,-0.5570594864111456,-0.5904410508287171,-0.5216271352007952,-0.29825047703436314,-0.676381591810998,-0.6129941860849132,standing,2026-03-04_13-51-29,8,4.052712158203125,5.03761376953125
-0.17526284311974813,-0.6280914919637374,-0.3433831768024057,-0.6018040815663322,0.6548846358172498,-0.5462012962080942,-0.618475190290872,1.1232178180981032,-0.3433831768024057,-0.08135018191842741,-0.8151548740765717,-0.5364108801118846,-0.8127027448530733,0.6776608104945401,-0.6967569890319326,-0.7169354679068415,-0.06673086525321109,-0.5364108801118846,0.04631951339814682,-0.5337092689333467,-0.42413734515632096,-0.535197566958405,0.5974712405339629,-0.4889088792623885,-0.5260441278636161,1.1596856362313401,-0.4241373451563209,-0.11220633623615661,-0.6815456647782906,-0.4695715914505103,-0.6835001661229351,0.5786062354731762,-0.6708443908556715,-0.640872787140151,0.30776643893180344,-0.46957159145051025,-0.011061628332193473,-0.5642125534803228,-0.4037009228858274,-0.5649961265063161,0.4979837238404113,-0.5537879431490639,-0.5426758689686566,0.43711225795922587,-0.40370092288582754,0.18032021348644733,-0.7496424008997633,-0.49000028517944344,-0.7511944954333774,0.719092429669849,-0.6520208984432926,-0.7182397697364152,-0.4260002868787969,-0.4900002851794434,-0.6141847583677962,-0.6788098668786549,-0.15709174942279544,0.4871174198803721,-1.594035201435258,-0.9236820294343853,-0.42158920217934936,-0.25426445255765556,-0.5958098110773524,-0.5319549662091044,2.5061324806359684,-0.6826017977476724,-0.6200621085150375,standing,2026-03-04_13-51-29,9,4.5501376953125,5.53503759765625
-0.16107888455721597,-0.6274348296806094,-0.3433676728678116,-0.6059615459306577,0.6718609134659937,-0.5527683157648086,-0.6297040119090143,0.9689434292053428,-0.3433676728678116,-0.049289789330606765,-0.8156264549516327,-0.5364291816730529,-0.8133792748792644,0.6776608104945401,-0.6913519586450138,-0.7138599970871107,0.7987249925326882,-0.5364291816730529,0.02212427393608181,-0.5357577079972068,-0.4241832700808264,-0.5375140816782737,0.5935472228801475,-0.4912654208744862,-0.526511947985571,0.2983502816195822,-0.4241832700808264,-0.13073817455171952,-0.6894723865852599,-0.4699700447454922,-0.6905095169628667,0.6052460254607167,-0.6848699771903574,-0.6618234733545518,0.46142269199731295,-0.4699700447454922,0.0818777001368172,-0.5715910619593718,-0.4040305028881058,-0.5738419482711288,0.523704168945869,-0.5417146375861533,-0.5493594407582084,1.0113522294438233,-0.40403050288810594,0.003627513115920948,-0.7647714196433106,-0.4905711496449443,-0.7938365016573476,0.6807313017971389,-0.6997786259193892,-0.7224634782991437,-0.4260002868787969,-0.4905711496449443,-0.6178878313208894,-0.6973576590649909,0.4579900618074471,-0.5890234425057289,-1.3769540307083294,-0.9345978657110287,0.39771805400766125,0.9629990738521139,-0.5987388574460847,-0.5326503747963746,-0.29825047703436314,-0.6999870145589367,-0.6251093086970928,standing,2026-03-04_13-51-29,10,5.047561767578125,6.03246240234375
-0.15580868095756417,-0.619027433364877,-0.34315121269289006,-0.602331758004989,0.6661143128303542,-0.5410811636571734,-0.6199147057136383,1.1232178180981032,-0.34315121269289,-0.03606706549680812,-0.8027453384506448,-0.535880813891758,-0.8005959708244624,0.6611940445056554,-0.6696000127154899,-0.6936956354816216,0.7987249925326882,-0.535880813891758,-0.010783731418707766,-0.5247248904479672,-0.423904149006327,-0.5267587577625753,0.5588890893348665,-0.47618262643912374,-0.5053523219217302,0.2983502816195822,-0.4239041490063269,-0.05280012264450062,-0.6632178625902747,-0.4685078025111313,-0.6666149895934564,0.6015215450959216,-0.5992743536356467,-0.6164547416309605,0.6150789450628226,-0.4685078025111312,0.12554392851412494,-0.5730570475349616,-0.4040922740547977,-0.5738251994868098,0.512448891777076,-0.5417146375861533,-0.5436622445246551,0.43711225795922587,-0.4040922740547978,-0.08273485081511793,-0.760185871432949,-0.4904123112391379,-0.7830794196117404,0.6807313017971389,-0.6981637058699174,-0.7216311913072405,0.9274710977920462,-0.4904123112391379,-0.610441675312109,-0.6918751086935157,0.7119903159124295,-0.09428152867208218,-1.3067513980349803,-0.20537368990643162,-0.031633384867794406,1.3606349213687225,-0.5912321881039502,-0.5165285015578795,-0.29825047703436314,-0.6920882285342413,-0.6014655717482732,standing,2026-03-04_13-51-29,11,5.5449853515625,6.529886474609375
-0.1627318447620722,-0.612962853150478,-0.342974387077856,-0.5963428210640911,0.6645503204315594,-0.538533805467438,-0.6176512313224249,0.9689434292053428,-0.342974387077856,-0.03132670249520119,-0.7991026270055479,-0.5357074886982918,-0.7968773177884285,0.6611940445056554,-0.6696000127154899,-0.6936956354816216,1.144907335647048,-0.5357074886982918,0.01751912789861355,-0.5217058913768459,-0.42381417352492823,-0.5236044119736306,0.5588890893348665,-0.47618262643912374,-0.5053523219217302,0.2983502816195822,-0.4238141735249282,0.07300487298083765,-0.6657419584621582,-0.46866612042502015,-0.6677090235836528,0.6015215450959216,-0.5992743536356467,-0.6164547416309605,0.46142269199731295,-0.46866612042502015,0.1554023227772107,-0.5685562917976635,-0.40389871985335846,-0.5678027310833949,0.512448891777076,-0.5283932575338213,-0.5366717001699846,0.628525581787425,-0.4038987198533586,-0.14473999293051074,-0.7613937723266135,-0.49045534892059406,-0.7713917348652504,0.6643257075232759,-0.6981637058699174,-0.712911438781464,0.8146818157361427,-0.4904553489205941,-0.6065969837412232,-0.6852706581379372,0.45232724485174164,0.5974667468899117,-1.4693338617377298,0.282817549503937,0.2870200463832635,0.3872861258550999,-0.5872265241950397,-0.5143468470041744,-0.29825047703436314,-0.6859045882494877,-0.6044176940844241,standing,2026-03-04_13-51-29,12,6.042410400390625,7.0273115234375
-0.11830266157019549,-0.6076369570490716,-0.34280480214250986,-0.6036289864805503,0.6645503204315594,-0.5118223985254613,-0.6007501164410567,0.9689434292053428,-0.34280480214250986,-0.008505102329360826,-0.8046340556667972,-0.5359675140839745,-0.7997903862163332,0.6723953318865068,-0.6697788293361421,-0.6990947000609667,0.10636030630396878,-0.5359675140839746,0.035011642001408445,-0.5272680870071248,-0.4239754100775947,-0.5289771365367988,0.5945855827943212,-0.4827566488388737,-0.5208324932919365,0.2983502816195822,-0.42397541007759465,0.04816989695417533,-0.6793603016138366,-0.4694551951041638,-0.6817451691220464,0.6117171004135975,-0.667075097045218,-0.6561539380056209,0.0004539328007843344,-0.4694551951041637,0.07523400161806482,-0.5701254656031272,-0.4039675184596546,-0.5724971686047088,0.5080116083863054,-0.5283932575338213,-0.5344256360489515,-0.13712771352537156,-0.40396751845965473,-0.06877113249666648,-0.723206078328914,-0.4886802889862129,-0.7507279008277911,0.6643257075232759,-0.6386401311488507,-0.6822345659739688,-0.4260002868787969,-0.48868028898621296,-0.6120623110828594,-0.6833301427056444,0.30712543724026853,0.7268917129070057,-1.55140742662011,0.3266760489220744,-1.0250490260630092,-1.6247892407700462,-0.5918630050070026,-0.5211654078705941,-0.29825047703436314,-0.6863218485758888,-0.6170715809750614,standing,2026-03-04_13-51-29,13,6.53983544921875,7.524736572265625
-0.1327516693816357,-0.613484297104658,-0.3429902720834643,-0.6047116164932516,0.6714216207744741,-0.5118223985254613,-0.6036132476004905,-0.41952607082950055,-0.3429902720834643,-0.044999437577734724,-0.8069255296568254,-0.5360697983021341,-0.8049953443993554,0.6723953318865068,-0.6697788293361421,-0.6990947000609667,-0.23982203681039096,-0.5360697983021341,0.012614795832111475,-0.529501725453578,-0.42403457736273603,-0.5313917457348215,0.5945855827943212,-0.4827566488388737,-0.5208324932919365,0.2983502816195822,-0.4240345773627359,-0.015683260579697152,-0.680408282378412,-0.4695113654288282,-0.6837465596734608,0.602307022165493,-0.667075097045218,-0.6512674631990476,0.6150789450628226,-0.4695113654288282,-0.04682663381004734,-0.5824319865125797,-0.4044582116846174,-0.579638320531287,0.5080116083863054,-0.57491129045242,-0.5588364982217906,0.628525581787425,-0.4044582116846175,0.16010967883340668,-0.7191911984825515,-0.48844394265673396,-0.7323218238585218,0.695914137334173,-0.6386401311488507,-0.6990241614028717,-0.4260002868787969,-0.48844394265673396,-0.61290267108487,-0.6802721850704389,0.4618052703830896,0.4477427126629752,-1.0909821259197183,0.1971530413641994,-1.303930582846999,-0.8120419875246511,-0.5928946498867866,-0.5273696260619164,-0.29825047703436314,-0.6821963837700145,-0.6272655229226916,standing,2026-03-04_13-51-29,14,7.03726025390625,8.022161376953125
-0.16174854545906933,-0.6331542617580598,-0.34349588556563165,-0.608971739680958,0.6714216207744741,-0.5522474364427229,-0.6291913914776527,1.2774922069908636,-0.34349588556563165,-0.07920869322340075,-0.8210888572026498,-0.5366313441390471,-0.8183951920081595,0.6778733654901931,-0.713482226706576,-0.7265526761373413,0.7987249925326882,-0.5366313441390472,0.028865455785184554,-0.5344919027461644,-0.42415520892313485,-0.5361889531203728,0.5946915705256897,-0.49236448810248185,-0.5276340888655567,0.2983502816195822,-0.4241552089231348,-0.1153839504096957,-0.6951485761097868,-0.47023250380857895,-0.6966118535899954,0.602307022165493,-0.6888556907703512,-0.6623198170005324,0.6150789450628226,-0.47023250380857895,-0.0014435039340713813,-0.5690038358819267,-0.40391848557110027,-0.570053377775708,0.5136422739257211,-0.5373751499546544,-0.5419891156507319,0.628525581787425,-0.40391848557110044,0.17512083645926577,-0.7571971616310148,-0.49030214227942814,-0.7577045657176879,0.7144658294103023,-0.6745259081087529,-0.7273791666825503,-0.4260002868787969,-0.49030214227942814,-0.6175717710217761,-0.6885142140479582,0.08624922938587261,0.18549940818814334,-1.0957770460928848,-0.8583581283369479,-0.1630557433054728,0.17356806300017708,-0.5977897977980958,-0.5342265907613424,-0.29825047703436314,-0.6897682203544985,-0.6331924045261315,standing,2026-03-04_13-51-29,15,7.5346845703125,8.51958544921875
-0.15154487119201063,-0.6028256659409863,-0.342640108388536,-0.592150879445809,0.6347606523838001,-0.4630884962476078,-0.5575019537846194,1.1232178180981032,-0.342640108388536,-0.06100445110362903,-0.7927432660793923,-0.5353856164313028,-0.7919281041754135,0.6329661488530717,-0.6444865450488247,-0.6660564842100384,-0.23982203681039096,-0.5353856164313028,0.006099561377435411,-0.5232045876502112,-0.4238595695958517,-0.5251671659111077,0.5519296644718492,-0.47111046191015243,-0.49966363277347836,0.2983502816195822,-0.42385956959585164,-0.15368302745394996,-0.6755264324163041,-0.4692441621532116,-0.6761004474338993,0.5537726335980527,-0.6442157964287186,-0.6144647442678662,0.0004539328007843344,-0.4692441621532115,0.10096799030434904,-0.552407830587745,-0.4031088239376221,-0.5547131784990604,0.4869355706879291,-0.528764489032383,-0.5239521751326717,0.628525581787425,-0.4031088239376222,0.0042159126507156745,-0.7604493099855626,-0.4904217706094243,-0.7896263903805887,0.6774558749026941,-0.681326929144984,-0.7112130376564935,-0.4260002868787969,-0.4904217706094243,-0.6088833905204165,-0.689704104364903,0.7054376386845383,0.5994853604289626,-0.8506024648186747,0.09637861721207364,-0.6783008129712951,0.3691873632766923,-0.5900323023667858,-0.5098557167542802,-0.29825047703436314,-0.6885756091625359,-0.5984302653609952,standing,2026-03-04_13-51-29,16,8.032109375,9.017010498046876
-0.1366475122480251,-0.5964918917313389,-0.34240666250596613,-0.5907941795394828,0.6170118153361341,-0.5336023495186166,-0.5947226214084689,-0.41952607082950055,-0.34240666250596613,-0.0027106335079590694,-0.793958101232486,-0.535448998901006,-0.7894152788925751,0.6779581283878937,-0.6701922995093151,-0.7019607253530962,-0.41291320836757084,-0.535448998901006,-0.0518311807038557,-0.5279913108774521,-0.4239949178240564,-0.5300432621016368,0.5460744602120453,-0.49633049909758253,-0.5156534665073748,-0.1323173956862967,-0.42399491782405635,0.1075712521200349,-0.6785490387609227,-0.4694112658405097,-0.6787860942234673,0.5972651786086224,-0.6466813011342234,-0.6383006931292174,0.46142269199731295,-0.4694112658405097,0.1969670315537476,-0.5838650658035663,-0.4045097170537081,-0.5780421475235414,0.5390537004551822,-0.552376185316583,-0.5627238340264381,0.43711225795922587,-0.4045097170537082,-0.22804528504071914,-0.7282890757893579,-0.48896594157731876,-0.7269180413099374,0.6140980020463037,-0.7181118212522555,-0.6964955947385328,-0.4260002868787969,-0.4889659415773188,-0.6075685884099228,-0.6770884692441548,1.3508903987892857,-0.08567505566172604,-0.872071485386006,-1.4325089596361602,-1.0954603959882079,0.06886012556528542,-0.5892243520852184,-0.5227454514890874,-0.29825047703436314,-0.6777666283586765,-0.6258263904516645,standing,2026-03-04_13-51-41,0,0.061607177734375,1.04712939453125
-0.1540915444317902,-0.5803383832746571,-0.3417256783920465,-0.574167938154488,0.5821915366055421,-0.5133424225515621,-0.5673946507382556,-0.5738004597222609,-0.34172567839204643,-0.0604030124706292,-0.7825346427319428,-0.5348176367969294,-0.782245915510553,0.647983524812825,-0.6873400827813194,-0.6975422386962251,-0.5860043799247507,-0.5348176367969295,-0.016123920254417074,-0.5340654133526312,-0.42414552290565577,-0.5360949173366674,0.598784965006726,-0.48358361446340753,-0.522691358077615,0.5136841202725217,-0.42414552290565566,0.12798007547722895,-0.6888553708117274,-0.46994036484852886,-0.6874878461122241,0.6178098951065067,-0.6609869947519207,-0.6562284612698419,0.46142269199731295,-0.4699403648485288,0.16196860206535754,-0.5869352051703115,-0.40461610207433846,-0.5842975224445516,0.5434211289322338,-0.552376185316583,-0.5649345389870198,0.43711225795922587,-0.4046161020743386,-0.16000313098591473,-0.7042207096820858,-0.4874792565360246,-0.7216569209786047,0.6140980020463037,-0.67130187594027,-0.672370989568384,-0.4260002868787969,-0.4874792565360246,-0.6074313536697026,-0.6819057487004105,1.5592908672658468,-0.03569736487510368,-0.7722216471456581,-1.0088070181302162,-1.25548070813868,0.5664507602404737,-0.5903925777020432,-0.5255072359292139,-0.29825047703436314,-0.6821700919729512,-0.6266150622446498,standing,2026-03-04_13-51-41,1,0.5596533203125,1.544553955078125
-0.10612991287753112,-0.5712784981672832,-0.3412899046951901,-0.57502974526675,0.5821915366055421,-0.5133424225515621,-0.5673946507382556,-0.41952607082950055,-0.34128990469519005,-0.03830996627365795,-0.7712372593633641,-0.5341154171410722,-0.7710494074395802,0.647983524812825,-0.6505741550092015,-0.6766223677742906,-0.41291320836757084,-0.5341154171410722,0.03705636537301421,-0.5256728426022574,-0.42393119558647613,-0.5273768129629934,0.5800734053155924,-0.4829958273398195,-0.5165906973750463,0.9443517975784006,-0.42393119558647613,0.045315590266620034,-0.6837130763931372,-0.4696842377150109,-0.6860874225173945,0.6219241245239918,-0.6609869947519207,-0.6583649024201642,0.46142269199731295,-0.4696842377150109,0.013815112008044682,-0.5667895456084242,-0.4038195721322688,-0.5685140412106904,0.5056538043157843,-0.5625206272840383,-0.5511408847719541,-1.0941943326663672,-0.403819572132269,0.09272381456948241,-0.7172056128668495,-0.48832355950180634,-0.7413713193162952,0.6846050040807198,-0.6193213734328509,-0.683056857863631,-0.20042172276698966,-0.48832355950180634,-0.6006670967374655,-0.6795640248983558,1.3598830202327523,-0.12985609466598508,-0.9905455366386411,0.21252153407386357,-0.5500321820423572,-0.396238946964792,-0.5834736190086367,-0.5175472580541672,-0.29825047703436314,-0.6818742720299212,-0.6232110869300284,standing,2026-03-04_13-51-41,2,1.057078369140625,2.041977783203125
-0.11988474487974911,-0.5899817546597315,-0.34214701010231346,-0.5889024691033712,0.6120599345315536,-0.5237692335584957,-0.5864375635435976,1.1232178180981032,-0.3421470101023134,-0.03572718811916675,-0.7838932472863711,-0.5348968713078508,-0.7828631511085548,0.6591886987020863,-0.6505741550092015,-0.6819215234235243,-0.23982203681039096,-0.5348968713078508,0.03985291436218106,-0.5270041021037102,-0.4239682059985044,-0.5286647690697732,0.5800734053155924,-0.4829958273398195,-0.5165906973750463,0.9443517975784006,-0.42396820599850427,-0.08000961544105548,-0.6831286042433699,-0.4696541351038226,-0.6858970585260614,0.6036032086605275,-0.6632313450821682,-0.6499900730722228,0.46142269199731295,-0.4696541351038226,-0.09759629889570691,-0.5643426943587578,-0.4037070059367262,-0.5585663390314151,0.49701542670568083,-0.5625206272840383,-0.5467683107654473,0.43711225795922587,-0.40370700593672637,0.2547584677022322,-0.7203465660959656,-0.4885129259264611,-0.7116338025334962,0.7218423153095733,-0.6193213734328509,-0.7028488954588938,-0.4260002868787969,-0.48851292592646106,-0.6061067247831731,-0.665063572826781,1.0445629614417653,-0.3572763490297674,-1.175944107730178,-0.14796260834090708,-0.46570137051994015,-0.7057262421993846,-0.5873424630877165,-0.5208585228782662,-0.29825047703436314,-0.6680477025427252,-0.618631044862363,standing,2026-03-04_13-51-41,3,1.554501708984375,2.539402587890625
-0.16073898201536502,-0.6256692314925182,-0.3433249787953212,-0.6050208445716598,0.6612464388087814,-0.5520070650727437,-0.6247995097796614,1.1232178180981032,-0.34332497879532115,-0.0686649742230374,-0.7942657235194202,-0.5354649067019392,-0.7933375666679889,0.6598992819896875,-0.6924895399938606,-0.7061074929792787,-0.41291320836757084,-0.5354649067019394,0.027199587181071596,-0.5296381950241315,-0.42403808865972714,-0.5314025748986123,0.587035156383962,-0.48857720252104025,-0.5226388674934742,0.9443517975784006,-0.42403808865972703,-0.10152899538451537,-0.6801254502764543,-0.46949627010727024,-0.6824289854350772,0.5959210280456972,-0.6856202531985697,-0.6573618997864451,0.46142269199731295,-0.46949627010727024,-0.0004819064341003832,-0.56630266274881,-0.40379744643766524,-0.5674943193988234,0.49701542670568083,-0.5396218046110407,-0.5347518954288619,0.43711225795922587,-0.40379744643766535,0.1429344171745842,-0.7207609665645209,-0.48853747753607607,-0.7368428849833608,0.7188239956769938,-0.6356168371128792,-0.7096428756986275,-0.4260002868787969,-0.48853747753607607,-0.6111226091776135,-0.6783851842380009,0.6063270185546611,0.21993799842822884,-1.064839690380467,-0.48011483615826633,-0.8401203245421536,-1.3230665861851276,-0.5915447033291731,-0.5273664886578435,0.1331930549149186,-0.68021543536213,-0.615632258660933,standing,2026-03-04_13-51-41,4,2.051927001953125,3.036827880859375
-0.1664631616045678,-0.6125338740263023,-0.34296122278602165,-0.5950011246994718,0.6311407984348992,-0.5489515271915009,-0.6103217702712739,-0.41952607082950055,-0.34296122278602165,-0.07227037608903676,-0.7689770576100708,-0.5339656374142968,-0.76932106475251,0.6034718066743633,-0.6790669107095111,-0.671784289868226,-0.41291320836757084,-0.5339656374142968,0.024230840507282875,-0.5252377342724623,-0.42391885277709734,-0.5270638860242197,0.587035156383962,-0.47771784638711884,-0.5149877020950574,0.9443517975784006,-0.42391885277709723,-0.01789025093615895,-0.6662103317333893,-0.4686950829441495,-0.669686460947543,0.5957488177642699,-0.6452088623114477,-0.6367661007730315,0.46142269199731295,-0.46869508294414947,0.09425405928306353,-0.5606520388953108,-0.40353073630348796,-0.5629134579056941,0.5044839717403249,-0.5396218046110407,-0.5385323235785546,0.8199389056156242,-0.40353073630348807,-0.024597855745589273,-0.7428448824226832,-0.4897000537000897,-0.7722993791947291,0.6651392543452973,-0.6688246420517454,-0.698223271908483,-0.31321100482289327,-0.4897000537000897,-0.6029637223134938,-0.6806609189272617,1.1941366176115429,0.4855565754521233,-0.7319688113287527,-0.7735933690557691,-1.0490787257808505,0.3658928722703064,-0.5843431089098021,-0.521657187056648,-0.29825047703436314,-0.6808699935841935,-0.6172229130849596,standing,2026-03-04_13-51-41,5,2.549350830078125,3.534251708984375
-0.14654229343483421,-0.6122602433002984,-0.3429527804361415,-0.6002764375727583,0.6311407984348992,-0.5489515271915009,-0.6103217702712739,-0.41952607082950055,-0.3429527804361415,-0.06329645754845685,-0.7721171590365155,-0.5341728888798924,-0.7723721447683237,0.6034718066743633,-0.6790669107095111,-0.671784289868226,-0.41291320836757084,-0.5341728888798926,0.015565096300641595,-0.5260007537025062,-0.42394041731407733,-0.5278894993767772,0.5833926095777859,-0.47771784638711884,-0.5138807163248026,0.2983502816195822,-0.4239404173140773,0.03989728379496838,-0.6661018038751423,-0.46868838353719355,-0.668912217310765,0.5957488177642699,-0.6360207357031668,-0.6321036738746143,0.46142269199731295,-0.4686883835371935,0.13095712698384604,-0.5662225801782107,-0.40379379420524875,-0.5670047672282165,0.5044839717403249,-0.5410772116283751,-0.5392960648177361,0.43711225795922587,-0.4037937942052489,-0.13954370804411134,-0.7289267840769703,-0.4890007086832698,-0.7464559567750938,0.6651392543452973,-0.6688246420517454,-0.698223271908483,-0.4260002868787969,-0.4890007086832698,-0.606058269063916,-0.6735725802474539,1.4418994730003885,0.33277255120533206,-0.6930233394264421,-0.8597087340716132,-1.2666712455833242,-0.04079870808286129,-0.5868569285916592,-0.5203549013451815,-0.29825047703436314,-0.6757207941773856,-0.6188021310537833,standing,2026-03-04_13-51-41,6,3.046775634765625,4.0316767578125
-0.1260442274597613,-0.6271443975705592,-0.3433607508778039,-0.6161769821191987,0.6553407991969662,-0.5487117392266547,-0.6202536975069302,-0.41952607082950055,-0.3433607508778039,-0.02278693740468274,-0.8040115847675363,-0.5359391789870783,-0.8007584463129918,0.6820824540980628,-0.6905649347830198,-0.715503264860079,-0.06673086525321109,-0.5359391789870784,0.036557101324896285,-0.5290847441018133,-0.4240237746616573,-0.5307582702029855,0.5833926095777859,-0.48143821968211337,-0.5165019759163303,0.9443517975784006,-0.42402377466165725,0.027082036019946357,-0.6706926499520562,-0.46896568165864694,-0.6736797198759842,0.6001771240697461,-0.6360207357031668,-0.634403209184202,0.46142269199731295,-0.46896568165864694,0.10836826350716632,-0.5840963396669115,-0.4045179189525192,-0.5852364001857616,0.5209228512125175,-0.5410772116283751,-0.5476170968819208,0.43711225795922587,-0.40451791895251926,-0.2425501341532891,-0.7697792795060308,-0.4907305175698366,-0.7483844503230336,0.6690354115156307,-0.7278864740135689,-0.7307330248226729,0.025156841344817524,-0.4907305175698366,-0.61333927530405,-0.6817605805170744,0.8903755521771488,-0.010850511830697717,-1.2140789450438716,-0.7267928900332149,-0.1906834453486065,0.7648842929155881,-0.5935700523568445,-0.526370700614591,-0.29825047703436314,-0.6852575431745215,-0.6255913290964772,standing,2026-03-04_13-51-41,7,3.544200927734375,4.5291015625
-0.13445578042490908,-0.6248934833916084,-0.34330575574409894,-0.6123050996688111,0.6553407991969662,-0.5487117392266547,-0.6202536975069302,-0.7280748486150214,-0.34330575574409894,-0.023107318445795534,-0.8093750079048159,-0.5361756143898662,-0.8057374517286743,0.6820824540980628,-0.6905649347830198,-0.715503264860079,0.10636030630396878,-0.5361756143898663,0.03654962850150077,-0.5297742152986552,-0.4240415765166673,-0.5314400268443625,0.5822356131906402,-0.48143821968211337,-0.5161503596969765,0.2983502816195822,-0.42404157651666724,-0.09153573604902267,-0.6781543492224062,-0.46938975274324246,-0.6807505593843288,0.590987536670508,-0.6771962118651758,-0.6505253323310969,0.46142269199731295,-0.46938975274324246,0.013701530935295768,-0.5817869291896876,-0.40443464444387356,-0.5830307981265752,0.5229866414622159,-0.5431033892750299,-0.5497250057983878,1.5855922009284207,-0.40443464444387367,0.01837876946098105,-0.7178957825604669,-0.488365665858639,-0.747949920589942,0.6690354115156307,-0.6703715339509854,-0.7010913490816133,-0.4260002868787969,-0.48836566585863905,-0.6137625487819454,-0.6824951377053325,0.3555644097226428,-0.5002932099098674,-1.3824642070820061,-0.3901356428711054,-0.7633046956836145,-0.6442736296974978,-0.5942287913129217,-0.5269247080956091,2.5061324806359684,-0.6854200941326138,-0.6360563605200421,standing,2026-03-04_13-51-41,8,4.041624755859375,5.0265263671875
-0.11131809809553252,-0.5979916310799376,-0.3424636474724437,-0.5971997394306383,0.6389683740651753,-0.5102387326089725,-0.5890886061580418,-0.7280748486150214,-0.3424636474724436,-0.02059754940182255,-0.7904083650266948,-0.5352612830016192,-0.787961381063987,0.6625484926864889,-0.6762908307428672,-0.6981432677133742,-0.41291320836757084,-0.5352612830016192,0.005097780989289984,-0.5316172827666963,-0.424087667658212,-0.5335485626122966,0.5822356131906402,-0.48855418770461473,-0.5211640499782937,0.2983502816195822,-0.4240876676582119,-0.1656457121702997,-0.6817971606938973,-0.46958480507403594,-0.6815422603726459,0.5828533486645944,-0.6869418795183407,-0.6512467488453214,0.6150789450628226,-0.469584805074036,-0.03334509770069248,-0.5712032432986119,-0.40401395589514344,-0.5703237381391857,0.5115254674826889,-0.5431033892750299,-0.5439235887165139,1.2027655532720225,-0.40401395589514355,0.16997501993587666,-0.7362570684084404,-0.48938320641558425,-0.7439022217609819,0.7041187812207226,-0.6346231567338544,-0.7013147770851387,-0.4260002868787969,-0.4893832064155842,-0.6103291524421772,-0.6787228946786452,0.9752823944499055,-0.4137624216488805,-0.7523192495109791,-0.7478323477107596,-0.5167521682145889,0.8570491616492429,-0.5920952149133571,-0.5269533778534101,-0.29825047703436314,-0.6810436498494931,-0.6252858178857233,standing,2026-03-04_13-51-41,9,4.539050537109375,5.525817138671875
-0.15090373379513242,-0.5912601297140841,-0.3421995734672761,-0.583508676791123,0.6389683740651753,-0.5102387326089725,-0.5890886061580418,-0.41952607082950055,-0.3421995734672761,-0.025892959678776452,-0.7830617294602901,-0.5348485096482313,-0.7815066933558251,0.6625484926864889,-0.6762908307428672,-0.6981432677133742,-0.41291320836757084,-0.5348485096482314,-0.010027983189530396,-0.5321862545057006,-0.4241014565351777,-0.5341974739097617,0.5900814676807532,-0.4917511150249384,-0.5258008949800346,1.1596856362313401,-0.42410145653517767,-0.059476884593472834,-0.6704457547004393,-0.4689510862135174,-0.6737009464001918,0.5828533486645944,-0.6475551892178192,-0.6312603498626088,0.6150789450628226,-0.4689510862135174,0.05482509738442573,-0.5630094302070645,-0.403644227354982,-0.5655869619255224,0.5115254674826889,-0.5437919057697724,-0.5442848955087916,0.628525581787425,-0.4036442273549821,-0.009973389802466646,-0.7023324339592636,-0.4873482353400893,-0.7331908157514644,0.6268523300636881,-0.6346231567338544,-0.6602468144507256,-0.4260002868787969,-0.4873482353400893,-0.6064827492228884,-0.6718445539486496,1.0936376321296202,-0.5399749349702287,-0.7862516638436662,-0.8908373222438518,-1.030488227753636,0.23208871732178893,-0.5887389409790287,-0.5296927075916747,-0.29825047703436314,-0.6752267958397207,-0.6114729680478679,standing,2026-03-04_13-51-41,10,5.036475341796875,6.023863037109375
-0.18352541519083415,-0.607487500760081,-0.34279985035805177,-0.5867904671640481,0.6524438811995892,-0.5268693131533778,-0.6052262472159953,-0.5738004597222609,-0.34279985035805177,-0.047598156224941526,-0.7962519890618898,-0.5355662392737732,-0.7950142446196699,0.6640735770936976,-0.6954605108494221,-0.709772089518309,1.144907335647048,-0.5355662392737732,0.004817637005254028,-0.5304266335630476,-0.4240581410720805,-0.5323655444475242,0.5887162759145684,-0.48750842454735943,-0.5223967392097273,1.1596856362313401,-0.42405814107208045,-0.0017021442954149727,-0.676692359290144,-0.4693092610848732,-0.679982409743372,0.5989589230633806,-0.6475551892178192,-0.6396236685800608,0.6150789450628226,-0.46930926108487325,0.16170026130155477,-0.5668370962501523,-0.4038217257300182,-0.5657587748546048,0.5162374989353588,-0.5437919057697724,-0.5466700316046816,0.628525581787425,-0.4038217257300183,-0.16083788978672237,-0.7132113697998307,-0.4880743849406249,-0.7292752853919086,0.6268523300636881,-0.6901832530764219,-0.6888810155493688,-0.31321100482289327,-0.4880743849406249,-0.6076525540353379,-0.6724446349609109,0.7952695826112064,-0.42717462461439165,-1.4204189042121416,-0.8829236632199787,0.08414715880574221,0.07341515147970193,-0.5897746103003431,-0.5280792951977349,-0.29825047703436314,-0.6781578922575079,-0.6069299193341877,standing,2026-03-04_13-51-41,11,5.535764892578125,6.5212880859375
-0.11741269088686404,-0.6095257128516688,-0.342866473101898,-0.6053165410577858,0.6610432201993595,-0.5268693131533778,-0.6088094169527343,-0.5738004597222609,-0.342866473101898,-0.030162414160758603,-0.8019400438817945,-0.5358431896588995,-0.7994445531333247,0.6640735770936976,-0.6749492830809148,-0.6981011685496565,-0.7590955514819305,-0.5358431896588995,-0.002098895513757105,-0.5291965990729024,-0.424026683418447,-0.5311803599099478,0.5745976633038973,-0.4856410261726443,-0.5167903206571574,1.1596856362313401,-0.4240266834184469,-0.06086665937037122,-0.6885470760704043,-0.4699254506707421,-0.6915756326330906,0.5944577240346923,-0.6739303939067094,-0.6506701266198748,0.6150789450628226,-0.4699254506707421,0.1553854550214467,-0.5768855775961153,-0.4042477927071793,-0.575598831665584,0.5162374989353588,-0.5498003641437919,-0.5498230378699314,0.628525581787425,-0.4042477927071794,-0.1850893245554302,-0.7406015732243957,-0.4895950197296995,-0.7463538915331166,0.6439838597690949,-0.6822301893033738,-0.6938878124032761,0.13794612340072113,-0.4895950197296995,-0.6135270157162183,-0.6868253999500465,0.9906617102745076,-0.5188239148968443,-1.5907124003543884,0.010273351070731436,0.7991563089423869,0.1767856983345956,-0.5945952068859928,-0.5211244772400823,-0.29825047703436314,-0.6926806146442215,-0.6118407687859475,standing,2026-03-04_13-51-41,12,6.033812255859375,7.01871337890625
-0.09888095041438243,-0.6202499773322623,-0.34318475893407285,-0.6178610858303856,0.6617159035834538,-0.543664168746055,-0.6197163234256426,-0.41952607082950055,-0.3431847589340728,-0.0225987987300533,-0.8080483482652051,-0.5361187550735501,-0.8044658032299383,0.6782812638013985,-0.6749492830809148,-0.7048202738508077,0.10636030630396878,-0.5361187550735501,0.004850433017564486,-0.5323620875078948,-0.4241056758246831,-0.5342912477210241,0.5745976633038973,-0.4856410261726443,-0.5167903206571574,0.2983502816195822,-0.424105675824683,-0.03523114359239554,-0.698406918353598,-0.47037454356052316,-0.7015768304138834,0.5944577240346923,-0.6739303939067094,-0.6506701266198748,0.6150789450628226,-0.47037454356052305,0.0738944387130763,-0.5833766432477522,-0.4044922950270611,-0.5854891796044829,0.5141797078504685,-0.5608102604449439,-0.5545589923707851,0.628525581787425,-0.4044922950270612,-0.030229013334547045,-0.7348759071209043,-0.4893135480951694,-0.7643798913379958,0.6745903072782992,-0.6678416928277339,-0.7027400237813483,-0.4260002868787969,-0.4893135480951694,-0.6199941636523704,-0.7021547647833775,1.0860161689415733,-0.9396541856666428,-1.6302584415619907,0.1989645643986702,0.1570619927930459,-0.2864537676572776,-0.6002188860115527,-0.5220402845125652,-0.29825047703436314,-0.7050312095560043,-0.622625251503611,standing,2026-03-04_13-51-41,13,6.5312373046875,7.516138427734375
-0.10032560426949165,-0.618778694847195,-0.3431443011329228,-0.6163797602534468,0.6617159035834538,-0.5406431363191331,-0.6178048248580584,1.2774922069908636,-0.3431443011329228,0.005391908724227011,-0.8096834699555768,-0.536188681844722,-0.8023159864533714,0.6782812638013985,-0.6846341450761959,-0.7103309756096159,-0.41291320836757084,-0.536188681844722,0.009197431488034766,-0.5354194675277215,-0.42417587231642917,-0.5372985996222402,0.59678573689418,-0.4884955532268003,-0.5255445836344113,0.2983502816195822,-0.4241758723164291,-0.0005596292585863101,-0.7041485641931626,-0.4706095336287649,-0.7071333243588982,0.6177075161344798,-0.6823319635293861,-0.6670065979068651,0.0004539328007843344,-0.4706095336287649,-0.039048055075427426,-0.5809245933472528,-0.40440276688318144,-0.578929176868788,0.5139798330150552,-0.5704841986120825,-0.5595343278336746,0.628525581787425,-0.40440276688318155,0.1540247864230488,-0.7597851653923958,-0.4903978448627803,-0.7650261210679834,0.722290108405378,-0.6678416928277339,-0.7280929890207444,-0.4260002868787969,-0.49039784486278026,-0.6196381151976185,-0.6993949529345225,1.0845929006712929,-0.22041114867003636,-1.0040277403928162,-0.47888901262640404,-0.049137409641276594,-0.21734972748573964,-0.5997527702218327,-0.5297574186914658,-0.29825047703436314,-0.7016668654011381,-0.631190639888363,standing,2026-03-04_13-51-41,14,7.028662109375,8.013563232421875
-0.130376447841748,-0.6211818446568723,-0.3432098559443296,-0.610872165476529,0.6446139945161355,-0.5406431363191331,-0.6106788070313262,1.4317665958836239,-0.3432098559443296,-0.01702094938427272,-0.8136335050410135,-0.5363509180818615,-0.8089758959781272,0.6794152914338447,-0.6846341450761959,-0.7108672804447085,-0.23982203681039096,-0.5363509180818615,0.019282341820114374,-0.532534179791407,-0.42410978616054124,-0.5343480249157713,0.5937261953044471,-0.4884955532268003,-0.5246147756776282,0.2983502816195822,-0.4241097861605412,-0.04396802999763537,-0.687677471015052,-0.46988307899417575,-0.6908985804985501,0.5945181927120042,-0.6865832979122118,-0.6571221218785754,0.6150789450628226,-0.4698830789941758,-0.025796800422334,-0.5641443804963079,-0.4036977324717664,-0.5641376522226076,0.5084126080732214,-0.5220575820928262,-0.5313038969618961,0.628525581787425,-0.40369773247176655,0.13666422009578347,-0.7620677883431834,-0.4904789919609932,-0.771034681731199,0.7001862013821175,-0.682493757938899,-0.7238958070582927,-0.4260002868787969,-0.49047899196099315,-0.6168401294385113,-0.6858561707907311,0.7465534440952336,-0.27663599953263124,-0.7060462672061342,-1.3173381574585097,0.8397890496030047,-0.603702127771351,-0.5958874396568461,-0.5317583750278917,-0.29825047703436314,-0.6896444918361769,-0.6243481561335609,standing,2026-03-04_13-51-41,15,7.526087646484375,8.51098779296875
-0.12582837677726416,-0.5377543859768138,-0.33934097000272373,-0.5425308192195797,0.46909502652236923,-0.4783136200058157,-0.49810585165308846,-0.5738004597222609,-0.3393409700027237,0.025395310526251758,-0.760333880038657,-0.5333642958108021,-0.7555368828988586,0.661878532665362,-0.6268601485164678,-0.6697002937399564,-0.5860043799247507,-0.5333642958108021,0.11682522973484577,-0.5150369122498843,-0.4235947087929048,-0.5158224948685068,0.5991897247380421,-0.4618896102001197,-0.5075294440117571,-0.5629850729921756,-0.42359470879290473,-0.09125864819903388,-0.6238662615562398,-0.4655515492239161,-0.627249092022621,0.5840226533680365,-0.5652768930695945,-0.5901162137631094,0.30776643893180344,-0.4655515492239161,-0.37238232856118153,-0.5224230893680566,-0.4012462336325115,-0.4882631802279593,0.45799325473339375,-0.5302520113588273,-0.510082747659254,-0.9027810088381681,-0.40124623363251155,0.02091983983075784,-0.6797836959077914,-0.48562194551358756,-0.7109142883453904,0.6055579010560331,-0.637052436285398,-0.6501805791674758,-0.4260002868787969,-0.4856219455135876,-0.5853139407308581,-0.6110792744934864,-0.25660299530579994,-0.347990160816213,1.1328542864609892,-0.2042850046822612,-1.3229533736037478,-2.3868429852761146,-0.5678900388564412,-0.5079520241206,-0.29825047703436314,-0.6149633185298132,-0.5741793144122064,standing,2026-03-04_13-52-06,0,0.064174072265625,1.0490732421875
-0.1525644425640041,-0.5742866989761809,-0.3414388873246001,-0.5695794671147362,0.5819941855033545,-0.5190479133744953,-0.5709224551144835,-0.41952607082950055,-0.3414388873246001,0.0034654829110866633,-0.7957737931700026,-0.5355420619804057,-0.7902724104140142,0.6621058008714238,-0.6642934276078979,-0.6911073683933544,1.317998507204228,-0.5355420619804057,0.03060806358237225,-0.5245800935578909,-0.42389996700599253,-0.5263558126932446,0.5871242791265255,-0.4763141934278453,-0.5140258165590772,-0.1323173956862967,-0.4238999670059925,-0.12532410092043694,-0.6598585416848178,-0.46829124390823884,-0.661918241079806,0.5840226533680365,-0.6589329885268906,-0.637641102924658,-0.6141710794612538,-0.46829124390823884,-0.07882010034850026,-0.541371522529359,-0.40248312155253263,-0.5391962986210884,0.4581778374011748,-0.5531574568792093,-0.5221960704650356,-1.0941943326663672,-0.4024831215525328,-0.054586879603992895,-0.7178948826428817,-0.4883656111378695,-0.7467469242040563,0.651102702253386,-0.637052436285398,-0.6743881384089795,-0.4260002868787969,-0.48836561113786947,-0.6008201927029259,-0.6601438289239235,0.6956834466239655,-1.4736659168725863,-0.6723524996746888,0.9473161865625367,-0.23509539450192507,-0.17875479812561515,-0.5839226252558107,-0.517687107803414,-0.08252871105972226,-0.6646411679119226,-0.5920566543593982,standing,2026-03-04_13-52-06,1,0.561598388671875,1.546498291015625
-0.10744692845301103,-0.5973434975105845,-0.34243915069608594,-0.5973753294980395,0.6744763195079635,-0.5190479133744953,-0.6094578801934586,1.1232178180981032,-0.34243915069608594,0.022507658895730854,-0.7955261078693985,-0.5355294846510753,-0.7872027706350536,0.6621058008714238,-0.6657608006424898,-0.6919423059656702,0.9718161640898682,-0.5355294846510753,0.0015962542820546328,-0.530548013694871,-0.42406119274492693,-0.5325061296177763,0.5870002633036762,-0.49059172013099894,-0.524047629938545,-0.1323173956862967,-0.4240611927449269,0.15750833977679343,-0.6791627659524915,-0.4694445346021258,-0.6766468742190098,0.6136445251165749,-0.6622448687812766,-0.6547037599279135,0.15411018586629388,-0.46944453460212576,0.10904262077478209,-0.5637706881649852,-0.4036801968601097,-0.5655399630929243,0.51022274086095,-0.5185405376918122,-0.5303745412850684,0.628525581787425,-0.4036801968601098,-0.05262314408611142,-0.7415527918268062,-0.4896399174212108,-0.7694616131230242,0.662188116683766,-0.6712254389880375,-0.697892017121944,0.9274710977920462,-0.4896399174212109,-0.6086116352895358,-0.6844846266130709,1.3265010309053868,-1.3229583017879467,-1.2520681844810895,-0.30341627797752846,0.6203852096738592,1.331841003895529,-0.591132719606078,-0.5264345270510744,-0.29825047703436314,-0.686552144223998,-0.6122622533814542,standing,2026-03-04_13-52-06,2,1.0590224609375,2.043924072265625
-0.11582285752255575,-0.6088052015891249,-0.34284314561030826,-0.605095542402095,0.6739914862296597,-0.5194337724564319,-0.6095000047319321,0.9689434292053428,-0.34284314561030826,0.011828428682041002,-0.7964697503621291,-0.5355772032028604,-0.7897108084140874,0.6623344571162034,-0.6654287016455106,-0.6918614773218176,1.317998507204228,-0.5355772032028604,0.018765872899527754,-0.5279353616707503,-0.42399342065459705,-0.5297876698695994,0.5870002633036762,-0.4845188187068802,-0.519768852019192,1.8056871521901585,-0.423993420654597,0.18683428760539827,-0.6823868401825249,-0.4696156400030518,-0.6776235283578049,0.6099849329136915,-0.6664766994151781,-0.654950805191274,0.46142269199731295,-0.46961564000305167,0.11029395767507387,-0.5671582713526239,-0.4038362380541748,-0.5687831155186208,0.51022274086095,-0.5185405376918122,-0.5303745412850684,1.2027655532720225,-0.40383623805417496,-0.06610022963810559,-0.7530019643289164,-0.4901386556274938,-0.7788812446307378,0.662188116683766,-0.6712254389880375,-0.697892017121944,0.7018925336802391,-0.4901386556274938,-0.6083875440281145,-0.689604305856938,0.9675600654935184,-1.3226798775383848,-1.4206958303508863,0.19874039045754593,1.0538430910025962,1.738475736456256,-0.5900336465505587,-0.5254548933954905,-0.29825047703436314,-0.689359366262445,-0.6180612372125287,standing,2026-03-04_13-52-06,3,1.556447265625,2.54134814453125
-0.14006036934077387,-0.6100803495753021,-0.3428842635080475,-0.6003726267893388,0.643693630427318,-0.5300186862544323,-0.6035728992046093,1.1232178180981032,-0.34288426350804746,-0.005768435426761475,-0.7953811177240476,-0.5355221048656819,-0.7910680510473193,0.6623344571162034,-0.6654287016455106,-0.6918614773218176,1.317998507204228,-0.535522104865682,0.03218433278570665,-0.5273607130333433,-0.42397792723035455,-0.5290973185555793,0.5919332725290913,-0.4845188187068802,-0.5212680149147274,1.1596856362313401,-0.4239779272303545,0.11074264129631785,-0.6817448747173951,-0.46958206104764444,-0.681690070964641,0.6099849329136915,-0.6568865553154827,-0.650084378364959,0.6150789450628226,-0.4695820610476444,0.10198136399870611,-0.5657561069722524,-0.4037724473379995,-0.5676897169159575,0.5016920562428296,-0.5484063933871428,-0.541728923772161,1.2027655532720225,-0.4037724473379996,-0.0974335365318957,-0.7597438190990464,-0.49039634680616073,-0.7802026736454887,0.6794602217643925,-0.7104678516063232,-0.7272968289934246,0.9274710977920462,-0.49039634680616073,-0.6061745189283398,-0.6883789790007074,0.4852021894918343,0.008767155596980544,-1.332993267550022,0.18687972386377386,0.6842083530916693,1.1871432234712935,-0.587782942123421,-0.5285515491289622,-0.29825047703436314,-0.6887225215181494,-0.6272027719518668,standing,2026-03-04_13-52-06,4,2.053871826171875,3.03877294921875
-0.13116587174638641,-0.595118506634188,-0.34235354861047235,-0.5908777659805254,0.6340704820306616,-0.5236483587790373,-0.5955324300842739,1.1232178180981032,-0.34235354861047235,-0.008159514198454844,-0.7778595758086385,-0.5345364320766028,-0.7752432847021846,0.6364106131992602,-0.6634180337256331,-0.6784574887008327,-0.7590955514819305,-0.5345364320766028,0.01071448911728855,-0.519745152569896,-0.4237526078955598,-0.5216956672653015,0.5591458442506366,-0.48354078307480086,-0.5106146797178152,0.2983502816195822,-0.42375260789555974,0.012877275358261593,-0.6798387864317055,-0.46948092193027835,-0.6829315463208565,0.5957295803462783,-0.6568865553154827,-0.6426818446832104,0.6150789450628226,-0.4694809219302783,0.07455802525741054,-0.5548263643216759,-0.40323662924169856,-0.5575166909188893,0.5016920562428296,-0.5398461321134373,-0.5372368301687711,-0.13712771352537156,-0.40323662924169873,0.08789784049848023,-0.7149780450809171,-0.48818575110370843,-0.7399037338788207,0.6848322535713423,-0.6162720379146003,-0.6816060967427571,-0.4260002868787969,-0.4881857511037084,-0.5979765068521615,-0.6752966120275353,1.099184880227052,0.6087690803893584,-0.6023097245075612,0.7015738477912925,-1.6606148058436396,0.10305039438197831,-0.5794666348841163,-0.5201019110490188,-0.29825047703436314,-0.6788497447478058,-0.6056474515025823,standing,2026-03-04_13-52-06,5,2.551297119140625,3.536197021484375
-0.11298952289379524,-0.590208942137698,-0.34215640772764283,-0.5903514996066649,0.6340704820306616,-0.5078090616083307,-0.5855104278099739,1.1232178180981032,-0.34215640772764283,0.006989110098098643,-0.7648488951334359,-0.5336840752212322,-0.7617684146749826,0.6364106131992602,-0.6432692845520225,-0.6669928186246968,-0.23982203681039096,-0.5336840752212322,0.0009744210342570478,-0.5205134278449732,-0.42377702476757656,-0.5225116219664655,0.5591458442506366,-0.48354078307480086,-0.5106146797178152,0.2983502816195822,-0.4237770247675765,-0.06201409018528707,-0.6962826245688649,-0.4702826534184945,-0.6991959898715476,0.5957295803462783,-0.7098991876509474,-0.6695825975237306,-0.6141710794612538,-0.47028265341849446,0.06951680708522968,-0.546269398846474,-0.40276941083934226,-0.5491648343242822,0.4868666099463032,-0.5398461321134373,-0.5297324857146419,0.05428561030282759,-0.4027694108393424,0.18228119060150036,-0.7281457191898532,-0.48895809308429194,-0.7348839041224003,0.6849572129906528,-0.6162720379146003,-0.6816725140388308,-0.4260002868787969,-0.48895809308429194,-0.5979839311324622,-0.6749072423866134,1.3106121421724686,0.424625670925729,-0.38204112665325535,0.9244257039732919,-1.4771444141291747,0.5060078376520629,-0.5796418770444064,-0.5167527556420333,-0.29825047703436314,-0.6800682064593729,-0.6016266609518458,standing,2026-03-04_13-52-06,6,3.048720947265625,4.03362158203125
-0.1310477753899843,-0.5911629180177461,-0.34219560344327216,-0.5877000842971825,0.6127227959396427,-0.5078090616083307,-0.5766152810140649,1.1232178180981032,-0.3421956034432721,-0.0035848992434731387,-0.7899143759750725,-0.5352345544003131,-0.7858394223344733,0.6430821750284291,-0.6432692845520225,-0.6701479365109202,1.317998507204228,-0.5352345544003131,0.03566795947411081,-0.5278713349702897,-0.4239917048737828,-0.5295674374852634,0.5797977499813339,-0.4874425156316557,-0.519639923126496,0.08301644296664276,-0.4239917048737828,-0.037130983846829176,-0.7052505848258811,-0.47065240284012544,-0.7083454849254699,0.6063051825668586,-0.7098991876509474,-0.6750743067797738,0.30776643893180344,-0.47065240284012544,0.08790602467606735,-0.5541358216507846,-0.40320047962538985,-0.5566705261820417,0.4868666099463032,-0.5366703953822722,-0.5280659820648133,0.628525581787425,-0.40320047962539,0.04008542021234865,-0.7442490649979936,-0.48976429586073406,-0.7721029341379801,0.6839025878991492,-0.6753856702265941,-0.7115775686398068,-0.4260002868787969,-0.48976429586073406,-0.6046642778419642,-0.6912567554433736,0.8196280514318476,0.13920338924737205,-0.7907254355397858,0.568480378775453,0.2034610504778989,0.37266005256678864,-0.5860332460254497,-0.5278258620037354,-0.29825047703436314,-0.6937132262235738,-0.6195479731038404,standing,2026-03-04_13-52-06,7,3.546145751953125,4.53104541015625
-0.12381346868168369,-0.6032540123196068,-0.3426552134391907,-0.5989526402892393,0.6127227959396427,-0.5343514586197958,-0.5934094582018151,1.1232178180981032,-0.3426552134391907,-0.004365482357928448,-0.8104935218842156,-0.5362227235668291,-0.8045035920461497,0.678908657301846,-0.6903689671488598,-0.713890805622721,0.7987249925326882,-0.5362227235668292,0.03289703159372851,-0.5292222197688345,-0.4240273485484259,-0.5309333627999886,0.5938801610212084,-0.47631607474798915,-0.5160802838834687,0.2983502816195822,-0.42402734854842583,-0.09213235796617457,-0.7045937097183737,-0.4706269366312037,-0.7066202681639395,0.6030876251420229,-0.7053397034572186,-0.6710898237443965,0.6150789450628226,-0.47062693663120364,0.10734452161254693,-0.5537920966424329,-0.40318238402172146,-0.5558926916780381,0.48374438910247386,-0.5366703953822722,-0.5264855763080268,-0.13712771352537156,-0.4031823840217216,-0.019530793975480264,-0.7617269450356087,-0.4904670692327789,-0.7907620684192039,0.6839025878991492,-0.6956739550311181,-0.7220336129104535,0.5891032516243355,-0.49046706923277883,-0.6117995308720288,-0.6967622479260179,0.18162663613009325,0.27690502489319646,-1.512548581794398,0.7127676535601694,0.8065969516835486,0.6271439523348401,-0.592456862623787,-0.5248110765611003,-0.29825047703436314,-0.6974647947663102,-0.6172711446205482,standing,2026-03-04_13-52-06,8,4.04356982421875,5.028470703125
-0.11354472543909701,-0.6113200760380015,-0.34292350443512953,-0.6075848044730531,0.6625708006714219,-0.5092928384198585,-0.5983247616320541,-0.41952607082950055,-0.34292350443512953,0.009522782584611887,-0.8033891048108122,-0.5359106085158458,-0.7961541185515039,0.6778776221422611,-0.6707951999348178,-0.7022657035983643,0.7987249925326882,-0.5359106085158459,-0.014621808271954358,-0.5282364410283767,-0.4240014537140116,-0.5302746705549042,0.5845318686491197,-0.47631607474798915,-0.51323929729284,0.2983502816195822,-0.42400145371401154,-0.07704271697222319,-0.700341182763056,-0.4704558887706034,-0.7028894742906846,0.6030876251420229,-0.6945796936396629,-0.6656297597575342,0.6150789450628226,-0.4704558887706034,0.1218330847049184,-0.5469746016688931,-0.4028095002926878,-0.5488084861902017,0.48374438910247386,-0.5228412695645648,-0.5192285866391465,-0.13712771352537156,-0.4028095002926879,-0.020992346322377887,-0.7585941231909091,-0.49035428923167884,-0.7876784024322666,0.6850419887268785,-0.6751061277343705,-0.7120391038318594,0.5891032516243355,-0.4903542892316788,-0.612783392326487,-0.6942344870260573,0.2978419003774862,-0.5576798277763197,-1.8993865594863741,0.20676665699958516,0.898122730520308,1.551979846462887,-0.5938659920876832,-0.5202023201522338,-0.29825047703436314,-0.6941410020756269,-0.6055271966399334,standing,2026-03-04_13-52-06,9,4.54099462890625,5.53024755859375
-0.13654536620435911,-0.6084205384046072,-0.34283059144726036,-0.600012001594118,0.6625708006714219,-0.5092928384198585,-0.5983247616320541,-0.41952607082950055,-0.3428305914472603,-0.012544399834584313,-0.8056814003749221,-0.5360146593408088,-0.8012240087912423,0.6778776221422611,-0.6707951999348178,-0.7022657035983643,0.7987249925326882,-0.5360146593408088,0.030907572357931373,-0.5329815281521962,-0.4241203820279902,-0.5346732636833931,0.5845318686491197,-0.4928901916613252,-0.5249169058243913,0.2983502816195822,-0.42412038202799013,0.06629322292790338,-0.7023352653375262,-0.47053742975279833,-0.7034736622981472,0.6291176125728372,-0.6856081929093797,-0.6745941353903374,-0.4605148263957443,-0.4705374297527983,0.11699519021748601,-0.5688258113051934,-0.4039106368743973,-0.5701403251296345,0.48586867739363154,-0.5228412695645648,-0.5203038588932072,0.24569893413102672,-0.4039106368743975,-0.05328689722957363,-0.7464349991901688,-0.4898620005450806,-0.7740345181676319,0.6839020318885115,-0.6751061277343705,-0.7114332043225401,-0.31321100482289327,-0.48986200054508067,-0.6142247353893696,-0.6993863118805197,0.3394874805914208,-0.9019810159924259,-1.7460510162850702,0.26553007771134046,0.5728566812425662,1.0463758970113852,-0.5952355824305698,-0.5275207331116348,-0.29825047703436314,-0.7021235229267712,-0.6158904982970574,standing,2026-03-04_13-52-06,10,5.038418701171875,6.028293212890625
-0.10997172181596418,-0.6196416403748425,-0.34316815440913223,-0.6148711418341518,0.6690093434676361,-0.5343443562964365,-0.6168584243970988,-0.7280748486150214,-0.34316815440913223,-0.02047128046379659,-0.8186522859289215,-0.5365434024423142,-0.813941617293383,0.6866333703741704,-0.6994172419746185,-0.7226924629020349,0.27945147786114866,-0.5365434024423142,0.08414937843843258,-0.537702397431684,-0.4242243800124011,-0.5383961451496879,0.592965526154215,-0.4935598162111677,-0.5279517275939977,0.7290179589254612,-0.42422438001240104,0.10272531051611002,-0.6968678771197462,-0.47030823631859264,-0.6964635466779336,0.6283212018825107,-0.674844261142312,-0.6687185203111151,0.30776643893180344,-0.47030823631859253,0.06411206167717991,-0.5842651759401927,-0.4045238872302698,-0.5864336907827113,0.5141920437756706,-0.5624620997955263,-0.5554320578898829,1.2027655532720225,-0.4045238872302699,-0.011010696364267145,-0.7457742560403924,-0.4898327630581333,-0.7754381671427858,0.6839020318885115,-0.6982116438234556,-0.7233411749297813,-0.4260002868787969,-0.48983276305813317,-0.6205835927118182,-0.7012553240541131,-0.4116312389296273,-0.01013436117655083,-1.199821418345838,0.6670374448197371,-0.4383339316198165,-0.8046858116693528,-0.6010505062688716,-0.5327805977986357,-0.29825047703436314,-0.7039201850288738,-0.6308209744459702,standing,2026-03-04_13-52-06,11,5.540196533203125,6.52571826171875
-0.10505335829922358,-0.6230416752870919,-0.343258721168041,-0.6186269334437012,0.680903050254603,-0.536195323225642,-0.622985452962618,1.2774922069908636,-0.34325872116804096,-0.010002817906156083,-0.8126526941209347,-0.5363115170923772,-0.8072075187567258,0.6866333703741704,-0.6724002425397186,-0.7073197475885727,0.7987249925326882,-0.5363115170923772,0.04375380265459906,-0.5303572864471979,-0.42405639334549655,-0.5319310976344073,0.5711396136597328,-0.49444466378545837,-0.5219421742857878,0.2983502816195822,-0.4240563933454965,0.0019905758610600384,-0.6949539629716668,-0.470223821097744,-0.6980120980728829,0.6283212018825107,-0.674844261142312,-0.6687185203111151,0.30776643893180344,-0.470223821097744,0.03377661153020978,-0.5772260512079193,-0.40426121683754457,-0.5792354286913333,0.5091497069766665,-0.5491047451402931,-0.5458703053996361,0.628525581787425,-0.40426121683754473,0.09071064214806271,-0.7467142989654928,-0.4898742823411322,-0.7681520035539595,0.6916696951004068,-0.6439950266505848,-0.6995279652173684,-0.4260002868787969,-0.4898742823411321,-0.6159068085034838,-0.6973331447078336,0.27234023212445113,-0.5346019295407547,-1.2342212273113946,0.3967703847823769,-0.40856899494058446,0.3594045147195896,-0.5967737370902212,-0.5244370501061989,-0.29825047703436314,-0.7004295920636561,-0.6250891952567607,standing,2026-03-04_13-52-06,12,6.0382421875,7.02314404296875
-0.1403738872901991,-0.6212489538461291,-0.34321164752620614,-0.608190660364265,0.6679049681891399,-0.5481621293155512,-0.625141176486496,0.9689434292053428,-0.34321164752620614,-0.007431568274013326,-0.7987806177864252,-0.5356917799789099,-0.7943531625095673,0.6601343232125692,-0.6724002425397186,-0.6947878068214343,0.7987249925326882,-0.53569177997891,0.02430075237001287,-0.5248024648875551,-0.4239063839696177,-0.5266310901391714,0.5711396136597328,-0.48322077051834406,-0.5140341673338269,0.2983502816195822,-0.4239063839696176,-0.015203325378843948,-0.6985579303437558,-0.47038097409878693,-0.7017241688789131,0.6222701908844971,-0.6788227962591601,-0.6675952148547378,0.6150789450628226,-0.4703809740987869,0.07787509229004007,-0.5640413009233993,-0.4036929034189397,-0.5665088975639329,0.5016474662528422,-0.5213195108576225,-0.5274922062524994,0.628525581787425,-0.4036929034189399,0.07093750406926455,-0.7475854965885682,-0.4899122978272106,-0.7718669729311087,0.7014067599054231,-0.6439950266505848,-0.7047033215019293,-0.4260002868787969,-0.48991229782721063,-0.6097414128432957,-0.6939276076922659,0.6410900549511563,-0.5281905636695652,-1.2004524066984952,0.5555625663281026,0.052086233278622614,1.2122079669634311,-0.5897134584634577,-0.5197426548483025,-0.29825047703436314,-0.6983002904205292,-0.6164593535245401,standing,2026-03-04_13-52-06,13,6.535667236328125,7.52056884765625
-0.10036352867376926,-0.6180993209530915,-0.3431252751427871,-0.6158312607645969,0.6679049681891399,-0.5393781787082477,-0.6195833053249812,1.2774922069908636,-0.3431252751427872,0.017098028689129498,-0.79595784055731,-0.5355513837184119,-0.788452795923868,0.6601343232125692,-0.6753957478047371,-0.6964922540443789,-0.41291320836757084,-0.5355513837184118,0.0266259672988357,-0.5284242106642052,-0.4240064341503422,-0.5302046461025932,0.5747996070060518,-0.48322077051834406,-0.5151464551832878,1.1596856362313401,-0.42400643415034217,-0.019531579265105944,-0.6946659332807371,-0.4702109294161126,-0.697884194986585,0.6034101151634581,-0.6760745343047574,-0.6564069567244197,0.6150789450628226,-0.47021092941611253,0.06405994477681617,-0.5690191000127035,-0.4039191576873398,-0.5714871655484284,0.5016474662528422,-0.5213195108576225,-0.5274922062524994,0.628525581787425,-0.40391915768734,-0.03446984268307096,-0.7580413983735501,-0.4903337935972526,-0.7864972716864285,0.6720575676216103,-0.7065510455604086,-0.7213436194448354,-0.20042172276698966,-0.49033379359725254,-0.6132900858606041,-0.6994891918295293,0.4619470105466108,0.07853098566418204,-1.179191737163958,0.658917225299802,0.3127292070430953,1.2789290291402078,-0.5933745995960461,-0.5212100486725251,-0.29825047703436314,-0.7033896817724132,-0.6163774257162458,standing,2026-03-04_13-52-06,14,7.033091796875,8.0179921875
-0.10785256334931695,-0.6111346896399393,-0.34291768248506044,-0.6086624404776353,0.6538705071653411,-0.5393781787082477,-0.6137354307367993,-0.41952607082950055,-0.34291768248506044,0.020741421170969138,-0.7919780998458382,-0.5353452355145588,-0.7843933501508139,0.6061493333610076,-0.6726544313273556,-0.6694018360512309,0.4525426494183285,-0.5353452355145588,0.008249152543136164,-0.5261151277925269,-0.4239436176021343,-0.5280525949214507,0.556708707980503,-0.48869842224897114,-0.5135079359726178,0.7290179589254612,-0.4239436176021342,0.030841844204507682,-0.683122231486042,-0.4696538057666964,-0.6858541363652757,0.5862750598070737,-0.6575356674037763,-0.6381016775553324,0.30776643893180344,-0.4696538057666964,0.056603946962848026,-0.5804547581706562,-0.4043852195760255,-0.5826954470890147,0.4976392394794586,-0.5596227641064138,-0.5455633859471538,1.0113522294438233,-0.40438521957602563,-0.11780795376034509,-0.7589598074557576,-0.49036775063957694,-0.7755965929378819,0.6720575676216103,-0.7002943316432485,-0.718119074918922,-0.20042172276698966,-0.49036775063957694,-0.6101319613766123,-0.6974367150368276,0.3415390317338954,-0.849187911904704,-1.432204005832481,1.2990609627144405,0.8644014632253558,1.2577552183094483,-0.5913909121890101,-0.5167926292983623,-0.29825047703436314,-0.702184244848237,-0.6125134148261333,standing,2026-03-04_13-52-06,15,7.53051708984375,8.515417236328124
-0.13138986305729872,-0.6128484184134088,-0.3429708838463457,-0.6045808044604808,0.6538705071653411,-0.5378839851557929,-0.6127900092941962,1.1232178180981032,-0.3429708838463457,-0.013405123204605518,-0.795816269219663,-0.5355442151550392,-0.7922969689886417,0.6061493333610076,-0.6704124939114344,-0.6681261701236137,0.4525426494183285,-0.5355442151550394,0.013560914857955601,-0.5238550446545068,-0.42387882411382577,-0.5257692054356389,0.556708707980503,-0.48577497616688137,-0.51144816656902,0.7290179589254612,-0.4238788241138257,0.1014732623012554,-0.6828309501057868,-0.469638726987166,-0.683170325218632,0.5862750598070737,-0.6575356674037763,-0.6381016775553324,0.30776643893180344,-0.46963872698716597,0.0641622349332972,-0.5805098547715088,-0.4043872838523588,-0.5827520184744857,0.4976392394794586,-0.5596227641064138,-0.5455633859471538,1.0113522294438233,-0.40438728385235895,-0.1332758564870004,-0.7595861120770822,-0.4903906235614775,-0.7727305646852567,0.6654152262537977,-0.7002943316432485,-0.714588597939412,-0.20042172276698966,-0.49039062356147745,-0.6089595894930271,-0.6948972050465393,0.4903342772591294,-1.2836461278392386,-1.438834850933347,1.278054954628093,1.2733930288520803,1.6954095957019875,-0.5897663395712303,-0.5156546124676527,-0.29825047703436314,-0.6997595711073724,-0.613059373476032,standing,2026-03-04_13-52-06,16,8.027941162109375,9.012841552734375
-0.09787787138788442,-0.6021019660845418,-0.34261439160829327,-0.6031142260787143,0.6605088790263166,-0.4999144909885534,-0.591531636795736,1.1232178180981032,-0.34261439160829327,-0.007047979798556228,-0.786973632100802,-0.535072375114054,-0.7835251033286429,0.6457323110843756,-0.6775980763778041,-0.6909343767154172,0.10636030630396878,-0.5350723751140541,0.03099523527955762,-0.5236802771376187,-0.42387367737578485,-0.5254597238399653,0.5558077395699548,-0.4896918219955579,-0.5139340464048177,0.2983502816195822,-0.42387367737578474,-0.0036415099763163245,-0.6866223943073251,-0.46983106878802966,-0.6898276055626675,0.600485665092913,-0.6647619006012404,-0.6491478576905162,0.0004539328007843344,-0.4698310687880296,-0.007963453423822195,-0.5599987901362803,-0.4034987243125366,-0.5610923976405953,0.4873616984355009,-0.5301825176672046,-0.5249119989889007,0.43711225795922587,-0.4034987243125367,0.08089224304655517,-0.7245257622766953,-0.48875590961590987,-0.7495310623779186,0.6721501036777356,-0.6540576962398934,-0.6943391224052009,-0.4260002868787969,-0.48875590961590987,-0.6053640640083167,-0.6824935196130464,1.020190741097413,-0.4847190287818586,-1.6347917677576742,0.4222659724747955,-0.09863571294701909,-0.16186177259038753,-0.5866548144996592,-0.5190174982254915,-0.29825047703436314,-0.6851711199859281,-0.6111527357774698,standing,2026-03-04_13-52-17,0,0.070171630859375,1.05507177734375
-0.08370246489777602,-0.5543752489080225,-0.3403734416263505,-0.5624611263806599,0.6174614564102159,-0.47918930265543436,-0.5604811975911235,-0.5738004597222609,-0.3403734416263505,-0.033725102121803574,-0.7493734370199279,-0.5325365869539709,-0.750232091963508,0.6199479187906144,-0.6023105108050727,-0.6359016672146447,-0.5860043799247507,-0.5325365869539709,0.06637637277842061,-0.5139768365349681,-0.42355719734792174,-0.5154922128506944,0.5558077395699548,-0.4716667682766679,-0.5012341528183297,-0.1323173956862967,-0.4235571973479217,-0.5124270438108104,-0.6404545850971439,-0.4669095593991199,-0.6168627938405559,0.4889952350189366,-0.6931578102771877,-0.6056622286587126,-0.7678273325267634,-0.4669095593991198,-0.10950275191175488,-0.5495405469218841,-0.40295296720853035,-0.5441659309000263,0.46672699853448335,-0.5301825176672046,-0.5144671265265384,0.43711225795922587,-0.4029529672085305,0.5207155110085544,-0.6522359917247204,-0.4831079465340927,-0.5946192193751273,0.733768775259512,-0.4825822274574506,-0.6387162074516026,-0.4260002868787969,-0.48310794653409267,-0.588319490730461,-0.6148206087258403,1.4968617857583524,0.974561989451371,0.007555394893887276,0.7474760187808118,-3.6118274116679197,-1.421430953420663,-0.5724978515894769,-0.5019669624886579,-0.29825047703436314,-0.621684252085948,-0.5036432104212349,standing,2026-03-04_13-52-17,1,0.567595703125,1.55249560546875
-0.15467849912494386,-0.5417837919067153,-0.3396032300460713,-0.5418027947536393,0.6174614564102159,-0.47918930265543436,-0.5604811975911235,-0.7280748486150214,-0.33960323004607124,-0.018916822181011882,-0.727540735156865,-0.5306707532870594,-0.7289832338790138,0.6199479187906144,-0.6023105108050727,-0.6359016672146447,-0.41291320836757084,-0.5306707532870594,0.008930966991344151,-0.5098681410369029,-0.4234050016784064,-0.5118636344880308,0.5645478746302278,-0.4716667682766679,-0.5038903177646312,-0.1323173956862967,-0.42340500167840633,-0.5756114059309618,-0.637252318951198,-0.4666600991797007,-0.60760085816702,0.4889952350189366,-0.696851344507354,-0.6075364772492176,-0.7678273325267634,-0.46666009917970064,-0.0692706240487974,-0.5509557581498538,-0.4030304818795535,-0.5488303633117999,0.46672699853448335,-0.5477204820257234,-0.5236703710295276,0.43711225795922587,-0.40303048187955365,0.2443542670949295,-0.5668205532448182,-0.47248133907331297,-0.58477090111191,0.635838303927311,-0.4825822274574506,-0.5866650924176345,-0.4260002868787969,-0.47248133907331297,-0.5732424315978001,-0.6026822767821524,1.3914902333637638,0.911741603271737,0.7031389593811694,0.7440243535709518,-3.3464874700144653,-2.057007804894804,-0.5593048225132488,-0.5105736458910464,0.34891482088955944,-0.611674753788687,-0.511465891060718,standing,2026-03-04_13-52-17,2,1.06501953125,2.04991943359375
-0.16319907282647628,-0.5730009000855766,-0.3413757294445946,-0.5663517068591323,0.6264271101778291,-0.5037357946102824,-0.5797483109499774,-0.41952607082950055,-0.3413757294445946,0.01548343724462677,-0.7368648252256775,-0.5315029566157559,-0.7351782541145515,0.6380215709351439,-0.6433706524255794,-0.6678123519292075,-0.41291320836757084,-0.5315029566157558,-0.02626642842795034,-0.5175599439642676,-0.42368109024056694,-0.5196417644256475,0.5645478746302278,-0.4826833400639378,-0.511652252434463,-0.1323173956862967,-0.4236810902405669,-0.10985925302522775,-0.6695791122682196,-0.468899568034754,-0.6718708299732861,0.5672932641143462,-0.6622186635630662,-0.630621133354487,-0.30685857333023475,-0.46889956803475397,0.12681009453839123,-0.5612543838638157,-0.4035600373373003,-0.562421064455432,0.5165789677465488,-0.5258664542327998,-0.5374362935205953,-0.13712771352537156,-0.4035600373373004,-0.1900065152927542,-0.7041994523471627,-0.48747779320707796,-0.7163369580683344,0.635838303927311,-0.6777013633694292,-0.6872243236588605,-0.20042172276698966,-0.487477793207078,-0.5827206058342138,-0.6613487341873615,1.3230713559861311,0.2225541639008166,0.7083293056422121,0.36414822397911334,-0.4034453747682149,-0.14856089686609653,-0.5673392943776036,-0.5239019561328297,0.5646365868642004,-0.6674848215567317,-0.6112428334679391,standing,2026-03-04_13-52-17,3,1.562444580078125,2.54734423828125
-0.09461941015012888,-0.583183913505633,-0.3418545621939312,-0.5871942306901977,0.6457519571008137,-0.5037357946102824,-0.5878005817888641,-0.41952607082950055,-0.3418545621939312,-0.03561715153518158,-0.7592971184505364,-0.5332891212324183,-0.7596732701159775,0.641405146649578,-0.6433706524255794,-0.6694125140095958,-0.41291320836757084,-0.5332891212324185,0.013825567008772988,-0.5266600849379433,-0.4239587508184515,-0.528557601199818,0.5805387917739052,-0.4826833400639378,-0.5165119614988352,-0.1323173956862967,-0.42395875081845147,0.18161978607298582,-0.6811906084441456,-0.4695528729721842,-0.676910635279425,0.6271068679251701,-0.6622186635630662,-0.6616812011249985,-0.30685857333023475,-0.4695528729721841,0.20576737918777777,-0.5742262858456659,-0.4041406595578641,-0.5686735716794444,0.5165789677465488,-0.5258664542327998,-0.5374362935205953,0.43711225795922587,-0.4041406595578642,-0.1911281835346036,-0.7204473741568902,-0.4885189076877208,-0.7294108237625978,0.6388596895614068,-0.6777013633694292,-0.6888302231206208,-0.4260002868787969,-0.4885189076877209,-0.6004046223922522,-0.6696993200983765,1.3188708792433093,0.38599895692422176,0.20677701015189343,-0.027207439890626958,-1.4519344966057721,-0.4203088780563584,-0.5838450062344546,-0.5201631550734117,-0.513972243009004,-0.6742939995454584,-0.6225039102429547,standing,2026-03-04_13-52-17,4,2.059868408203125,3.044769287109375
-0.11324614111829953,-0.6114495971720478,-0.3429275623570673,-0.6077527279495893,0.6457519571008137,-0.5365693281916859,-0.6085753513180762,1.5860409847763843,-0.34292756235706723,-0.05140033586079854,-0.8066042950245446,-0.5360556512888297,-0.8049186480633967,0.6659182805496595,-0.6964368111429967,-0.7112000038768757,-0.7590955514819305,-0.5360556512888297,0.039094037974373004,-0.5299288015611721,-0.42404552604702694,-0.5315639463081431,0.5647991048082862,-0.4941804010159289,-0.519829074802175,0.2983502816195822,-0.42404552604702683,0.2680918242760404,-0.6939733381016421,-0.47017972898624033,-0.6804029698667661,0.6227436109086484,-0.6673357182457443,-0.6620120450931407,0.6150789450628226,-0.4701797289862403,0.08658026195204298,-0.5718426589086587,-0.40404119169003033,-0.5740032901963713,0.49325633635067406,-0.546393126992465,-0.5364024468137744,-0.13712771352537156,-0.4040411916900304,-0.13490371274025695,-0.7295682881984362,-0.48903544190827847,-0.7478176988882972,0.6388596895614068,-0.7083926100612683,-0.7046476782294749,-0.4260002868787969,-0.4890354419082784,-0.6141962336813558,-0.6838405189957657,0.6736427307367268,0.3580835453208056,-0.8041400581622526,0.8716551765822272,-0.6525857733713312,-0.7239054229819355,-0.5941105845740373,-0.5257524833371461,2.2904107146613275,-0.6860057504938689,-0.6154022576719668,standing,2026-03-04_13-52-17,5,2.557293212890625,3.542192626953125
-0.10101629592314479,-0.6161314517620149,-0.3430689368650299,-0.6141185772792561,0.6684139391339659,-0.5414748183845115,-0.6211219904924371,-0.5738004597222609,-0.3430689368650299,0.0026906251429622296,-0.8117955966923559,-0.5362766082919319,-0.8045926447671135,0.6774716670852606,-0.6840370129287787,-0.7096083316486298,0.7987249925326882,-0.5362766082919319,0.0890630701541709,-0.5282427391071602,-0.4240016211317426,-0.5291650273888292,0.5647991048082862,-0.49261501723496176,-0.5187261539593115,1.1596856362313401,-0.4240016211317425,0.04750123768254323,-0.6795752017503823,-0.4694667664747086,-0.6819734908961876,0.6153120058633723,-0.6769174825644254,-0.663015128408849,0.6150789450628226,-0.4694667664747085,-0.012744935485725119,-0.5695308238528987,-0.40394161293356734,-0.5700001145528714,0.49325633635067406,-0.5494376565358502,-0.538000098012714,0.628525581787425,-0.40394161293356745,0.08855356873316671,-0.7594271720462347,-0.49038484080085476,-0.7794526602692113,0.6918344767958878,-0.6714374653126154,-0.7137586540443382,-0.31321100482289327,-0.4903848408008547,-0.6123713541909295,-0.6917349593813114,0.52815630554744,0.46856668487291786,-1.0965189077285236,0.6185555551370449,0.07273666677612395,0.9632950184807549,-0.5906180453888235,-0.5302781876103968,-0.513972243009004,-0.6932074750178214,-0.6153393849830326,standing,2026-03-04_13-52-17,6,3.05471728515625,4.039616455078125
-0.11098663969659,-0.6114490939591148,-0.3429275466066106,-0.6082447186571233,0.6684139391339659,-0.5414748183845115,-0.6211219904924371,-0.5738004597222609,-0.3429275466066107,-0.013074546474529667,-0.8112619996232641,-0.5362546503764751,-0.8063490816306975,0.6774716670852606,-0.6840370129287787,-0.7096083316486298,-0.06673086525321109,-0.536254650376475,0.06226329105888846,-0.53272699414087,-0.424114368880616,-0.5339952290287467,0.5809274134555891,-0.49261501723496176,-0.5236276168974321,1.1596856362313401,-0.42411436888061593,-0.11485374239920251,-0.6865232116730006,-0.4698261456573493,-0.6882607981263981,0.6153120058633723,-0.679574797689605,-0.6643635575332413,0.6150789450628226,-0.4698261456573493,0.011402147304574475,-0.5673792535178036,-0.40384618886322415,-0.5690027765235887,0.507367120163927,-0.5494376565358502,-0.5451426946087579,0.628525581787425,-0.40384618886322426,0.17086191697585817,-0.7523000403168366,-0.49011029291263863,-0.7554792988199015,0.7219181432460372,-0.6714374653126154,-0.7297484513131415,-0.31321100482289327,-0.49011029291263863,-0.6151608390912808,-0.6833662493863201,0.5564402932207745,0.45386205591764484,-0.8844336665144952,-0.8889144335620821,0.15715317421145672,-0.8176399564738099,-0.5944976078132748,-0.5328261969465835,3.153297778559891,-0.6869369450017064,-0.6247184518148103,standing,2026-03-04_13-52-17,7,3.552140380859375,4.5370419921875
-0.12359777303605926,-0.6203257720212038,-0.3431868155254053,-0.6120331466009029,0.6700030192989226,-0.5486287688705533,-0.6263106486874525,-0.41952607082950055,-0.34318681552540525,-0.0344982330437535,-0.8130445853666978,-0.5363273300636607,-0.810123088681498,0.6712986887635269,-0.7004294594130726,-0.7160163320070904,-0.06673086525321109,-0.5363273300636607,0.028004690801977396,-0.5380021146187083,-0.4242305002988162,-0.5396647244667511,0.5960314648086671,-0.49341852906836986,-0.5287839331093944,-0.1323173956862967,-0.42423050029881615,-0.12714868949360478,-0.7035165555308158,-0.4705846235860152,-0.7041497942776004,0.6137445217101846,-0.7112425260245481,-0.6796190784200742,0.6150789450628226,-0.4705846235860151,0.07532957353480306,-0.5749543985102473,-0.40417039498719315,-0.5772251256001769,0.5313094356308029,-0.5544848119124678,-0.5599103676094737,0.628525581787425,-0.40417039498719326,0.028898979486357584,-0.7285845217472965,-0.48898207861897064,-0.7578420087191327,0.6846473720913098,-0.6717124450160282,-0.7100803466529723,-0.4260002868787969,-0.48898207861897064,-0.6200788383250317,-0.6916234685465682,0.7385721141821996,0.10063402688017974,-0.6976866003229047,-1.359349903485286,-0.3968049860921606,-1.0479534051847825,-0.6008781304986321,-0.5345687260171035,-0.29825047703436314,-0.6972847729250105,-0.6311294845930675,standing,2026-03-04_13-52-17,8,4.0495654296875,5.03446630859375
-0.11937371233951742,-0.6211436364956372,-0.34320883497099375,-0.6137038186659505,0.6665020818751963,-0.5383150961837047,-0.6183261066594719,-0.5738004597222609,-0.34320883497099375,-0.05267196106196745,-0.812179933887889,-0.5362923170872069,-0.8102286636666527,0.6712986887635269,-0.7076634185049864,-0.7201324661461602,0.10636030630396878,-0.5362923170872069,0.010671265909542479,-0.535227781233143,-0.42417164732624985,-0.5370961671864709,0.5950710327737985,-0.49375547350612065,-0.5287294542455513,0.08301644296664276,-0.42417164732624973,-0.1546821569373417,-0.7057732465761047,-0.47067248319276905,-0.7047542131291694,0.6121335562736158,-0.7128816300351425,-0.6796142823240369,0.30776643893180344,-0.47067248319276905,0.08409686265487633,-0.580661540893246,-0.40439295802220243,-0.5826682480903742,0.52174913465804,-0.5607618454503116,-0.5583650785424065,0.628525581787425,-0.4043929580222025,-0.08195190777879273,-0.7522499370629131,-0.49010825732780083,-0.7761438275372128,0.67400972097045,-0.6867223818592895,-0.712162042533974,-0.4260002868787969,-0.4901082573278009,-0.6181353234431902,-0.7008774148556897,0.7520232191271293,-1.1586648127512762,-1.187805791111296,0.056129218710658145,-0.04693583897602829,1.6593691667470714,-0.5989525738098632,-0.5330370347680369,-0.08252871105972226,-0.7046194821683017,-0.636291846868412,standing,2026-03-04_13-52-17,9,4.546990234375,5.53251171875
-0.09914687800680469,-0.6143234545144273,-0.3430155666655201,-0.6130466035467808,0.6665020818751963,-0.5351074333002224,-0.6162965213586228,-0.5738004597222609,-0.34301556666552,-0.014599434340708298,-0.8073415103446026,-0.5360880249049681,-0.8029718324686765,0.6758967058201253,-0.6906219253705053,-0.7126103258614148,0.10636030630396878,-0.5360880249049681,0.007438338791396595,-0.5309395671455083,-0.4240709725935386,-0.5328585454938721,0.5950710327737985,-0.4902152679702287,-0.5262351352670173,0.2983502816195822,-0.42407097259353854,-0.09770067956345907,-0.696732627874258,-0.4703023422492978,-0.6987762020428553,0.6121335562736158,-0.6768805714840337,-0.6613458897652205,0.6150789450628226,-0.4703023422492978,0.05696364104122705,-0.5719302837344004,-0.40404490582112246,-0.5743397932360335,0.5068201696933321,-0.5354187916412878,-0.5375092818293976,0.628525581787425,-0.40404490582112257,-0.11465662745136765,-0.7440196846371068,-0.4897538806598827,-0.7637348618956985,0.67400972097045,-0.6867223818592895,-0.712162042533974,-0.4260002868787969,-0.4897538806598826,-0.6139870659213592,-0.6932914929760856,0.5631769938302014,-0.7726145088679524,-1.4714528837137866,-0.08985079778275824,-0.22292365710230846,0.9061567981708628,-0.5944491725288572,-0.5300362737073178,-0.29825047703436314,-0.6951697318030188,-0.6313678990190287,standing,2026-03-04_13-52-17,10,5.044414306640625,6.030556640625
-0.09214741280533198,-0.6028233036827234,-0.34264002484693296,-0.6047170461868178,0.6239850716417366,-0.5345127659115213,-0.5982042835260819,-0.41952607082950055,-0.34264002484693296,0.051035133377684866,-0.8024761781144703,-0.5358682821825494,-0.7874704306959852,0.6758967058201253,-0.6805602025403009,-0.7068851896928183,1.144907335647048,-0.5358682821825494,0.01115374713834031,-0.5303324538942898,-0.42405576675135825,-0.5322283811525613,0.5986318716169717,-0.4902152679702287,-0.52731728963299,1.1596856362313401,-0.4240557667513582,0.0336001806956479,-0.6915545859360067,-0.47006853893735995,-0.6940798359950715,0.6229565345410449,-0.6768805714840337,-0.6669660567012962,0.6150789450628226,-0.4700685389373599,0.053634000791807114,-0.5718083774031764,-0.40403973741255267,-0.574206250662974,0.5068201696933321,-0.5354187916412878,-0.5375092818293976,0.628525581787425,-0.4040397374125528,-0.07542823704728074,-0.7391325159850436,-0.4895246365292848,-0.7649877938469195,0.6803725716767268,-0.7039871514513644,-0.7244417718394331,-0.4260002868787969,-0.4895246365292848,-0.6093995378393862,-0.6916697234876726,0.5798324913510118,0.46091052281373335,-1.2344927573550148,-0.16797862886898018,-0.40815454925601674,-0.29390908049927045,-0.5906171232243678,-0.5302820117229267,-0.29825047703436314,-0.6926501725373803,-0.6345207139819695,standing,2026-03-04_13-52-17,11,5.542460693359375,6.527982177734375
-0.10793050038529005,-0.6009230437699152,-0.34257196979810867,-0.6002832950457091,0.6239850716417366,-0.5313919035656663,-0.5962296195500957,-0.41952607082950055,-0.34257196979810867,0.011350316052037266,-0.7974102026126421,-0.5356242231997991,-0.7906129668540174,0.6687769000210202,-0.6805602025403009,-0.7035180880757759,-0.23982203681039096,-0.535624223199799,0.02458635821832455,-0.5316957519528306,-0.4240895816745034,-0.533466789741692,0.597920634330478,-0.49108393619128293,-0.5277131782137149,1.1596856362313401,-0.4240895816745034,0.08967559121628324,-0.6875393641035077,-0.4698763084921521,-0.6882230254123975,0.6268032585404173,-0.6795364438500084,-0.6703112843816678,0.6150789450628226,-0.4698763084921521,0.047673107436572236,-0.5769991999298785,-0.4042522799643701,-0.5792440866937139,0.5133446606060136,-0.5491716380991555,-0.5480288098755,0.628525581787425,-0.40425227996437024,0.10941213974424116,-0.7448933153376865,-0.48979338339424466,-0.7633620087183783,0.7007091333583456,-0.6773180645341579,-0.7215063359097015,-0.20042172276698966,-0.48979338339424466,-0.6094784192652357,-0.6910018101489342,0.6854592533635638,-0.006025649417290587,-1.0975486237176766,-0.6235900570383647,-0.5719184248380569,-0.04991108941832432,-0.5913671006353497,-0.5312798295244049,1.4275236507627638,-0.6915061451017982,-0.6371131012702678,standing,2026-03-04_13-52-17,12,6.040505615234375,7.0254072265625
-0.11899933049159196,-0.6169571618859184,-0.34309279844834684,-0.6106830054185742,0.6769129142299042,-0.5313919035656663,-0.6182835755341397,-0.41952607082950055,-0.34309279844834684,-0.02582979115927556,-0.8109522206893253,-0.5362418235309969,-0.8074523269571138,0.6687769000210202,-0.7034934918217477,-0.7165671658674991,-0.41291320836757084,-0.5362418235309969,0.03231583958147392,-0.5297599420080523,-0.42404121107530085,-0.5314716178667586,0.597920634330478,-0.49328200793660293,-0.5292618713658344,1.1596856362313401,-0.4240412110753008,-0.012874369018409841,-0.6679537302939884,-0.4688017464904097,-0.6713974828887889,0.5800149001530928,-0.6795364438500084,-0.6460149790298356,0.6150789450628226,-0.4688017464904096,0.07618939144416376,-0.5843530552160928,-0.40452698726202435,-0.5864149224679784,0.5141031922670769,-0.5617330673168193,-0.5550045150213762,0.628525581787425,-0.40452698726202446,0.11872422952150463,-0.7531735661018024,-0.4901455455673963,-0.7683609427047882,0.7221103998100278,-0.6773180645341579,-0.7328813427568587,-0.20042172276698966,-0.4901455455673963,-0.6114837925508095,-0.6878115471248013,0.7998872390039775,-0.4790737565156926,-1.130474374399807,-1.5957297168340874,-0.14204716665609168,-0.20102380448498877,-0.5920841104284706,-0.5333414802045058,2.0746889486866866,-0.6885500091089399,-0.6321515030272234,standing,2026-03-04_13-52-17,13,6.53793115234375,7.522830810546875
-0.11405639482309865,-0.6221990264336432,-0.34323678340172215,-0.6158123398167834,0.6777412984022508,-0.545533474888792,-0.6275765461718033,-0.5738004597222609,-0.34323678340172215,-0.029068624929436893,-0.8195204781608139,-0.5365751504256797,-0.8156643530928328,0.6855091515486634,-0.7088263033670352,-0.7275145676326766,0.7987249925326882,-0.5365751504256797,0.010810940675067673,-0.5281882126688342,-0.4240001708480216,-0.5300985528011224,0.5722237707417817,-0.49328200793660293,-0.5214524830871076,0.9443517975784006,-0.4240001708480216,-0.0807475273257468,-0.6710857069083975,-0.46898884309772393,-0.674018330137502,0.5800149001530928,-0.686327352429272,-0.6494609605856531,0.6150789450628226,-0.4689888430977239,0.09102045873428889,-0.5947279099116233,-0.40486190411974,-0.5961892947536142,0.5397277419776566,-0.5641028981334264,-0.5692187451125845,0.8199389056156242,-0.40486190411974016,0.006918725981653239,-0.7675329850584465,-0.490660852949431,-0.7964238334771868,0.705934449844034,-0.7012894332859332,-0.7366378568098771,-0.31321100482289327,-0.490660852949431,-0.614713607139252,-0.70110230778158,0.35240535756332736,0.11384108707641047,-1.1156104976400283,-0.7579803228113174,-0.11129591024981711,0.49049243578216345,-0.5933833601976927,-0.5291534806599371,-0.29825047703436314,-0.7023064846067424,-0.6250446764169733,standing,2026-03-04_13-52-17,14,7.03535498046875,8.0202548828125
-0.09282880940216302,-0.6260073131351442,-0.3433332677164974,-0.6237347793766671,0.6777412984022508,-0.5447333305211878,-0.6270702706353654,-0.5738004597222609,-0.3433332677164974,-0.015032785172125236,-0.8078250653650961,-0.5361090804619645,-0.8034617736093183,0.6996501198619953,-0.6628759694063395,-0.7080563079051327,-0.06673086525321109,-0.5361090804619646,-0.0006632693155240179,-0.5291380447287308,-0.42402516172968296,-0.5311145057241572,0.5722237707417817,-0.4921851355821083,-0.5206796608588197,0.9443517975784006,-0.42402516172968296,-0.004495689617892134,-0.6831767437884622,-0.4696566221256879,-0.6864239931230153,0.5974290563201271,-0.686327352429272,-0.6585038009472712,0.46142269199731295,-0.4696566221256879,0.07759974877782744,-0.5871144355698313,-0.40462214600285124,-0.5890950753187161,0.5102636081752848,-0.5604688823660863,-0.5523975990293436,0.8199389056156242,-0.40462214600285135,-0.08003289727652663,-0.7692145122025803,-0.49071328106613743,-0.791367536857623,0.6759216032631047,-0.7305405569271188,-0.7357609549323533,-0.31321100482289327,-0.49071328106613743,-0.617445295107316,-0.7029299730224419,0.35866075998320185,-0.44505996948005416,-1.7131833069430442,0.19899971921194745,1.1555292579546352,1.2397350988791858,-0.5958702911459793,-0.5246803832822489,-0.29825047703436314,-0.70491980567152,-0.6270529490589373,standing,2026-03-04_13-52-17,15,7.53277880859375,8.51767919921875
