time,seconds_elapsed,acc_x,acc_y,acc_z,gyr_x,gyr_y,gyr_z,activity,session
1772632625104443000,0.06744287109375,0.0241596414076164,0.0209590552680194,0.1108954929113388,-0.0411104373633861,0.0250025894492864,-0.0157391987740993,standing,2026-03-04_13-57-05
1772632625114392000,0.07739208984375,0.0284866377612575,0.0310147314667701,0.1058522380471229,-0.0458205193281173,0.0191696044057607,-0.0152520649135112,standing,2026-03-04_13-57-05
1772632625124340000,0.087340087890625,0.0181477241743356,0.0055757543057203,0.1041997946649789,-0.042703554034233,-0.0120828570798039,-0.0175056308507919,standing,2026-03-04_13-57-05
1772632625134289200,0.0972890625,0.0184971951991319,-0.0038024610228836,0.0498240613549947,-0.0361286513507366,-0.0426899045705795,-0.0201989002525806,standing,2026-03-04_13-57-05
1772632625144238000,0.107238037109375,0.0315493132675066,0.0188780112102627,-0.0649029725432396,-0.0232498701661825,-0.0542437620460987,-0.016488317400217,standing,2026-03-04_13-57-05
1772632625154187000,0.11718701171875,-0.022335165926814,0.0698617639943957,-0.1657289068609476,-0.0143410442396998,-0.0373454727232456,-0.0113539537414908,standing,2026-03-04_13-57-05
1772632625164135000,0.127135009765625,-0.0414524292530491,0.0967011094726622,-0.2405032850772142,-0.0015898291021585,-0.0045068329200148,-0.0054380078800022,standing,2026-03-04_13-57-05
1772632625174083800,0.137083740234375,-0.0247582648878917,0.0820318019986152,-0.2245797397583722,0.0102121168747544,0.0117251342162489,-0.0050884746015071,standing,2026-03-04_13-57-05
1772632625184033000,0.147032958984375,0.0019745880085974,0.0580585134759545,-0.1630553037375211,0.0159456357359886,0.0256947465240955,0.0036349752917885,standing,2026-03-04_13-57-05
1772632625193982000,0.15698193359375,0.0239210103461518,0.0488848808087408,-0.0877145238101482,0.0177022740244865,0.0360416658222675,0.006422970443964,standing,2026-03-04_13-57-05
1772632625203931000,0.166930908203125,0.0431896648418158,0.027547932139039,2.33808755874e-05,0.0162279475480318,0.0303462296724319,0.0104390168562531,standing,2026-03-04_13-57-05
1772632625213878800,0.176878662109375,0.0529478559313341,0.0015228256531059,0.1050876834154129,0.0111199840903282,0.006937701255083,0.0109929256141185,standing,2026-03-04_13-57-05
1772632625223827700,0.18682763671875,0.0467964571621268,-0.0375189987942576,0.1196580605596303,0.0070490767247974,-0.0192028228193521,0.0087420213967561,standing,2026-03-04_13-57-05
1772632625233777200,0.196777099609375,0.0238898114902898,-0.0454424852699041,0.057296589192748,0.0080429632216691,-0.026548346504569,0.0036595195997506,standing,2026-03-04_13-57-05
1772632625243726000,0.20672607421875,-0.0128614543344825,-0.0104078506372869,0.0022112463086843,0.01324731297791,-0.0193167980760335,0.0022762736771255,standing,2026-03-04_13-57-05
1772632625253675000,0.216675048828125,-0.0516794799633324,0.0047946869306266,-0.0023638065218925,0.0130960782989859,-0.0154640078544616,-0.0051431818865239,standing,2026-03-04_13-57-05
1772632625263623000,0.226622802734375,-0.0148087524773553,-0.0006584639087319,0.0236082546025514,0.0059686601161956,-0.0059578549116849,-0.0063168369233608,standing,2026-03-04_13-57-05
1772632625273572000,0.236572021484375,0.0096276965776458,0.0352832025662064,0.0379494991660118,-0.0046650758013129,0.0115724019706249,-0.0001457601319998,standing,2026-03-04_13-57-05
1772632625283521000,0.24652099609375,0.0118527887485921,0.0711743078976869,0.051503977265954,-0.0159158650785684,0.0167461261153221,0.0044103758409619,standing,2026-03-04_13-57-05
1772632625293470000,0.256469970703125,0.0273835718901827,0.0583909603007137,0.0141074358075857,-0.0193288549780845,0.0213375464081764,0.0112520791590213,standing,2026-03-04_13-57-05
1772632625303417900,0.26641796875,0.0283066415518522,0.0434353832311928,-0.044482115805149,-0.0097619816660881,0.0335851572453975,0.0151980845257639,standing,2026-03-04_13-57-05
1772632625313366800,0.27636669921875,-0.0168954590909183,0.0461544329315423,-0.0227647895157337,0.0050469981506466,0.0287949331104755,0.0186887886375188,standing,2026-03-04_13-57-05
1772632625323316000,0.28631591796875,-0.048483277737908,0.0207142867267131,0.0356990898907184,0.0151265300810337,-0.0100382138043642,0.0084068570286035,standing,2026-03-04_13-57-05
1772632625333265200,0.29626513671875,-0.0465056575220078,-0.0467117745533585,0.0323041867554187,0.0193762760609388,-0.0433070883154869,-0.0026889103464782,standing,2026-03-04_13-57-05
1772632625343214000,0.306214111328125,-0.0416332657126709,-0.0370968278594315,-0.0126765262216329,0.0223441030830144,-0.0336922779679298,-0.0016718491679057,standing,2026-03-04_13-57-05
1772632625353162000,0.316161865234375,-0.0822329505939036,0.0479578290916979,-0.0543213727742433,0.0210349857807159,-0.007484511937946,0.0007697225082665,standing,2026-03-04_13-57-05
1772632625363111000,0.32611083984375,-0.1023757210429757,0.0558462442539632,-0.0380745868504047,0.0131371160969138,-0.0017059850506484,-0.0011964892037212,standing,2026-03-04_13-57-05
1772632625373060000,0.33606005859375,-0.080632968051359,0.0020987258449196,-0.0333025501430034,0.0093649718910455,0.0130728306248784,0.0010052025318145,standing,2026-03-04_13-57-05
1772632625383009000,0.346009033203125,-0.0925042057720944,-0.0186553083702921,0.001665302863717,0.0070983553305268,0.0303069446235895,-0.0014869837323203,standing,2026-03-04_13-57-05
1772632625392958000,0.3559580078125,-0.1185836727937683,-0.0335370895512402,0.0592220042973756,0.0034912703558802,0.0289050545543432,-0.0109370285645127,standing,2026-03-04_13-57-05
1772632625402905900,0.36590576171875,-0.0924900311162695,-0.0649668315596878,0.0745353087633848,-0.0027991160750389,0.0203017126768827,-0.0203680805861949,standing,2026-03-04_13-57-05
1772632625412854800,0.375854736328125,-0.0813225942833349,-0.0597533346951007,0.0957522843152284,-0.0103454058989882,0.0263450890779495,-0.0213428530842065,standing,2026-03-04_13-57-05
1772632625422804000,0.385803955078125,-0.0821975870195776,-0.0368989671997725,0.118983522298932,-0.0150048723444342,0.0255051292479038,-0.0226962715387344,standing,2026-03-04_13-57-05
1772632625432753000,0.3957529296875,-0.0251289978964254,-0.0323608853787183,0.1737865411102771,-0.0215399973094463,0.0040186140686273,-0.0230154860764741,standing,2026-03-04_13-57-05
1772632625442700800,0.40570068359375,0.0145184642938897,-0.0121592243492603,0.1433130769133567,-0.0208414494991302,-0.0158182065933942,-0.0193347316235303,standing,2026-03-04_13-57-05
1772632625452649700,0.415649658203125,-0.0240557061091065,0.0164845402024686,0.0500847581177949,-0.0100076422095298,-0.0135009922087192,-0.015542559325695,standing,2026-03-04_13-57-05
1772632625462599000,0.425598876953125,-0.0759963942918926,0.0174598149754106,0.0320902517437934,0.0046184374950826,-0.0166776105761528,-0.017923692241311,standing,2026-03-04_13-57-05
1772632625472548000,0.435548095703125,-0.1175523935172706,-0.007320990537852,0.0345259544581174,0.0105885155498981,-0.0472206100821495,-0.0350027121603488,standing,2026-03-04_13-57-05
1772632625482497000,0.4454970703125,-0.0834563914416357,-0.0327674203529953,-0.0503828642815351,0.0121967978775501,-0.0530971400439739,-0.0386967808008194,standing,2026-03-04_13-57-05
1772632625492445000,0.45544482421875,-0.0358580433120951,0.044323710373044,-0.112760117739439,0.0086130611598491,-0.0164333973079919,-0.0289663635194301,standing,2026-03-04_13-57-05
1772632625502393900,0.465393798828125,-0.0324309549402445,0.1420274210169911,-0.0806809719115495,-0.0012957621365785,0.0183000825345516,-0.0201411787420511,standing,2026-03-04_13-57-05
1772632625512343000,0.475343017578125,-0.0204500097673386,0.0989309143513441,-0.0020937574088573,-0.0164744984358549,0.0162997804582119,-0.0164956208318471,standing,2026-03-04_13-57-05
1772632625522292000,0.4852919921875,0.0332254297861829,0.0188119602367281,0.0036976854741573,-0.0238471943885087,0.0024263092782348,-0.0152806863188743,standing,2026-03-04_13-57-05
1772632625532241000,0.495240966796875,0.0265880375983193,0.047286213440448,-0.088501874795556,-0.0151456473395228,0.0055062570609152,-0.0090689612552523,standing,2026-03-04_13-57-05
1772632625542188800,0.505188720703125,-0.0306411123814061,0.0839601397126913,-0.1083159978121519,0.0049931765533983,-0.0114255882799625,-0.0147540112957358,standing,2026-03-04_13-57-05
1772632625552137700,0.5151376953125,0.0244399196537211,0.0722878220975399,-0.0539525394618511,0.0201727114617824,-0.0178443379700183,-0.0148101616650819,standing,2026-03-04_13-57-05
1772632625562087200,0.525087158203125,0.0276239930499345,0.0534412289388477,-0.0577057545155286,0.0328831821680069,-0.0045389193110167,-0.0094428267329931,standing,2026-03-04_13-57-05
1772632625572036000,0.5350361328125,-0.0255904779283329,0.051323067741096,-0.0069961424976587,0.0338965058326721,0.0108502870425581,-0.0108485417440533,standing,2026-03-04_13-57-05
1772632625581984000,0.54498388671875,-0.0506813357714563,0.0341958457209169,0.1064016886234283,0.0266063679009675,0.0185694601386785,-0.0176342763006687,standing,2026-03-04_13-57-05
1772632625591933700,0.55493359375,-0.0164192564139142,-0.0214279879540205,0.2177221289485693,0.0082670431584119,0.0122782737016677,-0.0198441669344902,standing,2026-03-04_13-57-05
1772632625601882600,0.564882568359375,0.0048278585478663,-0.0454367861814796,0.2226250985592603,-0.0091676078736782,0.0111608114093542,-0.0172840692102909,standing,2026-03-04_13-57-05
1772632625611831600,0.57483154296875,-0.0573871535530313,-0.0288527311272919,0.139828741928935,-0.0146477669477462,0.022587502375245,-0.0221374295651912,standing,2026-03-04_13-57-05
1772632625621780700,0.58478076171875,-0.071450896349363,-0.0508528198808431,0.0925192937433719,-0.0138296447694301,0.0152499619871377,-0.0339871644973754,standing,2026-03-04_13-57-05
1772632625631728600,0.594728759765625,-0.0065391559777781,-0.0688629622153937,0.0971773486822843,-0.0139169208705425,-0.0044479761272668,-0.0352884568274021,standing,2026-03-04_13-57-05
1772632625641677600,0.604677490234375,0.0293088043317198,-0.0481559820123016,0.1070522614866495,-0.0198379270732402,-0.0230943635106086,-0.030681986361742,standing,2026-03-04_13-57-05
1772632625651626500,0.61462646484375,-0.0122817182177677,-0.021292671136558,0.0530348400950431,-0.0239580105990171,-0.0338776372373104,-0.0311397965997457,standing,2026-03-04_13-57-05
1772632625661575700,0.62457568359375,-0.0452947108296677,-0.0212448864720761,-0.0226098912149667,-0.026116769760847,-0.0352385155856609,-0.0364935472607612,standing,2026-03-04_13-57-05
1772632625671524900,0.63452490234375,-0.0441085697850212,0.0048565001204609,-0.1283177523553371,-0.0270821079611778,-0.0309701301157474,-0.03414236754179,standing,2026-03-04_13-57-05
1772632625681472500,0.644472412109375,-0.0269036794187501,0.0657620735906064,-0.2907885342031717,-0.0109492130577564,0.0005864652339369,-0.0233041048049926,standing,2026-03-04_13-57-05
1772632625691421700,0.654421630859375,-0.0594386061901226,0.1171573297850787,-0.358383230048418,0.01256949827075,0.0341907627880573,-0.0119751840829849,standing,2026-03-04_13-57-05
1772632625701370600,0.66437060546875,-0.0523231116291135,0.0968880103468894,-0.2631552618682384,0.0365853533148765,0.0366730950772762,-0.0081072095781564,standing,2026-03-04_13-57-05
1772632625711319800,0.67431982421875,-0.0022924217861145,0.0337318814709782,-0.1300000063538551,0.0502494536340236,0.0243127010762691,-0.0069939522072672,standing,2026-03-04_13-57-05
1772632625721267700,0.684267822265625,0.0107944388020783,0.0041064124055206,0.0340840559095144,0.0488994978368282,0.0174369513988494,-0.0020588485058397,standing,2026-03-04_13-57-05
1772632625731216600,0.694216552734375,-0.0186503764668479,-0.0119914665669202,0.1857604720205068,0.034905694425106,0.0082382578402757,-0.0084864441305398,standing,2026-03-04_13-57-05
1772632625741165600,0.70416552734375,-0.0287549333086237,-0.0404984529964625,0.2455617375105619,0.0143532827496528,-0.001215431606397,-0.0159483551979064,standing,2026-03-04_13-57-05
1772632625751114500,0.714114501953125,-0.0182160767028108,-0.039720892752707,0.2315864036500453,-0.0043961200863122,0.0040605571120977,-0.0188540890812873,standing,2026-03-04_13-57-05
1772632625761063700,0.724063720703125,-0.0154925334904342,0.0050999534875154,0.1990057380408048,-0.0216534044593572,0.0056392792612314,-0.0190783273428678,standing,2026-03-04_13-57-05
1772632625771011600,0.734011474609375,0.0364158233253285,0.0353263110555708,0.1437333481520414,-0.0280325729399919,-0.0013680311385542,-0.014486588537693,standing,2026-03-04_13-57-05
1772632625780960500,0.74396044921875,0.0606868892181664,0.0546864066943526,0.0766775814890861,-0.025600841268897,-0.0041563608683645,-0.0065671461634337,standing,2026-03-04_13-57-05
1772632625790909700,0.75390966796875,0.0204942507678642,0.0544547898955643,0.0063935004293918,-0.0175294540822505,-0.0127137638628482,-0.0068352986127138,standing,2026-03-04_13-57-05
1772632625800858600,0.763858642578125,-0.0234700882408767,0.019222586864233,-0.0726934802889823,-0.0044157830998301,-0.0144141921773552,-0.0139395473524928,standing,2026-03-04_13-57-05
1772632625810807800,0.773807861328125,-0.0099979911947622,0.0149443250231444,-0.1652197882950306,0.0162927880883216,0.0034827815834432,-0.021843122318387,standing,2026-03-04_13-57-05
1772632625820755700,0.783755615234375,0.0122632327130064,0.0520882068946957,-0.1579839918226003,0.0272197388112545,0.0182292368263006,-0.0191639810800552,standing,2026-03-04_13-57-05
1772632625830704600,0.79370458984375,0.0795193077210336,0.0871323400080203,-0.085654084149003,0.0307061877101659,0.0317068360745906,-0.0064565963111817,standing,2026-03-04_13-57-05
1772632625840653600,0.803653564453125,0.1131824348047375,0.0595106119804084,0.0107481885075569,0.0256706830114126,0.033924713730812,0.0072861136868596,standing,2026-03-04_13-57-05
1772632625850602800,0.813602783203125,0.0445543042585253,-0.0136477093413472,0.0755962159931659,0.0153214577585458,0.0132215712219476,0.0053241914138197,standing,2026-03-04_13-57-05
1772632625860550700,0.823550537109375,-0.0326133257698267,-0.0833517985559999,0.1110930613100528,0.0032086025457829,-0.0082336533814668,-0.0053910366259515,standing,2026-03-04_13-57-05
1772632625870499600,0.83349951171875,-0.0732706956550478,-0.1069666290298104,0.0574526565372943,-0.0049078147858381,-0.0093326149508357,-0.0170880611985921,standing,2026-03-04_13-57-05
1772632625880448500,0.843448486328125,-0.070164436735399,-0.0780696203693747,-0.0167687639713287,-0.0100205512717366,-0.0029127988964319,-0.0246786046773195,standing,2026-03-04_13-57-05
1772632625890397400,0.8533974609375,-0.0440045614212751,-0.0231868143200874,-0.1148439382761716,-0.0049314093776047,0.0177922174334526,-0.0193956773728132,standing,2026-03-04_13-57-05
1772632625900347000,0.863346923828125,-0.0411479664137586,-0.0006583177782595,-0.1389291627407073,0.0067119309678673,0.0378245152533054,-0.0176100265234708,standing,2026-03-04_13-57-05
1772632625910294800,0.873294677734375,-0.0600359510287642,0.0040016368567943,-0.1288391458809375,0.0218473933637142,0.0406621098518371,-0.0151186678558588,standing,2026-03-04_13-57-05
1772632625920243700,0.88324365234375,-0.0673582932734861,-0.0213524384997785,-0.0839373433589935,0.0347610637545585,0.0372476689517498,-0.0171147063374519,standing,2026-03-04_13-57-05
1772632625930192600,0.893192626953125,-0.0904384688813239,-0.0226692201867699,-0.046800329619646,0.0420455150306224,0.0338586680591106,-0.0217941328883171,standing,2026-03-04_13-57-05
1772632625940141600,0.9031416015625,-0.0954728828519582,-0.0209267604336142,0.0399970793455839,0.0416766665875911,0.0244268160313367,-0.0286903884261846,standing,2026-03-04_13-57-05
1772632625950090800,0.9130908203125,-0.0254607871340587,-0.0182324067831039,0.1105821891784668,0.0338364690542221,0.0157369226217269,-0.0294284895062446,standing,2026-03-04_13-57-05
1772632625960038700,0.92303857421875,0.0215476688109338,0.0250176830090582,0.1433440565735101,0.0211217384785413,0.0154991038143634,-0.0176117792725563,standing,2026-03-04_13-57-05
1772632625969987600,0.932987548828125,0.0137215417625382,0.0613728987209498,0.1638198583692312,0.0118606351315975,0.0221500769257545,-0.0112586971372365,standing,2026-03-04_13-57-05
1772632625979936500,0.9429365234375,-0.0032944749681279,0.0488783049374818,0.1823246523529291,0.0051393485628068,0.0142506081610918,-0.0072106919251382,standing,2026-03-04_13-57-05
1772632625989885700,0.9528857421875,-0.016829517715238,0.0197483643040061,0.1623795964330434,-0.0011180290021002,-0.0036102761514484,-0.0107755567878484,standing,2026-03-04_13-57-05
1772632625999833600,0.96283349609375,-0.0301270984446629,0.0,0.127756611341238,-0.0022698459215462,-0.0159835889935493,-0.0171058904379606,standing,2026-03-04_13-57-05
1772632626009782500,0.972782470703125,-0.0288252951310947,0.0148204063825309,0.0320949279189109,0.0021219071932137,-0.0183748379349708,-0.0202109683305025,standing,2026-03-04_13-57-05
1772632626019731700,0.982731689453125,-0.0271401550557464,0.0537822974614798,-0.0364250660777092,0.0051168985664844,-0.0099209006875753,-0.0201510470360517,standing,2026-03-04_13-57-05
1772632626029680600,0.9926806640625,-0.0058531099423766,0.0799831989057362,-0.0576034631848335,0.0076532582752406,0.0017312250565737,-0.0188966840505599,standing,2026-03-04_13-57-05
1772632626039629800,1.0026298828125,0.0179007271433249,0.0703060006305575,-0.0733101508826017,0.0078969374299049,0.0135343540459871,-0.0127192158252,standing,2026-03-04_13-57-05
1772632626049577700,1.01257763671875,0.0450357310999184,0.0711577951543033,-0.0849029735207557,0.008972899056971,0.0308024212718009,0.0018058745190501,standing,2026-03-04_13-57-05
1772632626059526700,1.022526611328125,0.0212981510292738,0.0668945847518742,-0.0400426720529794,0.0157831348478794,0.031604565680027,0.0038727540522813,standing,2026-03-04_13-57-05
1772632626069475600,1.0324755859375,-0.0347909620698541,0.0158335289478302,-0.0112193131506443,0.0174457021057605,0.0137729737907648,-0.0078645395115017,standing,2026-03-04_13-57-05
1772632626079424500,1.042424560546875,-0.0528044654052704,-0.0217801623925566,-0.0012210662275552,0.0233797580003738,-0.0045650205574929,-0.0116297164931893,standing,2026-03-04_13-57-05
1772632626089372700,1.05237255859375,-0.0171894005361944,-0.0158026954181492,-0.0241284790843725,0.025273747742176,-0.002662991406396,-0.0159408841282129,standing,2026-03-04_13-57-05
1772632626099321600,1.062321533203125,-0.021929325072281,0.0377042922332882,-0.037370822495222,0.026111576706171,0.0128986565396189,-0.0147736202925443,standing,2026-03-04_13-57-05
1772632626109270500,1.0722705078125,-0.009426767178066,0.0376909943602979,3.33177477121e-05,0.0231936443597078,0.0319746136665344,-0.0121409315615892,standing,2026-03-04_13-57-05
1772632626119219500,1.082219482421875,-0.000485555027239,0.0111161450371146,0.035599136647582,0.0201813410967588,0.0468462370336055,-0.0083730919286608,standing,2026-03-04_13-57-05
1772632626129168600,1.092168701171875,0.0166999365188181,-0.0244940975263714,0.0988216087579727,0.0216490942984819,0.0456317067146301,-0.0061710635200142,standing,2026-03-04_13-57-05
1772632626139116800,1.10211669921875,0.0204259347720071,-0.0299903568550944,0.1673100385725498,0.0229412596672773,0.0242824740707874,-0.0099002877250313,standing,2026-03-04_13-57-05
1772632626149065700,1.112065673828125,0.0061500105297192,-0.0531970449194312,0.2361281387329101,0.019133199006319,-0.0193391740322113,-0.0162429697811603,standing,2026-03-04_13-57-05
1772632626159014700,1.1220146484375,0.0039800095468759,-0.0777457952424883,0.2056067437410354,0.0102286525070667,-0.0588506311178207,-0.0217525176703929,standing,2026-03-04_13-57-05
1772632626168963600,1.131963623046875,-0.0278940786955878,-0.0543092439450323,0.1227022505611181,-0.0023090443573892,-0.0679919272661209,-0.0276861377060413,standing,2026-03-04_13-57-05
1772632626178912500,1.14191259765625,-0.0799399077532812,0.0428647437363862,0.0029933365970849,-0.0147654470056295,-0.0549584180116653,-0.0340215340256691,standing,2026-03-04_13-57-05
1772632626188860700,1.151860595703125,-0.0679739409537985,0.1159646128691732,-0.1155810203790664,-0.0283445417881011,-0.0243136882781982,-0.0255326218903064,standing,2026-03-04_13-57-05
1772632626198809600,1.1618095703125,-0.0282703646620735,0.1576771178305149,-0.2326093169569969,-0.027269423007965,0.0157663524150848,-0.0069818422198295,standing,2026-03-04_13-57-05
1772632626208758500,1.171758544921875,-0.0279975025374442,0.1740527908310294,-0.2582160519003868,-0.0104361455887556,0.0362537801265716,0.0019642622210085,standing,2026-03-04_13-57-05
1772632626218707500,1.18170751953125,-0.0373939476424828,0.1384374337010085,-0.2567933256208896,0.0134936887770891,0.0405041873455047,0.0072343917563557,standing,2026-03-04_13-57-05
1772632626228655600,1.191655517578125,-0.0586545431403443,0.1009349476501345,-0.2222568497687578,0.040174301713705,0.0446683056652545,0.0131231732666492,standing,2026-03-04_13-57-05
1772632626238604500,1.2016044921875,-0.1039274439970031,0.0673804685726761,-0.1181236905992031,0.0577037595212459,0.0247795507311821,0.0077134948223829,standing,2026-03-04_13-57-05
1772632626248553700,1.2115537109375,-0.0671577292000874,0.0027092589586973,0.0343137730121612,0.0599333569407463,0.0067688594572246,0.0021461560390889,standing,2026-03-04_13-57-05
1772632626258502700,1.221502685546875,0.0199521067151799,-0.005365618686378,0.1429249543786049,0.0474841445684433,-0.0042869877070188,0.0071414476260542,standing,2026-03-04_13-57-05
1772632626268451600,1.23145166015625,0.0471675554968416,0.0095439272843301,0.2089630684316158,0.0299854557961225,0.0006399923004209,0.0176353957504034,standing,2026-03-04_13-57-05
1772632626278399700,1.241399658203125,0.0606376797815784,0.0220772456429898,0.2594505621314049,0.0104178804904222,-0.0019414097769185,0.0264832153916358,standing,2026-03-04_13-57-05
1772632626288348700,1.2513486328125,0.0750447561228647,0.0134765905581414,0.2447469139963388,0.0092032020911574,-0.0228521469980478,0.034757699817419,standing,2026-03-04_13-57-05
1772632626298297600,1.261297607421875,0.0717886769363656,0.0018750000916421,0.2234229709386825,0.0191996432840824,-0.0632658824324607,0.0315981283783912,standing,2026-03-04_13-57-05
1772632626308246500,1.27124658203125,-0.0452588357986882,-0.0956650444231927,0.0893289732694625,0.0383046194911003,-0.081384040415287,0.01074680685997,standing,2026-03-04_13-57-05
1772632626318194700,1.281194580078125,-0.1555947951311245,-0.1151345917858183,-0.0319990663290023,0.0501346476376056,-0.0650082603096962,-0.0178363677114248,standing,2026-03-04_13-57-05
1772632626328143600,1.2911435546875,-0.1560049833672121,-0.0487489794693887,-0.0521849452674388,0.0401116907596588,-0.026513596996665,-0.0328471362590789,standing,2026-03-04_13-57-05
1772632626338092500,1.301092529296875,-0.0562372163329273,-0.0157546184927225,-0.019662731847167,0.0210264138877391,0.0052842795848846,-0.0355475805699825,standing,2026-03-04_13-57-05
1772632626348041700,1.311041748046875,0.0630883243367076,0.0232084416300058,-7.89104551076e-05,-0.0069200168363749,0.0201814733445644,-0.0266007483005523,standing,2026-03-04_13-57-05
1772632626357990700,1.32099072265625,0.1034563558865338,0.0762555566847324,-0.0156821377784013,-0.0257365833967924,0.0367127805948257,-0.0097562531009316,standing,2026-03-04_13-57-05
1772632626367938800,1.330938720703125,0.1116853646473959,0.0859798089720308,-0.0554424857586622,-0.0294072329998016,0.0450822971761226,0.0047326195053756,standing,2026-03-04_13-57-05
1772632626377887700,1.3408876953125,0.0638520752508193,0.0583377688087522,-0.0744376936078071,-0.0184429977089166,0.0318799428641796,0.0097801089286804,standing,2026-03-04_13-57-05
1772632626387836700,1.350836669921875,0.0250295561099424,0.0294048120521008,-0.0903898804992437,-0.0015370245091617,0.0048186257481575,0.0107014775276184,standing,2026-03-04_13-57-05
1772632626397785600,1.36078564453125,0.0052114510379731,0.0186513628475368,-0.0942249286174774,0.0168712772428989,-0.0134794218465685,0.0066987462341785,standing,2026-03-04_13-57-05
1772632626407733800,1.370733642578125,-0.0254037231845781,0.0373361895732581,-0.089861472710967,0.0304281301796436,-0.010590155608952,0.0096910595893859,standing,2026-03-04_13-57-05
1772632626417682700,1.3806826171875,-0.0564781124167144,0.0591626753255724,-0.0779097536325454,0.038381390273571,-0.0044233398512005,0.0072824973613023,standing,2026-03-04_13-57-05
1772632626427631600,1.390631591796875,-0.0306873261433094,0.0474703378356993,-0.0308954890012741,0.0388761311769485,0.0086735505610704,0.0099461618810892,standing,2026-03-04_13-57-05
1772632626437580500,1.40058056640625,-0.0137968720210716,0.0569786092847585,0.0259463421612977,0.0341066718101501,0.0244146976619958,0.0161446686834096,standing,2026-03-04_13-57-05
1772632626447529500,1.410529541015625,-0.051481473173201,0.0349010713808238,0.1171089605987071,0.0246762484312057,0.0215222351253032,0.0160398967564106,standing,2026-03-04_13-57-05
1772632626457477600,1.4204775390625,-0.0628454920241609,-0.0117521048530936,0.1553723480194807,0.017737116664648,-0.0028486174996942,0.0087715964764356,standing,2026-03-04_13-57-05
1772632626467426800,1.4304267578125,-0.0732820938318967,-0.0213870714217424,0.0755173055380582,0.0196463204920291,0.000292852288112,0.0036249121185392,standing,2026-03-04_13-57-05
1772632626477375700,1.440375732421875,-0.0769768566966056,0.0235255447551608,0.0513847348004579,0.0214940216392278,0.0151144079864025,0.0023151694331318,standing,2026-03-04_13-57-05
1772632626487324700,1.45032470703125,-0.0731178431808948,0.0324802739746868,0.1135714341223239,0.018749002367258,0.0082088308408856,-8.62875021994e-05,standing,2026-03-04_13-57-05
1772632626497273600,1.460273681640625,-0.0511085847401991,-0.0326116452693939,0.1584989556074142,0.0024930676445364,-0.0151785174384713,-0.0061764041893184,standing,2026-03-04_13-57-05
1772632626507221800,1.4702216796875,-0.0307574322374537,-0.0643760260596871,0.0880184751927852,-0.0084300599992275,-0.0095069166272878,-0.0079599376767873,standing,2026-03-04_13-57-05
1772632626517170700,1.480170654296875,-0.0757853088244795,-0.0260666075401008,0.0067447980850934,-0.0095488531515002,0.0199034363031387,-0.0106601156294345,standing,2026-03-04_13-57-05
1772632626527119600,1.49011962890625,-0.0906665785487741,-0.0026264029808342,0.0378963076740503,-0.0101257879287004,0.0283183604478836,-0.0115128457546234,standing,2026-03-04_13-57-05
1772632626537068500,1.500068603515625,-0.0303138531884178,-0.0682183807015419,0.0650935266792774,-0.0135839041322469,-0.0045192148536443,-0.0131791867315769,standing,2026-03-04_13-57-05
1772632626547016700,1.5100166015625,0.0439690882490947,-0.063027826321125,-0.0322404738694429,-0.0049593551084399,-0.0221695825457572,-0.0032824312802404,standing,2026-03-04_13-57-05
1772632626556965600,1.519965576171875,0.0149624452017247,0.0155411218725144,-0.1277279697686433,0.0164889451116323,-0.0003729399759322,0.007641589269042,standing,2026-03-04_13-57-05
1772632626566914600,1.52991455078125,-0.0591346548074856,0.0047851884499192,-0.0926993264853954,0.0326718650758266,0.0159072391688823,0.0102611742913723,standing,2026-03-04_13-57-05
1772632626576863700,1.53986376953125,-0.074824793229252,-0.0693662355624139,0.0361725526213645,0.0332007706165313,0.001223900122568,-0.0006615140009671,standing,2026-03-04_13-57-05
1772632626586812700,1.549812744140625,-0.0424018023997545,-0.162568689264357,0.1027180316746234,0.0183241795748472,-0.0110634006559848,-0.0160503815859556,standing,2026-03-04_13-57-05
1772632626596761000,1.559760986328125,-0.0569510271580889,-0.1163213173523545,0.075325582358241,0.001424026209861,0.0176707748323678,-0.0212600566446781,standing,2026-03-04_13-57-05
1772632626606710000,1.5697099609375,-0.0696132691260427,0.0113064069122076,0.1167383737206459,-0.0184619948267936,0.0406426675617694,-0.0252536367624998,standing,2026-03-04_13-57-05
1772632626616659000,1.579658935546875,0.0077496277460828,0.0196307292737066,0.1269505556553602,-0.0330172330141067,0.0303753837943077,-0.0252800025045871,standing,2026-03-04_13-57-05
1772632626626607900,1.58960791015625,0.1161609756914898,0.0453400478087365,0.0833212572872638,-0.0364954583346843,0.028239531442523,-0.0132062248885631,standing,2026-03-04_13-57-05
1772632626636556800,1.599556884765625,0.1225997035020962,0.1219298048838972,0.0355903688192367,-0.0271493643522262,0.0386397093534469,0.0004334216937422,standing,2026-03-04_13-57-05
1772632626646505000,1.6095048828125,0.0791541276704519,0.1666222024388611,0.0398579631358385,-0.0113537274301052,0.0378227829933166,0.0069145737215876,standing,2026-03-04_13-57-05
1772632626656454000,1.619453857421875,0.0997688630128279,0.1446774971343576,0.0880833571225404,0.0022835209965705,0.0167896673083305,0.0087793199345469,standing,2026-03-04_13-57-05
1772632626666402800,1.62940283203125,0.1525682138515636,0.1277988430477678,0.1728302632987499,0.0039882911369204,-0.0124526377767324,0.0146420309320092,standing,2026-03-04_13-57-05
1772632626676352000,1.63935205078125,0.1412728397900238,0.1615006216414272,0.2128331878632307,-0.0113477893173694,-0.047643382102251,0.0167320780456066,standing,2026-03-04_13-57-05
1772632626686300000,1.6492998046875,0.1064794665673747,0.1616349155455827,0.1281248601317405,-0.025002896785736,-0.0648077130317688,0.0185307227075099,standing,2026-03-04_13-57-05
1772632626696249000,1.6592490234375,0.0749201798951253,0.1977886173360049,-0.0427419941395521,-0.0356877632439136,-0.0455067232251167,0.0261241942644119,standing,2026-03-04_13-57-05
1772632626706198000,1.669197998046875,0.0354386123236268,0.2600368375867605,-0.1926198363959789,-0.0375673435628414,0.0035648082848638,0.0372863560914993,standing,2026-03-04_13-57-05
1772632626716147000,1.67914697265625,0.0113923316299915,0.2808329573780298,-0.2175046868056058,-0.037722073495388,0.0497323051095008,0.0498013496398925,standing,2026-03-04_13-57-05
1772632626726096000,1.689095947265625,0.0288621565427631,0.2141441243313253,-0.1766255639284849,-0.0309454910457134,0.07137181609869,0.0672233998775482,standing,2026-03-04_13-57-05
1772632626736044000,1.6990439453125,0.0231888236140832,0.1310340255767107,-0.1168231293946504,-0.0125286672264337,0.0736118033528328,0.0780555382370948,standing,2026-03-04_13-57-05
1772632626745993000,1.708992919921875,-0.0413958036949858,0.052928749372065,-0.0447369673490524,0.0105738677084445,0.0572522692382335,0.0792578160762786,standing,2026-03-04_13-57-05
1772632626755942000,1.71894189453125,-0.1166244284847751,-0.0537352434493601,0.0659942749112844,0.0199857447296381,0.0202953200787305,0.0709966868162155,standing,2026-03-04_13-57-05
1772632626765890800,1.728890869140625,-0.1211154562937095,-0.1662399251230061,0.1386614517152309,0.0250819474458694,-0.0107215866446495,0.0556394197046756,standing,2026-03-04_13-57-05
1772632626775839000,1.7388388671875,-0.136314852056466,-0.1848709758348763,0.1402209561169147,0.0200192779302597,-0.0219958126544952,0.0443167239427566,standing,2026-03-04_13-57-05
1772632626785788000,1.748787841796875,-0.1703790342217311,-0.1837187370598316,0.1483627615183591,0.0073716132901608,-0.0233664065599441,0.0307090915739536,standing,2026-03-04_13-57-05
1772632626795736800,1.75873681640625,-0.1396182775160297,-0.1929983143195509,0.1477688872784376,-0.0146023947745561,-0.0169987883418798,0.0247231051325798,standing,2026-03-04_13-57-05
1772632626805686000,1.76868603515625,-0.0959131739653647,-0.1867826546750962,0.1152910975217819,-0.0395068228244781,-0.0009211504366248,0.0245784670114517,standing,2026-03-04_13-57-05
1772632626815635000,1.778635009765625,-0.1559509150924161,-0.1763990616962313,0.064642860302329,-0.0569643750786781,0.013614916242659,0.0176340080797672,standing,2026-03-04_13-57-05
1772632626825583000,1.7885830078125,-0.1944450790617614,-0.1957161949761211,-0.0162660751461982,-0.0603897906839847,0.0132131753489375,0.0051787961274385,standing,2026-03-04_13-57-05
1772632626835532000,1.798531982421875,-0.1681818529710173,-0.1727440463200211,-0.0976432126283645,-0.055088497698307,0.0151740601286292,-0.0053963502869009,standing,2026-03-04_13-57-05
1772632626845481000,1.80848095703125,-0.1096863363172858,-0.0907078604072332,-0.1924345429569482,-0.0326139815151691,0.027000892907381,-0.0058074579574167,standing,2026-03-04_13-57-05
1772632626855430000,1.818429931640625,-0.0563547052327543,0.0003409223921597,-0.1719324376761913,-0.0116511788219213,0.0329858139157295,-0.0058183772489428,standing,2026-03-04_13-57-05
1772632626865377800,1.828377685546875,0.0298713701179251,0.0198262518458068,-0.0973608885556459,0.0032947545405477,0.0235823281109333,0.0008569343481212,standing,2026-03-04_13-57-05
1772632626875327000,1.838326904296875,0.0655448506433516,0.0284628550268709,0.0001420388191938,0.0142336888238787,0.0082872621715068,0.007842406630516,standing,2026-03-04_13-57-05
1772632626885276000,1.84827587890625,0.0539136687561869,0.0546859683029353,0.0437274980455636,0.018276460468769,-0.0038606156595051,0.0084892734885215,standing,2026-03-04_13-57-05
1772632626895224800,1.858224853515625,0.0558349556749686,0.1001757998459041,0.1059603745967149,0.0112678185105323,-0.0145422890782356,0.0103566814213991,standing,2026-03-04_13-57-05
1772632626905174000,1.868174072265625,0.0451449636280536,0.0997075978122651,0.105667529129982,-0.0009615644812583,-0.0187261160463094,0.0117933303117752,standing,2026-03-04_13-57-05
1772632626915122000,1.878121826171875,0.0420071405263617,0.1333820500075817,0.0619955606639385,-0.0089324060827493,-0.0181727111339569,0.0123219694942235,standing,2026-03-04_13-57-05
1772632626925071000,1.888071044921875,0.0246030012609437,0.1569466115988791,-2.51344412565e-05,-0.0137022696435451,-0.00262903701514,0.0191260501742362,standing,2026-03-04_13-57-05
1772632626935020000,1.89802001953125,0.0273816721940413,0.162653591068834,0.0018301380366086,-0.0200392622500658,0.014464727602899,0.0263155195862054,standing,2026-03-04_13-57-05
1772632626944969000,1.907968994140625,0.044059287283197,0.1325504214890301,0.0113134211748838,-0.0236917417496442,0.0246498528867959,0.0335672535002231,standing,2026-03-04_13-57-05
1772632626954918000,1.91791796875,0.0302757496677339,0.1094827035039663,0.028732173487544,-0.0255751311779022,0.0296832267194986,0.0389681421220302,standing,2026-03-04_13-57-05
1772632626964866000,1.927865966796875,-0.0200095359908416,0.0642839638620614,0.0415238505214452,-0.0255273040384054,0.0284127704799175,0.0374378487467765,standing,2026-03-04_13-57-05
1772632626974815000,1.93781494140625,-0.0546510431200265,0.0010391337893903,0.0785936442434787,-0.023828474804759,0.0106076737865805,0.0360615253448486,standing,2026-03-04_13-57-05
1772632626984764000,1.947763916015625,-0.0624760011246427,-0.0609285159543156,0.0873369226694107,-0.0198956374078989,-0.0193427670747041,0.0329380333423614,standing,2026-03-04_13-57-05
1772632626994712800,1.957712890625,-0.1061868402963504,-0.084044603125751,0.0117243400633335,-0.0118017569184303,-0.0317568257451057,0.026252431795001,standing,2026-03-04_13-57-05
1772632627004660700,1.96766064453125,-0.1645807232065126,-0.079133011817187,-0.0725736533015966,0.0016283150762319,-0.0267008170485496,0.0170166455209255,standing,2026-03-04_13-57-05
1772632627014610000,1.97760986328125,-0.1820566490665078,-0.0931460473395884,-0.0832844324082136,0.00781936571002,-0.0205526426434516,0.0111872516572475,standing,2026-03-04_13-57-05
1772632627024559000,1.98755908203125,-0.1626465768061578,-0.111116003794223,-0.0587853664457797,0.008307009935379,-0.0094880098477005,0.0097417440265417,standing,2026-03-04_13-57-05
1772632627034508000,1.997508056640625,-0.1657380034828558,-0.1110549212567508,-0.0271042800247669,0.0005577439442276,0.0079431785270571,0.006554739549756,standing,2026-03-04_13-57-05
1772632627044457000,2.00745703125,-0.1968011406686156,-0.111973059014976,0.0085427874177694,-0.0143991950899362,0.019399432465434,-0.0043769907206296,standing,2026-03-04_13-57-05
1772632627054404900,2.01740478515625,-0.1456319483149796,-0.1428936824575066,0.048999300968647,-0.0233514122664928,0.0057834894396364,-0.0149287013337016,standing,2026-03-04_13-57-05
1772632627064354000,2.02735400390625,-0.09126403298527,-0.0979876421518623,0.0105687402874231,-0.022027987986803,-0.0061530638486146,-0.0165837705135345,standing,2026-03-04_13-57-05
1772632627074303000,2.037302978515625,-0.0924792539939284,-0.0751079940848052,-0.081927757102251,-0.0110829286277294,-0.0063775684684515,-0.020954817533493,standing,2026-03-04_13-57-05
1772632627084252000,2.047251953125,-0.0722459191845729,-0.0176188049294054,-0.1333528239130973,0.0060771438293159,0.0014973953366279,-0.0232511907815933,standing,2026-03-04_13-57-05
1772632627094199800,2.05719970703125,-0.0205368843331933,0.0136782506100833,-0.1003735143750906,0.0224401392042636,0.0064330315217375,-0.0203451495617628,standing,2026-03-04_13-57-05
1772632627104149000,2.06714892578125,0.0143948013816028,0.0460167780265212,-0.0070966802626848,0.0251526981592178,0.0033281901851296,-0.0162501037120819,standing,2026-03-04_13-57-05
1772632627114098000,2.077097900390625,0.0573594983611255,0.0643171354793012,0.0777086781024932,0.0200745835900306,-0.0061745010316371,-0.0100023290142416,standing,2026-03-04_13-57-05
1772632627124046800,2.087046875,0.0826144607247784,0.0887058729350566,0.1294622462153434,0.0131025640293955,-0.0177840217947959,-0.0035476961638778,standing,2026-03-04_13-57-05
1772632627133996000,2.09699609375,0.0594246507300063,0.1006426867052912,0.1324310328930616,0.0075093931518495,-0.0244909282773733,-0.0024193148128688,standing,2026-03-04_13-57-05
1772632627143944000,2.10694384765625,0.0497893553677946,0.0974345383137464,0.1203898819655179,-0.002843452617526,-0.0165961198508739,-0.0026032691821455,standing,2026-03-04_13-57-05
1772632627153893000,2.11689306640625,0.0467256569482386,0.0853502788968384,0.0986561890631914,-0.0084392866119742,0.0070189284160733,-0.0028525409288704,standing,2026-03-04_13-57-05
1772632627163842000,2.126842041015625,0.058995830858685,0.0860715789087116,0.1324532447248697,-0.0188178196549415,0.0197979733347892,-0.0015372759662568,standing,2026-03-04_13-57-05
1772632627173791000,2.136791015625,0.0997622871415689,0.0661792760893702,0.2097878288179636,-0.032657466828823,0.0167286805808544,0.0005975139793008,standing,2026-03-04_13-57-05
1772632627183740000,2.146739990234375,0.143229307620041,0.0178726335600018,0.2525122873008251,-0.0465720146894454,-0.0030683223158121,0.0066873654723167,standing,2026-03-04_13-57-05
1772632627193687800,2.156687744140625,0.1283785060992464,0.0084634385712444,0.2135650092691182,-0.0575152114033699,-0.0352963022887706,0.0116096856072545,standing,2026-03-04_13-57-05
1772632627203637000,2.166636962890625,0.1008452235400676,0.0053369771137833,0.0914805983453989,-0.0512721091508865,-0.0633026361465454,0.012232206761837,standing,2026-03-04_13-57-05
1772632627213586000,2.1765859375,0.0462936587391421,0.0428448699921369,-0.0815495714396238,-0.0385006554424762,-0.0722561851143837,0.0115333925932645,standing,2026-03-04_13-57-05
1772632627223534800,2.186534912109375,0.0135203201020136,0.0872312703378498,-0.2199725382238626,-0.0162919033318758,-0.0579693876206874,0.0218668635934591,standing,2026-03-04_13-57-05
1772632627233482800,2.196482666015625,0.0083341496357694,0.0870404239408671,-0.2910106525212526,0.0018817731179296,-0.029267705976963,0.0297687277197837,standing,2026-03-04_13-57-05
1772632627243431700,2.206431640625,-0.0205216502314433,0.0615336422406136,-0.2603583246260881,0.0131069691851735,-0.0002488389145582,0.0345565751194953,standing,2026-03-04_13-57-05
1772632627253381000,2.216381103515625,-0.0467049429537728,0.0237026548877358,-0.1858463967382908,0.0192394293844699,0.020637534558773,0.0348220914602279,standing,2026-03-04_13-57-05
1772632627263330000,2.226330078125,-0.0626434301134198,-0.0071076400481164,-0.094253570190072,0.0196321010589599,0.0286495238542556,0.030551416799426,standing,2026-03-04_13-57-05
1772632627273279000,2.236279052734375,-0.0374257310202345,-0.0449310286164283,0.0044213235735893,0.0155801028013229,0.02039585262537,0.0276179462671279,standing,2026-03-04_13-57-05
1772632627283227000,2.246226806640625,-0.0106821740666404,-0.049918753901124,0.0727355658650398,0.0063709220848977,0.0046736188232898,0.0294592436403036,standing,2026-03-04_13-57-05
1772632627293175800,2.25617578125,0.0119526323938742,-0.0492569289915263,0.0938157632946968,0.0007356731221079,-0.010209989733994,0.0296206306666135,standing,2026-03-04_13-57-05
1772632627303125000,2.266125,-0.0252957327654585,-0.0572035040818154,0.1138315463632345,-0.0049881199374794,-0.0174268931150436,0.0243504289537668,standing,2026-03-04_13-57-05
1772632627313074000,2.276073974609375,-0.0345242008924484,-0.0687212156571447,0.1172287875860929,-0.01401037722826,-0.0218216422945261,0.0200872421264648,standing,2026-03-04_13-57-05
1772632627323021800,2.286021728515625,-0.0526598327701911,-0.0546228399388492,0.1098258178532123,-0.0218299906700849,-0.0179965402930974,0.0137120550498366,standing,2026-03-04_13-57-05
1772632627332970800,2.295970703125,-0.0816604844681918,-0.0474744294889271,0.0743722271561622,-0.0291459616273641,-0.0106685850769281,0.0064821057021617,standing,2026-03-04_13-57-05
1772632627342920000,2.305919921875,-0.0669374740455299,-0.0364903863988816,0.0366781640559434,-0.0322727859020233,-0.0014423343818634,-0.0001016918104141,standing,2026-03-04_13-57-05
1772632627352868900,2.315868896484375,-0.044873380145058,0.0075387249417603,-0.0083919807702302,-0.0283659286797046,0.0093037877231836,0.0025316418614238,standing,2026-03-04_13-57-05
1772632627362818000,2.325818115234375,-0.0079008362524211,0.0453714658603072,-0.0431534975498914,-0.0168405398726463,0.0126298097893595,0.0043098204769194,standing,2026-03-04_13-57-05
1772632627372766000,2.335765869140625,0.0119475908925756,0.0889759220480918,-0.0274988323003053,-0.00475032068789,0.0089980578050017,0.0089407917112112,standing,2026-03-04_13-57-05
1772632627382715000,2.34571484375,0.0644469358714297,0.0810489284411072,-0.0151098908483982,0.0025493996217846,-0.0028326378669589,0.0142148165032267,standing,2026-03-04_13-57-05
1772632627392664000,2.3556640625,0.0605226750997826,0.0734456138305366,-0.0066179568350315,0.0056165624409914,-0.0114346481859683,0.0191062446683645,standing,2026-03-04_13-57-05
1772632627402613000,2.365613037109375,0.0472170937269926,0.071331690416485,-0.009636427873373,0.0067182481288909,-0.0130515825003385,0.0196439381688833,standing,2026-03-04_13-57-05
1772632627412562000,2.37556201171875,0.0585441781010478,0.0852478414356708,0.0213069919228553,0.0028974111191928,-0.011641439050436,0.020503606647253,standing,2026-03-04_13-57-05
1772632627422509800,2.385509765625,0.0705013770721852,0.076429744207859,0.047249826952815,-0.004268538672477,-0.0100920069962739,0.0292819440364837,standing,2026-03-04_13-57-05
1772632627432458800,2.395458740234375,0.0567007787240669,0.0721205027066171,0.0433697706490755,-0.0089474469423294,-0.0093327397480607,0.0328777469694614,standing,2026-03-04_13-57-05
1772632627442408000,2.405407958984375,-0.0062117506543174,0.0454532989248633,0.025317396607995,-0.0123017076402902,-0.0091571081429719,0.0309199579060077,standing,2026-03-04_13-57-05
1772632627452356900,2.41535693359375,-0.0299246346751227,0.0135049398697912,0.0226747731447219,-0.0101080611348152,-0.0061996676959097,0.0272200275212526,standing,2026-03-04_13-57-05
1772632627462304800,2.4253046875,-0.0116973789911717,-0.0128061439506709,0.0400619612753391,-0.0127465613186359,0.0001560959499329,0.0233225766569376,standing,2026-03-04_13-57-05
1772632627472253700,2.435253662109375,-0.0205875916071236,-0.0315925313547253,0.0358066419184207,-0.0205874387174844,0.0043404544703662,0.02603873424232,standing,2026-03-04_13-57-05
1772632627482203000,2.445202880859375,-0.0380037866365164,-0.0388575539216399,0.0022562544941902,-0.0200032107532024,0.0109485574066638,0.0230686794966459,standing,2026-03-04_13-57-05
1772632627492152000,2.455152099609375,-0.03688976098001,-0.0438688062123954,0.0024538228929042,-0.0153413470834493,0.013642344623804,0.0249158479273319,standing,2026-03-04_13-57-05
1772632627502101000,2.46510107421875,-0.0396598832804709,-0.0495005284890532,0.0383843834519386,-0.0130415493622422,-0.0036595414858311,0.0219024401158094,standing,2026-03-04_13-57-05
1772632627512049000,2.475048828125,-0.0630638109499588,-0.0780459472328424,0.0347293680757284,-0.0110116889700293,-0.0188414230942726,0.0152924740687012,standing,2026-03-04_13-57-05
1772632627521997800,2.484997802734375,-0.0916371406139805,-0.1058341178685426,-0.0263958394944667,-0.0066062961705029,-0.0167911928147077,0.0107681965455412,standing,2026-03-04_13-57-05
1772632627531947000,2.494947021484375,-0.1282880148041993,-0.0766001323387026,-0.0431774629473686,-0.002148697618395,-0.0104520702734589,0.0032415711320936,standing,2026-03-04_13-57-05
1772632627541896000,2.50489599609375,-0.1173368145378306,-0.0483968050308525,-0.0288648599565029,-0.0033943885937333,-0.0171311497688293,-0.0105559024959802,standing,2026-03-04_13-57-05
1772632627551843800,2.51484375,-0.036781989756599,-0.0390147903099656,-0.0659644642949104,-0.0062205353751778,-0.015816081315279,-0.0058703366667032,standing,2026-03-04_13-57-05
1772632627561792800,2.524792724609375,0.0053851271044462,0.0241674959205091,-0.1130190609365701,-0.0031468570232391,0.0103840995579957,0.005798639729619,standing,2026-03-04_13-57-05
1772632627571741700,2.53474169921875,-0.0332924671404063,0.0672768620677292,-0.0906710355281829,0.0034652396570891,0.0176904816180467,0.0065549779683351,standing,2026-03-04_13-57-05
1772632627581691100,2.544691162109375,-0.0473300160495564,0.0306222250178456,-0.055593876928091,0.0039603025652468,-0.004957303404808,-0.0016646585427224,standing,2026-03-04_13-57-05
1772632627591639000,2.55463916015625,0.0282213744211941,0.0044977498106658,-0.0689689068078994,0.0086623802781105,-0.0034241217654198,0.0021540478337556,standing,2026-03-04_13-57-05
1772632627601587000,2.5645869140625,0.0019575638085603,0.0687593557104468,-0.0874719472259283,0.0169291161000728,0.0235339906066656,0.0072231646627187,standing,2026-03-04_13-57-05
1772632627611536400,2.574536376953125,-0.0336848274588584,0.1290907825544476,0.0102548520326614,0.0203243810683488,0.0356279388070106,0.0028252208139747,standing,2026-03-04_13-57-05
1772632627621485300,2.5844853515625,0.0207549840632826,0.1036534128285944,0.1607154626131057,0.0115988310426473,0.0201126299798488,0.0082063898444175,standing,2026-03-04_13-57-05
1772632627631434200,2.594434326171875,0.0657545478712767,0.0569935145929455,0.261460732910037,-0.0023550675250589,-0.0012312745675444,0.0105129536241292,standing,2026-03-04_13-57-05
1772632627641383200,2.604383056640625,-0.0072280880900099,0.0665196139596402,0.3037058834433555,-0.014609096571803,-0.0291786193847656,0.0050650374032557,standing,2026-03-04_13-57-05
1772632627651331000,2.6143310546875,-0.0258752862190827,0.0683880381800234,0.2116787571310996,-0.0181572251021862,-0.0444222874939441,-0.0002650131937116,standing,2026-03-04_13-57-05
1772632627661280300,2.6242802734375,0.0443019369326531,0.0956266121089458,0.0528664977908134,-0.0118733793497085,-0.0248320773243904,0.0088873459026217,standing,2026-03-04_13-57-05
1772632627671229200,2.634229248046875,0.0177205117382109,0.1530599794238805,-0.0230021054029464,-0.0020005083642899,0.003243766259402,0.0167719013988971,standing,2026-03-04_13-57-05
1772632627681178000,2.64417822265625,-0.0010104191515594,0.1473828105702996,0.015848726516962,0.0051028141751885,0.0107978209853172,0.0220619346946477,standing,2026-03-04_13-57-05
1772632627691126000,2.6541259765625,0.0463223003117367,0.0769119747668504,0.1117477258265018,-0.0023923860862851,-0.0164284743368625,0.0227876454591751,standing,2026-03-04_13-57-05
1772632627701075200,2.6640751953125,0.0378575100336223,0.0073319503232836,0.1431453191310167,-0.0151373501867055,-0.0430414415895938,0.0222609434276819,standing,2026-03-04_13-57-05
1772632627711024000,2.674024169921875,-0.0379453709801659,-0.0239786953501403,0.1084241343617439,-0.0326308533549308,-0.0576683208346366,0.0133835608139634,standing,2026-03-04_13-57-05
1772632627720973300,2.683973388671875,-0.0676848583467304,-0.0053423839412629,0.0039244799673557,-0.0462664552032947,-0.0575942806899547,0.0075901616364717,standing,2026-03-04_13-57-05
1772632627730922200,2.693922119140625,-0.0231127261705696,0.0331833076775074,-0.1592342841446399,-0.0444326028227806,-0.0228570755571126,0.0137127693742513,standing,2026-03-04_13-57-05
1772632627740870100,2.7038701171875,-0.0426834688853472,0.0655602674081921,-0.2788859149634838,-0.0288274455815553,0.0250172410160303,0.0241473838686943,standing,2026-03-04_13-57-05
1772632627750819300,2.7138193359375,-0.072741520681791,0.0558981205716729,-0.2554518478840589,-0.0100079532712697,0.0496251136064529,0.0261538103222847,standing,2026-03-04_13-57-05
1772632627760768300,2.723768310546875,-0.0393925741137936,-0.0130778004989027,-0.1303758539289236,0.0046445573680102,0.0420437566936016,0.0268709994852542,standing,2026-03-04_13-57-05
1772632627770717200,2.73371728515625,0.009592771394737,-0.0829142839215695,-0.0187584764838218,0.0192767642438411,0.017276357859373,0.028109636157751,standing,2026-03-04_13-57-05
1772632627780665000,2.7436650390625,-0.0306085252860561,-0.1028136010035872,0.063516486620903,0.0267337616533041,-0.0190116055309772,0.022292086854577,standing,2026-03-04_13-57-05
1772632627790614000,2.753614013671875,-0.0493040560688823,-0.0923557737447321,0.0934995369523763,0.0310379620641469,-0.0473782680928707,0.012220811098814,standing,2026-03-04_13-57-05
1772632627800563200,2.763563232421875,-0.0524835994204506,-0.1025987892091274,0.0626420418739318,0.0283851269632577,-0.0428118705749511,0.0071458918973803,standing,2026-03-04_13-57-05
1772632627810512100,2.77351220703125,-0.075509962481819,-0.0721580582380294,0.0111351419985294,0.0193860381841659,-0.0272984262555837,0.0036800540983676,standing,2026-03-04_13-57-05
1772632627820461300,2.78346142578125,-0.1014594464482739,-0.0215149355851113,0.0272580092817544,0.0012357654049992,-0.0143884904682636,-0.0023796893656253,standing,2026-03-04_13-57-05
1772632627830409000,2.793408935546875,-0.0716587304137647,-0.0085838500805199,0.0386170231640338,-0.0155261717736721,0.0090553164482116,-0.0037280479446053,standing,2026-03-04_13-57-05
1772632627840358100,2.803358154296875,-0.0374933894289657,0.0106551033966243,0.0319797771066427,-0.0307889208197593,0.0248340107500553,-0.0014136070385575,standing,2026-03-04_13-57-05
1772632627850307300,2.813307373046875,-0.0526022208314388,0.0270244927868247,0.0064595514029264,-0.0373400300741195,0.0240326654165983,-0.0053726620972156,standing,2026-03-04_13-57-05
1772632627860256300,2.82325634765625,-0.0493139198757708,0.0366802098825573,-0.0430219801247119,-0.029567427933216,0.0237995069473981,-0.0041089784353971,standing,2026-03-04_13-57-05
1772632627870205200,2.833205078125,-0.0105102515658363,0.063608694949001,-0.0723679015964269,-0.0080094039440155,0.0249193664640188,-0.0014213161775842,standing,2026-03-04_13-57-05
1772632627880153000,2.843153076171875,-0.0177629626404494,0.0467268259920179,-0.063958385169506,0.0106043014675378,0.0100193787366151,-0.0071053709834814,standing,2026-03-04_13-57-05
1772632627890102300,2.853102294921875,0.0218964457159861,0.0548145631186664,-0.0320510887771844,0.026967030018568,-0.0071646673604846,-0.006067004520446,standing,2026-03-04_13-57-05
1772632627900051200,2.86305126953125,0.0481393231384456,0.0764189305528998,0.0284913504689931,0.033054307103157,-0.0128514422103762,0.0037372841034084,standing,2026-03-04_13-57-05
1772632627910000000,2.873000244140625,0.0287284836931154,0.096451518625766,0.1080336737394332,0.0262784250080585,-0.0119904419407248,0.0080553330481052,standing,2026-03-04_13-57-05
1772632627919948000,2.882947998046875,0.0211601307980716,0.0868218127541244,0.1722200224459171,0.0082126157358288,-0.0244411248713731,0.0099711678922176,standing,2026-03-04_13-57-05
1772632627929897000,2.89289697265625,0.0266731585985049,0.0521849452674388,0.1439250713318586,-0.0083091026172041,-0.0188988205045461,0.0161086879670619,standing,2026-03-04_13-57-05
1772632627939846400,2.902846435546875,-0.0157236388325691,0.0755674282900989,0.0967278513491153,-0.0182025972753763,0.0041114250198006,0.0167863238602876,standing,2026-03-04_13-57-05
1772632627949795300,2.91279541015625,-0.0757710611034184,0.0570695024386048,0.0688356358170509,-0.02034617587924,0.0076995026320219,0.0111859617754817,standing,2026-03-04_13-57-05
1772632627959744300,2.922744140625,-0.0518158196941018,0.0064862932793796,0.036352585363388,-0.0190826971083879,-0.0084417834877967,0.0061895353719592,standing,2026-03-04_13-57-05
1772632627969692200,2.932692138671875,0.0164484825083985,0.0219273157782852,-0.0118593646198511,-0.0133228134363889,-0.0040781940333545,0.012571002356708,standing,2026-03-04_13-57-05
1772632627979641000,2.94264111328125,-0.0091167879134416,0.0697770083203911,-0.0222205996364355,-0.0042683877982199,0.0042738751508295,0.0172316599637269,standing,2026-03-04_13-57-05
1772632627989590300,2.95259033203125,-0.0434409361891448,0.0329176424786448,0.0261959330081939,-0.0037221736274659,-0.018831443041563,0.0122989527881145,standing,2026-03-04_13-57-05
1772632627999539200,2.962539306640625,-0.0322333134762942,-0.0520393993169069,-0.0180184717714786,-0.0057095466181635,-0.0364941917359828,0.0050839451141655,standing,2026-03-04_13-57-05
1772632628009488100,2.972488037109375,-0.0453270787293091,-0.0423014107652008,-0.0893681362360715,-0.0007323650643229,-0.016038455069065,0.007100224494934,standing,2026-03-04_13-57-05
1772632628019436000,2.98243603515625,-0.082460768000409,0.0286027018889784,-0.0727554396092891,0.0026566116139292,0.0080867260694503,0.0020198945421725,standing,2026-03-04_13-57-05
1772632628029385200,2.99238525390625,-0.0589607960779219,-0.0008558861769735,-0.0014174655824899,-0.0034814421087503,0.006083495914936,0.0036939575802534,standing,2026-03-04_13-57-05
1772632628039334100,3.002334228515625,-0.0300177928512915,-0.0592725654408335,0.0151034611076116,-0.0070091690868139,0.0005072329659014,0.0034919073805212,standing,2026-03-04_13-57-05
1772632628049283300,3.012283447265625,-0.0711225411778315,-0.0323617621615529,-0.0119119715899229,-0.0054914336651563,0.0072298506274819,0.0017968057654798,standing,2026-03-04_13-57-05
1772632628059231000,3.02223095703125,-0.127079406199418,-0.0170623400904238,0.0286912569552659,-0.0030333315953612,0.0011894039344042,-0.0046050688251852,standing,2026-03-04_13-57-05
1772632628069180200,3.03218017578125,-0.1092425015399232,-0.0353298181869089,0.0702811584502458,-0.0077311480417847,-0.0235359165817499,-0.0132606085389852,standing,2026-03-04_13-57-05
1772632628079129300,3.04212939453125,-0.0345296442525461,-0.0361773749269545,-0.0061292965352535,-0.0054207565262913,-0.0172830801457166,-0.0100098699331283,standing,2026-03-04_13-57-05
1772632628089078300,3.052078369140625,-0.0413763318095356,0.0443976523920893,-0.0842202519536018,0.0013537928462028,0.020756447687745,-0.0063685299828648,standing,2026-03-04_13-57-05
1772632628099027200,3.062027099609375,-0.0575989696728065,0.0928027868598699,-0.0157172090917825,0.0065147513523697,0.0276580285280942,-0.0080958008766174,standing,2026-03-04_13-57-05
1772632628108975000,3.07197509765625,-0.0263274869659915,0.0448658544257283,0.0736287153124809,0.0014563431032001,0.0030163307674229,-0.0154184279963374,standing,2026-03-04_13-57-05
1772632628118924000,3.081924072265625,0.0193641872920095,0.0105089729242026,0.0820458305239677,-0.0016436441801488,-0.0127493143081665,-0.0140182357281446,standing,2026-03-04_13-57-05
1772632628128873200,3.091873291015625,-0.0186037608461454,0.0903239756561815,0.0559253008395433,-0.0026537817902863,0.0010719588026404,-0.0084109501913189,standing,2026-03-04_13-57-05
1772632628138822100,3.101822265625,-0.0440125985972583,0.1182838495969772,0.072410571694374,-0.0038010515272617,0.0043665533885359,-0.0087579041719436,standing,2026-03-04_13-57-05
1772632628148770000,3.11177001953125,0.0025417934373021,0.0634774697847664,0.0788233613461256,-0.0114587051793932,-0.0102802999317646,-0.0065011419355869,standing,2026-03-04_13-57-05
1772632628158719000,3.121718994140625,0.0289105257291346,0.0215576056830585,-0.0157002579569816,-0.0112779699265956,0.0046670925803482,-0.0053053684532642,standing,2026-03-04_13-57-05
1772632628168668200,3.131668212890625,-0.0082866572322323,0.0447520187877118,-0.072684712460637,-0.0052738739177584,0.0364615097641944,-0.0005079500842839,standing,2026-03-04_13-57-05
1772632628178617300,3.141617431640625,-0.0320456454170867,0.0635766923755407,0.0118809919297695,-0.0009642969816923,0.0322846062481403,-0.0033151458483189,standing,2026-03-04_13-57-05
1772632628188566300,3.151566162109375,0.0550317130006849,-0.0006061491996049,0.0949181715786457,-0.0061441455036401,-0.0119542283937335,-0.0039385920390486,standing,2026-03-04_13-57-05
1772632628198514200,3.16151416015625,0.0800380343655124,-0.0563606235168874,0.0835077197700738,-0.0112853292375803,-0.043392576277256,0.0006783059798181,standing,2026-03-04_13-57-05
1772632628208463000,3.171463134765625,-0.0217803450556471,-0.0159147774904966,-0.0024298574954271,-0.0137942936271429,-0.0455393530428409,-0.0027065717149525,standing,2026-03-04_13-57-05
1772632628218412300,3.181412353515625,-0.1202992080073803,-0.0244094879828393,-0.0875841754287481,-0.0148438941687345,-0.0448730289936065,-0.0166155043989419,standing,2026-03-04_13-57-05
1772632628228361200,3.191361328125,-0.05829886157047,-0.0144011580571532,-0.2097755538582801,-0.0130230896174907,-0.0177575219422578,-0.0136982779949903,standing,2026-03-04_13-57-05
1772632628238310100,3.20131005859375,-0.0183422603657469,0.0339851255796849,-0.3030804450213909,-0.0022357078269124,0.0374830961227417,0.0016236307565122,standing,2026-03-04_13-57-05
1772632628248258000,3.211258056640625,-0.0558220231281593,0.0961589654199779,-0.266195944738388,0.0155837694182991,0.0780371874570846,0.0108261834830045,standing,2026-03-04_13-57-05
1772632628258207000,3.22120703125,-0.0387132866127416,0.0445674560010433,-0.0870224498927593,0.0304610468447208,0.0733879655599594,0.0128224892541766,standing,2026-03-04_13-57-05
1772632628268156200,3.23115625,-0.0183494938241317,-0.0728001555338501,0.0910877996355295,0.0335026457905769,0.0335990078747272,0.0093249594792723,standing,2026-03-04_13-57-05
1772632628278105300,3.241105224609375,-0.02309690754693,-0.0911246245145797,0.2192144133329391,0.0350321009755134,0.0001285339239984,0.0048051406629383,standing,2026-03-04_13-57-05
1772632628288054300,3.25105419921875,-0.0830262563960626,-0.0952248994402587,0.2876572504401207,0.0298176333308219,-0.0277859214693307,-0.0118537303060293,standing,2026-03-04_13-57-05
1772632628298002200,3.261002197265625,-0.1133876385206356,-0.1079047866627574,0.3468319084644317,0.0099395820870995,-0.0467809177935123,-0.0309778489172458,standing,2026-03-04_13-57-05
1772632628307951000,3.270951171875,-0.0513258076874539,-0.0659678252957761,0.3110498164653777,-0.0154856164008378,-0.0528169721364975,-0.0334338173270225,standing,2026-03-04_13-57-05
1772632628317900300,3.280900390625,-0.026042422946915,-0.0056271922320127,0.1795212853699922,-0.0290634017437696,-0.0562872029840946,-0.0341153889894485,standing,2026-03-04_13-57-05
1772632628327849200,3.29084912109375,-0.0298898556226864,0.0964659855425357,-0.0012900398105382,-0.0336967669427394,-0.038523118942976,-0.0255509279668331,standing,2026-03-04_13-57-05
1772632628337797000,3.300797119140625,-0.0197926783697679,0.1363853234767914,-0.1400882696479559,-0.0250601544976234,-0.0045667476952075,-0.0198009517043828,standing,2026-03-04_13-57-05
1772632628347746000,3.31074609375,-0.0248171189356595,0.1315150870919227,-0.2004799022465944,-0.0152221713215112,0.0214973427355289,-0.0127771329134702,standing,2026-03-04_13-57-05
1772632628357695000,3.320695068359375,-0.0519630826776847,0.1088683709979057,-0.1977922705978155,-0.0036546718329191,0.0231385100632905,-0.0139353414997458,standing,2026-03-04_13-57-05
1772632628367644200,3.33064404296875,0.024266243587248,0.0811288618095219,-0.1600894396692514,0.0073931850492954,0.0245113708078861,-0.0134080359712243,standing,2026-03-04_13-57-05
1772632628377593000,3.340593017578125,0.0868665652113035,0.0854394184850156,-0.0876613323181867,0.013744892552495,0.0283688232302665,-0.0045101484283804,standing,2026-03-04_13-57-05
1772632628387541000,3.350541015625,0.0906079436967149,0.0830984083168208,0.0023743279159069,0.0133430212736129,0.0209953300654888,0.0022715914528816,standing,2026-03-04_13-57-05
1772632628397490200,3.360490234375,0.0763781601510942,0.0436762062497437,0.0750128631472587,0.012216699309647,0.0019361518789082,0.0004022202920168,standing,2026-03-04_13-57-05
1772632628407439000,3.370439208984375,0.0624622648602351,0.0156282156340777,0.1330272452205419,0.0040096356533467,-0.0234245974570512,0.00495116552338,standing,2026-03-04_13-57-05
1772632628417388300,3.38038818359375,0.0568682442454621,0.0131773153506219,0.1038525886625051,0.0042995987460017,-0.0519441179931163,0.003924882505089,standing,2026-03-04_13-57-05
1772632628427336200,3.390336181640625,0.0109664709007367,0.004857230772823,-0.026745968106389,0.007136664353311,-0.0433615483343601,-0.0003982267808169,standing,2026-03-04_13-57-05
1772632628437285000,3.40028515625,-0.025579079751484,0.0458292926304042,-0.1023152960926294,0.0136988088488578,-0.0062416116707026,0.0061000268906354,standing,2026-03-04_13-57-05
1772632628447234000,3.410234130859375,-0.0529688256541267,0.0573227465473115,-0.123688923510909,0.0192586909979581,0.0317670218646526,0.0072670234367251,standing,2026-03-04_13-57-05
1772632628457183200,3.420183349609375,-0.0470139723703265,0.0057958267971873,-0.0347732072174549,0.0174440536648035,0.0371762998402118,0.002859435044229,standing,2026-03-04_13-57-05
1772632628467132200,3.430132080078125,-0.0326101108994334,-0.0437830276250839,0.067518707999587,0.0132466461509466,0.0259140599519014,-0.0011329097906127,standing,2026-03-04_13-57-05
1772632628477080000,3.440080078125,-0.0165649484949186,-0.0588261368475854,0.132542092052102,0.0068036057054996,0.0048729516565799,-0.0047680968418717,standing,2026-03-04_13-57-05
1772632628487029000,3.450029052734375,-0.0178069479126483,-0.0294863528557121,0.1259264733046293,3.43830324709e-05,-0.0118820592761039,-0.0074389809742569,standing,2026-03-04_13-57-05
1772632628496978000,3.45997802734375,0.0033978257447481,0.0121283908195793,0.0921843627005815,-0.0029231263324618,-0.0131828784942626,-0.0039281356148421,standing,2026-03-04_13-57-05
1772632628506927400,3.46992724609375,0.0127747258991003,0.0455820398710668,0.0709165337443351,-0.0066054789349436,-0.0124731454998254,0.0011273429263383,standing,2026-03-04_13-57-05
1772632628516876300,3.479876220703125,-0.0374970426907762,0.0423027259394526,0.0270943431526422,-0.0073069739155471,-0.0130534470081329,0.0007472543511539,standing,2026-03-04_13-57-05
1772632628526824200,3.48982421875,-0.0570091140208765,0.0291185424566268,-0.0318833309948444,-0.0040158391930162,-0.0015390031039714,0.0002782717347145,standing,2026-03-04_13-57-05
1772632628536773000,3.499773193359375,-0.0771604331025853,0.0226272807411849,-0.0710644177824258,-0.0018009380437433,0.012629278935492,-0.0023923886474221,standing,2026-03-04_13-57-05
1772632628546722000,3.50972216796875,-0.1177621638104319,0.0132167705781757,-0.0287947173297405,-0.0001511094160377,0.0168554484844207,-0.0080838296562433,standing,2026-03-04_13-57-05
1772632628556671200,3.519671142578125,-0.062226227614656,-0.007978431533277,0.0281365456819534,0.0005894899368286,0.0101654566824436,-0.0115982918068766,standing,2026-03-04_13-57-05
1772632628566619100,3.529619140625,-0.0144259637048467,0.0174206520088016,0.0466208813995122,0.0048412266187369,0.001492339419201,-0.00498539628461,standing,2026-03-04_13-57-05
1772632628576568000,3.539568115234375,0.0045304830364882,0.0563086010687053,0.0698719931274652,0.0099038900807499,-0.0097218342125415,-0.0028770701028406,standing,2026-03-04_13-57-05
1772632628586517000,3.54951708984375,0.0259934327060356,0.0605909545630216,0.0705266576439142,0.0134943639859557,-0.0190165340900421,0.0051550236530601,standing,2026-03-04_13-57-05
1772632628596466400,3.559466552734375,-0.0281635798193514,0.0266210265524685,0.0374596698224544,0.0202241353690624,-0.014750144444406,0.0063615906983613,standing,2026-03-04_13-57-05
1772632628606416000,3.569415771484375,-0.1150804869784042,0.0053480830296874,0.0436854124695062,0.0196662042289972,-0.0124270692467689,-0.0079238712787628,standing,2026-03-04_13-57-05
1772632628616363800,3.57936376953125,-0.1233754005823284,-0.0287529240146279,0.0628191520065069,0.0110508454963564,-0.0103564644232392,-0.0179434679448604,standing,2026-03-04_13-57-05
1772632628626312700,3.589312744140625,-0.0683386460803449,-0.033516923546046,0.0819610748499631,-0.0054743350483477,0.0024892929941415,-0.0216481909155845,standing,2026-03-04_13-57-05
1772632628636261600,3.59926171875,-0.0316278218638151,-0.0262171219266951,0.0841688140273094,-0.0192257836461067,0.0204797443002462,-0.0172496736049652,standing,2026-03-04_13-57-05
1772632628646210600,3.60921044921875,-0.028724209376797,-0.0299634688481688,0.1056119995504617,-0.0252274833619594,0.027384789660573,-0.0161567125469446,standing,2026-03-04_13-57-05
1772632628656159700,3.61915966796875,-0.0098020302312448,-0.0551788663864135,0.0938940892279148,-0.0266373381018638,0.0193048920482397,-0.0161174088716506,standing,2026-03-04_13-57-05
1772632628666107600,3.629107666015625,-0.0112350952416658,-0.0724773533202707,0.0636024113386869,-0.0160318315029144,0.0059310300275683,-0.0175499245524406,standing,2026-03-04_13-57-05
1772632628676056600,3.639056640625,-0.0310199921637773,-0.0838299374617636,0.0705173052936792,-0.0064979060553014,-0.0200967080891132,-0.0250015184283256,standing,2026-03-04_13-57-05
1772632628686005500,3.649005615234375,-0.0383616236308589,-0.0855696207359433,0.0622346301168203,-0.0020653405226767,-0.0557108931243419,-0.0387090742588043,standing,2026-03-04_13-57-05
1772632628695954700,3.65895458984375,-0.0360471726760268,-0.0899085267230868,-0.0301882175147533,-0.005542661063373,-0.0707305967807769,-0.046038880944252,standing,2026-03-04_13-57-05
1772632628705902600,3.668902587890625,-0.0488597098348662,0.0032986031539738,-0.1409972011864185,-0.0080521572381258,-0.05220378190279,-0.0470053404569625,standing,2026-03-04_13-57-05
1772632628715851500,3.6788515625,-0.0580726515991613,0.1012745548680424,-0.2590741300344467,-0.0100368922576308,-0.0162239428609609,-0.0427918136119842,standing,2026-03-04_13-57-05
1772632628725800700,3.68880078125,0.0048012993345037,0.1573788655363023,-0.3171884653508663,-0.0062373597174882,0.0239652879536151,-0.0273302979767322,standing,2026-03-04_13-57-05
1772632628735749600,3.69874951171875,0.0651036096818745,0.185617410288006,-0.3256418209195136,0.0081802187487483,0.0585846491158008,-0.0067676119506359,standing,2026-03-04_13-57-05
1772632628745698800,3.70869873046875,0.0358085416145622,0.1345725749664008,-0.2100654767155647,0.0249075330793857,0.0699478313326835,0.0033052621874958,standing,2026-03-04_13-57-05
1772632628755646700,3.718646728515625,0.0189693062229081,0.0670372080929577,-0.0754044928133487,0.03939750790596,0.0559603720903396,0.0044138804078102,standing,2026-03-04_13-57-05
1772632628765595600,3.728595703125,0.0021753347450867,0.0127915309034287,0.0416834249973297,0.0506472289562225,0.0275431126356124,0.0002998290583491,standing,2026-03-04_13-57-05
1772632628775544600,3.738544677734375,-0.0210583509240299,-0.0036753275118768,0.1489221489667892,0.0532620213925838,0.0011967283207923,-0.0080533577129244,standing,2026-03-04_13-57-05
1772632628785493500,3.748493408203125,-0.026453451433219,-0.0114430389039218,0.2506190209001303,0.0451367162168026,-0.0199674125760793,-0.015146154910326,standing,2026-03-04_13-57-05
1772632628795442700,3.758442626953125,-0.0025548721145838,0.0021900573901832,0.3052881841987371,0.0278025940060615,-0.0247963871806859,-0.0150199485942721,standing,2026-03-04_13-57-05
1772632628805390600,3.768390625,-0.0199257666975259,0.0141610656909644,0.3290034063071012,0.0015824413858354,-0.0281152185052633,-0.0168953463435173,standing,2026-03-04_13-57-05
1772632628815339500,3.778339599609375,-0.0448173391088843,0.0128344932623207,0.2654237913221121,-0.0238295719027519,-0.0349643379449844,-0.020281359553337,standing,2026-03-04_13-57-05
1772632628825288700,3.788288818359375,-0.0233764551406726,0.0226480312682688,0.1368769063860178,-0.0396183915436267,-0.0219899527728557,-0.0183668136596679,standing,2026-03-04_13-57-05
1772632628835237600,3.798237548828125,-0.0528367237070575,0.0503822797596454,0.0224327810823917,-0.0441170670092105,0.0034027569927275,-0.0159876439720392,standing,2026-03-04_13-57-05
1772632628845185800,3.808185791015625,-0.0624015476489439,0.0500204607099294,-0.0796937144398689,-0.0388250984251499,0.0171353463083505,-0.0180555880069732,standing,2026-03-04_13-57-05
1772632628855134700,3.818134765625,-0.0190847127635031,0.029450258629024,-0.1374281105279922,-0.0231776982545852,0.0263956915587186,-0.0130038382485508,standing,2026-03-04_13-57-05
1772632628865083600,3.828083740234375,-0.0074391370248049,0.0202304487325251,-0.1418669697582721,-0.0009528207592666,0.0249948687851429,-0.0121223321184515,standing,2026-03-04_13-57-05
1772632628875032600,3.838032470703125,-0.0215813884174451,0.0236570621803402,-0.0894072992026805,0.0157174095511436,0.0135673796758055,-0.0149319525808095,standing,2026-03-04_13-57-05
1772632628884981800,3.847981689453125,-0.0091901088779792,-0.0049074996553361,-0.027911504754424,0.0240267384797334,-0.0069855665788054,-0.016334906220436,standing,2026-03-04_13-57-05
1772632628894929700,3.8579296875,0.0502160563472658,-0.0282607565835118,0.034668577799201,0.0257148351520299,-0.0277084242552518,-0.0143516780808568,standing,2026-03-04_13-57-05
1772632628904878600,3.867878662109375,0.0580511338870972,-0.0097981943063437,0.0306114113628864,0.0198694635182619,-0.0333298258483409,-0.0153463687747716,standing,2026-03-04_13-57-05
1772632628914827500,3.87782763671875,0.0479206388864666,0.0216568282738327,0.003306640329957,0.0107093285769224,-0.0226578712463378,-0.011208951473236,standing,2026-03-04_13-57-05
1772632628924776400,3.8877763671875,0.0370142641425132,0.0447005808614194,-0.0150607910096645,-0.0033036917448043,-0.0035496919881552,-0.0059204464778304,standing,2026-03-04_13-57-05
1772632628934724600,3.897724609375,0.0538896302934736,0.0623991730287671,-0.0276800340861082,-0.0131311453878879,0.0120602929964661,-0.000514734070748,standing,2026-03-04_13-57-05
1772632628944673800,3.907673828125,0.0603739873440936,0.0772713095985353,-0.0375841729849576,-0.0132398027926683,0.0153373116627335,0.0074768797494471,standing,2026-03-04_13-57-05
1772632628954622700,3.917622802734375,0.0557679183207452,0.0905285583175718,-0.0463473251551389,-0.0057815709151327,0.0194636154919862,0.0141478739678859,standing,2026-03-04_13-57-05
1772632628964571600,3.927571533203125,0.0215591035204008,0.0796257637701928,-0.01234627135396,0.0116775799542665,0.0128698945045471,0.0155526921153068,standing,2026-03-04_13-57-05
1772632628974520600,3.9375205078125,0.0054393049770966,0.034634967790544,0.0014414309799671,0.0281778834760189,-0.012739191763103,0.0114348707720637,standing,2026-03-04_13-57-05
1772632628984468700,3.94746875,0.0082165511380881,0.025955109989643,0.004765022444725,0.0436423271894454,-0.0254957340657711,0.0104489680379629,standing,2026-03-04_13-57-05
1772632628994417700,3.957417724609375,-0.0349376770641654,0.0300735050939023,0.0172667766213417,0.0467292629182338,-0.0235239323228597,0.0048748031258583,standing,2026-03-04_13-57-05
1772632629004366600,3.96736669921875,-0.0889542216729372,-0.0115416769728064,0.0561474191576242,0.0330352894961833,-0.0135485287755727,-0.0050681084394454,standing,2026-03-04_13-57-05
1772632629014315500,3.9773154296875,-0.0835175470443442,-0.0313292042434215,0.1148585513234138,0.0061897602863609,-0.0037936340086162,-0.0128715336322784,standing,2026-03-04_13-57-05
1772632629024264400,3.987264404296875,-0.0515329476321116,-0.0095844054251909,0.1302361531972885,-0.0236046202480793,0.0116678802296519,-0.0101045100018382,standing,2026-03-04_13-57-05
1772632629034212600,3.997212646484375,-0.0402933223458006,0.0175194362081587,0.0818564454317092,-0.0426863729953765,0.0228378400206565,-0.0073422798886895,standing,2026-03-04_13-57-05
1772632629044161500,4.00716162109375,-0.0366154010180383,0.009528291323781,-0.0056067339658737,-0.0420855656266212,0.0236519686877727,-0.0038647244218736,standing,2026-03-04_13-57-05
1772632629054110700,4.01711083984375,-0.0487094146439805,-0.0095353055864572,-0.0890291135400533,-0.02437399700284,0.0202164910733699,-0.0059532173909246,standing,2026-03-04_13-57-05
1772632629064059600,4.0270595703125,-0.0973135788151994,-0.0036604222036898,-0.1537573140382766,0.0055029429495334,0.0113604133948683,-0.0099966945126652,standing,2026-03-04_13-57-05
1772632629074008600,4.037008544921875,-0.0954549818690866,0.0055550037786364,-0.1485334419101476,0.0359562449157238,0.0042855963110923,-0.0135385589674115,standing,2026-03-04_13-57-05
1772632629083956700,4.046956787109375,-0.0666005337087437,0.0086700670592486,-0.0899234320312738,0.052528828382492,0.002462662057951,-0.0148096857592463,standing,2026-03-04_13-57-05
1772632629093905700,4.05690576171875,-0.0812294726397842,-0.0070573711656033,0.0292091433495283,0.0489582568407058,-0.0014121050480753,-0.0206648409366607,standing,2026-03-04_13-57-05
1772632629103854600,4.0668544921875,-0.0834581450073048,-0.0143451900862157,0.1211065058022737,0.0324983224272728,-0.0009268771391361,-0.0262588113546371,standing,2026-03-04_13-57-05
1772632629113803500,4.076803466796875,-0.0684761548548936,-0.0313048004545271,0.1800502776801586,0.0092811752110719,0.0080651529133319,-0.0257673021405935,standing,2026-03-04_13-57-05
1772632629123751700,4.086751708984375,-0.0499431576900184,0.0027370237484574,0.1997813985884189,-0.0123282466083765,0.0161883272230625,-0.0243273321539163,standing,2026-03-04_13-57-05
1772632629133700600,4.09670068359375,-0.0352551820481196,0.009038608110696,0.1656990962445735,-0.0244118124246597,0.0194010306149721,-0.0219673365354537,standing,2026-03-04_13-57-05
1772632629143649500,4.1066494140625,0.0190380606101825,0.0389211206771433,0.1104383967936038,-0.0236243158578872,0.025497006252408,-0.0181672722101211,standing,2026-03-04_13-57-05
1772632629153598500,4.116598388671875,0.0153884520614519,0.0413330041244626,0.0953600701272487,-0.0166741348803043,0.0181032735854387,-0.0132733779028058,standing,2026-03-04_13-57-05
1772632629163547600,4.126547607421875,-0.0074243047818541,0.0002167114906013,0.1003273371458053,-0.0102833472192287,-0.0071863695047795,-0.0184902437031269,standing,2026-03-04_13-57-05
1772632629173495800,4.136495849609375,-0.0121949167171493,-0.0395787078030407,0.0892956555217504,-0.0037529952824115,-0.0311384443193674,-0.027307478711009,standing,2026-03-04_13-57-05
1772632629183444700,4.14644482421875,-0.0206831974687054,-0.0476207060918211,0.0666658905625343,-0.005596968345344,-0.0500335730612278,-0.0360964462161064,standing,2026-03-04_13-57-05
1772632629193393700,4.1563935546875,-0.0096639369348064,-0.0117810386866331,0.0185743520885705,-0.0156755745410919,-0.056347656995058,-0.0379960052669048,standing,2026-03-04_13-57-05
1772632629203342600,4.166342529296875,0.0373655617982149,0.0446374524973332,-0.0886240398705005,-0.0255018379539251,-0.0417545996606349,-0.0294656343758106,standing,2026-03-04_13-57-05
1772632629213290800,4.176290771484375,0.0433060577630996,0.133637924464792,-0.2170031670242548,-0.0208847448229789,-0.0075241951271891,-0.0137838637456297,standing,2026-03-04_13-57-05
1772632629223239700,4.18623974609375,0.0172536979440599,0.1692638029888272,-0.2816349214106798,-0.0059662498533725,0.0255453418940305,-0.0017477074870839,standing,2026-03-04_13-57-05
1772632629233188600,4.196188720703125,0.0067585708821192,0.1380013803713023,-0.2745253816664219,0.0132997427135705,0.0489741042256355,0.0078742513433098,standing,2026-03-04_13-57-05
1772632629243137500,4.206137451171875,-0.0171797924576327,0.0783734256215393,-0.1814256576865911,0.0326939448714256,0.0503493621945381,0.0096958540380001,standing,2026-03-04_13-57-05
1772632629253086500,4.21608642578125,-0.0523131747569888,0.0245053495727479,-0.0183072255849838,0.0423068888485431,0.0299464799463748,0.0028783297166228,standing,2026-03-04_13-57-05
1772632629263034600,4.22603466796875,-0.040526327384077,-0.0293590732142329,0.0835094733357429,0.0416216552257537,0.0045780092477798,-0.0041651986539363,standing,2026-03-04_13-57-05
1772632629272983600,4.235983642578125,-0.0301994330285117,-0.0526186605095863,0.1584369962871074,0.0305003896355628,-0.0146799758076667,-0.013248723000288,standing,2026-03-04_13-57-05
1772632629282932700,4.2459326171875,0.0073957362744957,-0.0288921863548457,0.1985994953274726,0.0163877662271261,-0.0194262620061635,-0.0138652445748448,standing,2026-03-04_13-57-05
1772632629292881700,4.255881591796875,0.0320652634330093,-0.0185107853330671,0.1882750851899385,-0.0011588996276259,-0.0137634454295039,-0.0102367717772722,standing,2026-03-04_13-57-05
1772632629302830600,4.26583056640625,0.0089732147242873,0.0095256609752774,0.1540893224716186,-0.0178577192127704,-0.0058695701882243,-0.0071861203759908,standing,2026-03-04_13-57-05
1772632629312778800,4.27577880859375,-0.031395912804082,-0.0021393501162528,0.1056710362613201,-0.0273596048355102,0.0039304662495851,-0.0090244021266698,standing,2026-03-04_13-57-05
1772632629322727700,4.285727783203125,-0.0646887818032875,-0.0152798405878245,0.00714285749197,-0.0241813883185386,0.0040337964892387,-0.0134873269125819,standing,2026-03-04_13-57-05
1772632629332676600,4.295676513671875,-0.0548936197042465,0.001384586226195,-0.0642933162122964,-0.0123205659911036,0.0039765378460288,-0.0218673143535852,standing,2026-03-04_13-57-05
1772632629342625500,4.30562548828125,0.0065993982650339,0.0309860898941755,-0.0718581985086202,-0.0028466368094086,0.009009912610054,-0.0200837943702936,standing,2026-03-04_13-57-05
1772632629352574500,4.315574462890625,0.0657072381308302,0.0662919426836073,-0.0858779560327529,0.0076734437607228,0.0204999819397926,-0.0077003631740808,standing,2026-03-04_13-57-05
1772632629362522600,4.325522705078125,0.0728837421640753,0.0768152363941073,-0.0354378086060285,0.0167287252843379,0.0218001380562782,4.54406253993e-05,standing,2026-03-04_13-57-05
1772632629372471600,4.335471435546875,0.06444982194826,0.0661705082610249,0.0387239906698465,0.0203661434352397,0.0092338807880878,0.0031844391487538,standing,2026-03-04_13-57-05
1772632629382420500,4.34542041015625,0.0849831626174971,0.0342426074720919,0.1067149923563003,0.0145985353738069,-0.0126333348453044,0.0071632014587521,standing,2026-03-04_13-57-05
1772632629392369700,4.35536962890625,0.0604463219279423,0.0236440565682947,0.1122018993347883,0.0072868969291448,-0.0261121280491352,0.0077289547771215,standing,2026-03-04_13-57-05
1772632629402317800,4.36531787109375,-0.0138138596884906,0.0304759484149515,0.0798439365655183,-0.0033276644535362,-0.0303899627178907,0.0008324328809976,standing,2026-03-04_13-57-05
1772632629412266800,4.375266845703125,-0.0366176295077428,0.05361877746284,-0.0091056819975376,-0.0103287259116768,-0.0219521354883909,0.0010084398090839,standing,2026-03-04_13-57-05
1772632629422215700,4.385215576171875,-0.028938363584131,0.0828412186853587,-0.0949538274139165,-0.0100221959874033,0.0040299296379089,0.0038039598148316,standing,2026-03-04_13-57-05
1772632629432164600,4.39516455078125,-0.0221492149006575,0.0935560894452035,-0.1168839196711778,-0.0069722146727144,0.0257397554814815,0.0092227645218372,standing,2026-03-04_13-57-05
1772632629442113500,4.405113525390625,0.0022282339761033,0.084562051128596,-0.094663904556632,-0.0023348522372543,0.0337758436799049,0.0160180851817131,standing,2026-03-04_13-57-05
1772632629452061700,4.415061767578125,0.0322540640033781,0.0413616456970572,-0.0275017549097537,0.0071686129085719,0.0275556314736604,0.0219953972846269,standing,2026-03-04_13-57-05
1772632629462010600,4.4250107421875,-0.0116012982055544,0.0229483293890953,0.0210445415943861,0.0121436640620231,0.0121535062789917,0.0205181427299976,standing,2026-03-04_13-57-05
1772632629471959600,4.43495947265625,-0.0380038231691345,-0.0054319619208574,0.0579185204833745,0.0156135642901062,-0.0020999999251216,0.0205715019255876,standing,2026-03-04_13-57-05
1772632629481908500,4.444908447265625,-0.0385614935845136,-0.0423689230434596,0.0915121625274419,0.0195558406412601,-0.0077621466480195,0.0185618810355663,standing,2026-03-04_13-57-05
1772632629491857700,4.454857666015625,-0.0750865494379773,-0.0491767033621668,0.1148223109662532,0.0154138840734958,-0.0163304656744003,0.0119643071666359,standing,2026-03-04_13-57-05
1772632629501805600,4.4648056640625,-0.0699515977023169,-0.0524395045503973,0.1288467446655035,0.0081391939893364,-0.0266558062285184,0.0061064176261425,standing,2026-03-04_13-57-05
1772632629511754800,4.474754638671875,-0.074907612674497,-0.0535882361941039,0.1102192010849714,0.0023854761384427,-0.0332709662616252,-0.0003925510682165,standing,2026-03-04_13-57-05
1772632629521703700,4.48470361328125,-0.10518858650662,-0.0525889960236847,0.037956513428688,-0.0004779547452926,-0.0302325673401355,-0.0059580253437161,standing,2026-03-04_13-57-05
1772632629531652600,4.494652587890625,-0.1175060336248949,-0.0344537660047411,-0.033435821133852,0.0006293570622801,-0.0208637043833732,-0.0115084024146199,standing,2026-03-04_13-57-05
1772632629541600800,4.504600830078125,-0.1221782997522503,-0.0269470436364412,-0.0733136580139398,-0.000620731152594,-0.0097018629312515,-0.0193077363073825,standing,2026-03-04_13-57-05
1772632629551549700,4.5145498046875,-0.0794662988921627,-0.0021843583017587,-0.086886840814352,-0.0028668884187936,-0.0004411188419908,-0.0200056955218315,standing,2026-03-04_13-57-05
1772632629561498600,4.52449853515625,-0.019726517798379,0.0443380311593413,-0.0886643718808889,-0.0036658365279436,0.0064159883186221,-0.0140215726569294,standing,2026-03-04_13-57-05
1772632629571447600,4.534447509765625,0.02521240186356,0.0636347061730921,-0.074161799275875,-0.0016401326283812,0.0166186932474374,-0.005548542831093,standing,2026-03-04_13-57-05
1772632629581396500,4.544396484375,0.0031994901610538,0.0685128336034715,-0.0636480040460825,0.0037202779203653,0.0232627484947443,-0.0017133245710283,standing,2026-03-04_13-57-05
1772632629591344600,4.5543447265625,-0.0076767817055806,0.0548043339855968,-0.0288239434242248,0.0084742372855544,0.0155643485486507,-0.0057975901290774,standing,2026-03-04_13-57-05
1772632629601293600,4.56429345703125,0.0086439462373033,0.0319613646671175,0.0243920984566211,0.0136668682098388,0.00533914193511,-0.0077443607151508,standing,2026-03-04_13-57-05
1772632629611242800,4.57424267578125,0.0216748388545587,0.0542116287894546,0.0292459682285785,0.0179167408496141,0.0058427453041076,-0.0034116641618311,standing,2026-03-04_13-57-05
1772632629621191700,4.584191650390625,0.0197463915426284,0.0633691871047019,0.0819353558868169,0.0164091251790523,0.0122694857418537,-0.0002102784346789,standing,2026-03-04_13-57-05
1772632629631140600,4.594140625,0.0219170135799795,0.0572594720527529,0.1395955176949501,0.0118260625749826,0.0091655692085623,0.0012787086889147,standing,2026-03-04_13-57-05
1772632629641088800,4.6040888671875,0.0336112507659941,0.0312156608663499,0.1761485940665006,0.001495927106589,0.0008839373476803,0.006893184967339,standing,2026-03-04_13-57-05
1772632629651037700,4.61403759765625,0.0281595246987417,0.0018142098151147,0.183839148569107,-0.0050336606800556,-0.0125201530754566,0.0088174445554614,standing,2026-03-04_13-57-05
1772632629660986600,4.623986572265625,0.0011440189359709,-0.0168259009860455,0.1514858619749546,-0.0128947803750634,-0.0371485352516174,0.0012585951481014,standing,2026-03-04_13-57-05
1772632629670935600,4.633935546875,-0.044041970822215,-0.0337486864753067,0.052699324530363,-0.0131725715473294,-0.0546618811786174,-0.0079260021448135,standing,2026-03-04_13-57-05
1772632629680883700,4.6438837890625,-0.084810874790512,-0.016650690549612,-0.0707686497062444,-0.0100486828014254,-0.0586022920906543,-0.0179155208170413,standing,2026-03-04_13-57-05
1772632629690832600,4.65383251953125,-0.0713638025877997,0.0390692969761788,-0.1595744758844375,-0.0088003380224108,-0.0429005622863769,-0.0190313160419464,standing,2026-03-04_13-57-05
1772632629700781600,4.663781494140625,-0.0139639722162857,0.0698857293918728,-0.2295306401640176,-0.005125974304974,-0.007545500062406,-0.005922969430685,standing,2026-03-04_13-57-05
1772632629710730500,4.67373046875,-0.011163418244943,0.105909813453257,-0.2551291918009519,-0.0004490534774959,0.0300566032528877,0.0100435083732008,standing,2026-03-04_13-57-05
1772632629720679700,4.6836796875,-0.0250091343764215,0.0910185337916016,-0.1965840638518333,0.0096075758337974,0.0491884835064411,0.0210996214300394,standing,2026-03-04_13-57-05
1772632629730627800,4.6936279296875,-0.0253565961072221,0.0061133683137595,-0.0976794529855251,0.0208334419876337,0.048782892525196,0.0266802906990051,standing,2026-03-04_13-57-05
1772632629740576800,4.70357666015625,-0.0667492214644327,-0.0407712785884737,0.0237058697581291,0.0308804847300052,0.0302254520356655,0.0187035910785198,standing,2026-03-04_13-57-05
1772632629750525700,4.713525634765625,-0.1197490267787128,-0.0832270031325519,0.1333113228589296,0.0328710414469242,-0.0044290679506957,-0.0010559583315625,standing,2026-03-04_13-57-05
1772632629760474600,4.723474609375,-0.0455845240890979,-0.1074694639854133,0.205419112214446,0.0273878574371337,-0.0355044305324554,-0.0144500602036714,standing,2026-03-04_13-57-05
1772632629770423600,4.733423583984375,0.0602578501511365,-0.0533989972323179,0.1900350805997848,0.0158419460058212,-0.0354715399444103,-0.011499754153192,standing,2026-03-04_13-57-05
1772632629780371700,4.743371826171875,0.0853216738568618,0.0192206871680915,0.1770358982950449,0.0028278767131268,-0.0233080815523862,-0.0054072411730885,standing,2026-03-04_13-57-05
1772632629790320600,4.753320556640625,0.0502304867314174,0.037701077362895,0.1638029072344303,-0.0166750885546207,-0.0280607622116804,-0.0050495928153395,standing,2026-03-04_13-57-05
1772632629800269600,4.76326953125,0.0904012056108564,0.0311273980610072,0.0942868879377841,-0.0303837098181247,-0.0288288183510303,0.0018687669653445,standing,2026-03-04_13-57-05
1772632629810218500,4.773218505859375,0.0779781792262569,0.0772184103675186,-0.0134516022473573,-0.0352342389523983,-0.0174387395381927,0.0114551382139325,standing,2026-03-04_13-57-05
1772632629820166700,4.783166748046875,0.0441585464065894,0.1190669627986848,-0.1259247197389602,-0.0276679303497076,-0.0018448672490194,0.0177931953221559,standing,2026-03-04_13-57-05
1772632629830115600,4.793115478515625,0.0540906327582895,0.1300323011882603,-0.2120353154838085,-0.0107399430125951,0.020682543516159,0.0277400314807891,standing,2026-03-04_13-57-05
1772632629840064800,4.803064697265625,0.03926171427574,0.1170199671410024,-0.1991629744291305,0.0109515041112899,0.0292992014437913,0.0322429053485393,standing,2026-03-04_13-57-05
1772632629850013700,4.813013671875,0.0298897460248321,0.0827536865323781,-0.1060305172234773,0.0290588699281215,0.0134978648275136,0.0316320434212684,standing,2026-03-04_13-57-05
1772632629859962600,4.822962646484375,0.0590799654781818,0.0530402469225227,-0.0138964234054088,0.037555418908596,-0.0046606324613094,0.0370523780584335,standing,2026-03-04_13-57-05
1772632629869910800,4.832910888671875,0.0535595580888912,0.0264224352404475,0.0514788428246974,0.0363365858793258,-0.0229697301983833,0.0386736243963241,standing,2026-03-04_13-57-05
1772632629879859700,4.842859619140625,-0.0047493499515578,0.0022238135293126,0.0665612611442804,0.0294690914452075,-0.0385534837841987,0.0311224963515996,standing,2026-03-04_13-57-05
1772632629889808600,4.85280859375,0.0055142699094489,0.0125125678315758,0.0481476525753736,0.0175803303718566,-0.0330848135054111,0.0297117941081523,standing,2026-03-04_13-57-05
1772632629899757600,4.862757568359375,-0.0165648388970643,0.0416644280359148,-0.0015659341424703,0.00434415275231,-0.0079877180978655,0.0349600836634635,standing,2026-03-04_13-57-05
1772632629909706500,4.87270654296875,-0.0449917458277195,0.0513857577137649,-0.0145686235785484,-0.0083005065098404,0.0212679058313369,0.0381976775825023,standing,2026-03-04_13-57-05
1772632629919654700,4.882654541015625,-0.0557895821632817,0.0048557694680988,-0.0148147072941064,-0.0138830244541168,0.0298510082066059,0.0357369147241115,standing,2026-03-04_13-57-05
1772632629929603600,4.892603515625,-0.0323304902404546,-0.0288283273383975,-0.0201461314499378,-0.0096882730722427,0.022935714572668,0.0300271958112716,standing,2026-03-04_13-57-05
1772632629939552500,4.902552490234375,-0.0307574322374537,-0.0242556125953793,-0.0282546191036701,0.0024733189493417,0.0201500467956066,0.0311582423746585,standing,2026-03-04_13-57-05
1772632629949501700,4.912501708984375,-0.0484509098382666,-0.0124409639000892,-0.0009422492861747,0.0195218101143836,0.0054619163274765,0.0328032746911048,standing,2026-03-04_13-57-05
1772632629959449900,4.922449951171875,-0.0678978800429031,-0.0251278653852641,0.0283335295587778,0.0342184640467166,-0.0197267942130565,0.0260273963212966,standing,2026-03-04_13-57-05
1772632629969398800,4.932398681640625,-0.0363971551574766,-0.0452285502582788,0.0261298820346593,0.0401182770729064,-0.0287933964282274,0.0275635477155447,standing,2026-03-04_13-57-05
1772632629979347700,4.94234765625,-0.0550073822770267,-0.0153477912575006,0.0635270080149173,0.0398463681340217,-0.01815140619874,0.0321897268295288,standing,2026-03-04_13-57-05
1772632629989296600,4.952296630859375,-0.1417111581420526,0.0010164835661649,0.1195306347876787,0.0293429009616374,-0.0151413613930344,0.0243348162621259,standing,2026-03-04_13-57-05
1772632629999245600,4.96224560546875,-0.1665302863717079,-0.0571890371650457,0.151518595200777,0.0091577377170324,-0.0258278287947177,0.0104658734053373,standing,2026-03-04_13-57-05
1772632630009193700,4.97219384765625,-0.0800118404783308,-0.0516958465762436,0.1082365028351545,-0.0107112508267164,-0.0149359032511711,0.0089547941461205,standing,2026-03-04_13-57-05
1772632630019142700,4.982142578125,-0.0768221410589292,0.0211946175895631,0.029907062485814,-0.0197561439126729,0.0152728650718927,0.0142134707421064,standing,2026-03-04_13-57-05
1772632630029091600,4.992091552734375,-0.1187085047498345,0.0352745808683335,0.0254658651679754,-0.0207984484732151,0.0206459276378154,0.0070949830114841,standing,2026-03-04_13-57-05
1772632630039040500,5.00204052734375,-0.0835495496178045,-0.0105937285982072,0.0412789358496665,-0.0188846997916698,-0.0085172830149531,-0.0021666921675205,standing,2026-03-04_13-57-05
1772632630048989700,5.01198974609375,0.0052770270874723,-0.0115071901813149,-0.0537923804640769,-0.0072316066361963,-0.0149317737668752,0.0050626406446099,standing,2026-03-04_13-57-05
1772632630058937600,5.0219375,0.0065440513486042,0.0637337826333939,-0.0793827487945556,0.01202810741961,0.0014879456721246,0.0072765266522765,standing,2026-03-04_13-57-05
1772632630068886800,5.03188671875,-0.0583215848589315,0.0776947957076132,-0.0085375267207622,0.0197896249592304,0.0003118938766419,0.0042120269499719,standing,2026-03-04_13-57-05
1772632630078835700,5.041835693359375,0.0054268838869407,0.015832798295468,0.048413610035181,0.0155176483094692,-0.0269420966506004,0.0030588782392442,standing,2026-03-04_13-57-05
1772632630088784600,5.05178466796875,0.0809591677984222,0.0099798344835638,0.0616769962340593,0.0077834627591073,-0.0323781408369541,0.0129606928676366,standing,2026-03-04_13-57-05
1772632630098732800,5.06173291015625,0.0343147228602319,0.1021470999188721,0.0238946703284978,-0.0021951356902718,-0.0126505102962255,0.0211416576057672,standing,2026-03-04_13-57-05
1772632630108681700,5.071681640625,-0.0005685206029564,0.1067865962877869,-0.008668459624052,-0.0057636331766843,0.0145872328430414,0.0223157741129398,standing,2026-03-04_13-57-05
1772632630118630700,5.081630615234375,0.0267785917343571,0.0607704027831554,-0.00138005618155,-0.001243183389306,0.0274196732789278,0.0223405417054891,standing,2026-03-04_13-57-05
1772632630128579600,5.09157958984375,0.049873709183,0.0325907486118376,0.0600268909394741,-0.0023898626677691,0.0235690120607614,0.0245392769575119,standing,2026-03-04_13-57-05
1772632630138528500,5.101528564453125,0.0335317557889968,0.005735767173022,0.1496580620259046,-0.0049257245846092,0.0061311656609177,0.0207203049212694,standing,2026-03-04_13-57-05
1772632630148476700,5.1114765625,0.0214576889725402,-0.0353290875345468,0.2079027457237243,-0.0118335550650954,-0.029348399490118,0.0153082543984055,standing,2026-03-04_13-57-05
1772632630158425600,5.121425537109375,0.0194928917055949,-0.0480221264995634,0.1909925274550914,-0.0230289511382579,-0.0584341138601303,0.0095829917117953,standing,2026-03-04_13-57-05
1772632630168374800,5.131374755859375,-0.0019923428609967,-0.0369360843397676,0.0969622446268796,-0.0352967008948326,-0.0610695779323577,0.0101223662495613,standing,2026-03-04_13-57-05
1772632630178323700,5.14132373046875,-0.0523455791892483,0.0129873457364737,-0.0786737237423658,-0.0378983467817306,-0.0458954162895679,0.0098661705851554,standing,2026-03-04_13-57-05
1772632630188272600,5.151272705078125,-0.0648773631779476,0.0396165555953979,-0.2244178271949291,-0.0256932713091373,-0.013504053466022,0.0143844187259674,standing,2026-03-04_13-57-05
1772632630198220800,5.161220703125,-0.070764704183489,0.0695854312710464,-0.2837392002135515,-0.0077286511659622,0.0167190954089164,0.0187482740730047,standing,2026-03-04_13-57-05
1772632630208169700,5.171169677734375,-0.0457474960984662,0.0821881616041064,-0.2380839489758014,0.0134698767215013,0.0271086227148771,0.024284441024065,standing,2026-03-04_13-57-05
1772632630218118700,5.18111865234375,-0.0016156550357118,0.0484632943958044,-0.1734165387541055,0.0300880018621683,0.0251306928694248,0.0299178231507539,standing,2026-03-04_13-57-05
1772632630228067600,5.191067626953125,-0.0098496322326362,0.0299456409305334,-0.0968663830369711,0.0470889918506145,0.0195106230676174,0.0311537124216556,standing,2026-03-04_13-57-05
1772632630238015700,5.201015625,-0.0506654075499624,0.0045744683086872,0.0307236395657062,0.053357008844614,0.0010186980944126,0.0221953727304935,standing,2026-03-04_13-57-05
1772632630247964700,5.210964599609375,-0.0232674052756279,-0.0248569394893944,0.136121119582653,0.0450464822351932,-0.0169022493064403,0.0130646545439958,standing,2026-03-04_13-57-05
1772632630257913600,5.22091357421875,-0.0059926280109211,-0.0222829973481595,0.206170807364583,0.0252914167940616,-0.0173928029835224,0.013405006378889,standing,2026-03-04_13-57-05
1772632630267862500,5.230862548828125,-0.0040940278479829,0.0009722060330212,0.2523433604747057,-0.0042123184539377,-0.0148340407758951,0.0089030871167778,standing,2026-03-04_13-57-05
1772632630277811700,5.240811767578125,0.0191948220744729,0.0278450153894722,0.2542337042659521,-0.03628795966506,-0.013198060914874,0.0090125426650047,standing,2026-03-04_13-57-05
1772632630287759600,5.250759521484375,0.0284581788517534,0.0242018365815281,0.1605436131775379,-0.0540639013051986,-0.0057490617036819,0.0155345257371664,standing,2026-03-04_13-57-05
1772632630297708800,5.260708740234375,-0.0336088396131992,0.0483833610273897,0.0527262125372886,-0.0560902990400791,0.0054428726434707,0.0128564508631825,standing,2026-03-04_13-57-05
1772632630307657700,5.27065771484375,-0.0816976746734231,0.0502390718966722,-0.0295130947321653,-0.0409647300839424,0.0163378659635782,0.0066937571391463,standing,2026-03-04_13-57-05
1772632630317606700,5.280606689453125,-0.0330511691978201,0.0642525458104908,-0.0691103611052036,-0.0213324353098869,0.0167210958898067,0.0078282635658979,standing,2026-03-04_13-57-05
1772632630327555600,5.2905556640625,0.0022855901865288,0.0623448124930262,-0.0167611651867628,-0.006678276695311,0.0060801673680543,0.0102417599409818,standing,2026-03-04_13-57-05
1772632630337503700,5.300503662109375,0.0176979345802217,0.0474672690957784,0.0094324297338724,0.0047823707573115,-0.0118964361026883,0.0120204854756593,standing,2026-03-04_13-57-05
1772632630347452700,5.31045263671875,0.0419456561300903,0.0357657253861427,0.0622416443794965,0.0060356301255524,-0.0277245361357927,0.0150454156100749,standing,2026-03-04_13-57-05
1772632630357401600,5.320401611328125,0.0347915465917438,0.0320167481161653,0.0747498282968997,0.0004512476734817,-0.0385990180075168,0.0157817788422107,standing,2026-03-04_13-57-05
1772632630370460700,5.333460693359375,0.031234402099438,0.041987814771384,0.0421153866738081,-0.0099333208054304,-0.0300211161375045,0.0202314723283052,standing,2026-03-04_13-57-05
1772632630380409600,5.34340966796875,0.008005830996856,0.0498684850186109,-0.0110182376205921,-0.0185523740947246,-0.0126514453440904,0.0190192013978958,standing,2026-03-04_13-57-05
1772632630390357800,5.353357666015625,-0.0094232235141098,0.0358383522309362,-0.0680120444744825,-0.0225357096642255,0.0055197030305862,0.0201809275895357,standing,2026-03-04_13-57-05
1772632630400306700,5.363306640625,-0.0049498409597203,0.0367246335461735,-0.0860164877206087,-0.0211868193000555,0.0308972336351871,0.0279272645711898,standing,2026-03-04_13-57-05
1772632630410255600,5.373255615234375,-0.0144778765551745,0.0091816698431968,-0.0707592973560094,-0.0170818157494068,0.0304052140563726,0.0259414445608854,standing,2026-03-04_13-57-05
1772632630420204500,5.38320458984375,-0.0304793824810534,-0.025212036537379,-0.0134743986010551,-0.0119600240141153,0.0094368159770965,0.0188750121742486,standing,2026-03-04_13-57-05
1772632630430152700,5.393152587890625,0.0119939873175695,-0.0589440641388297,-0.0078261635810136,-0.0054571582004427,0.0038594941142946,0.022434651851654,standing,2026-03-04_13-57-05
1772632630440101600,5.4031015625,0.0158700615659356,-0.0319980434156954,-0.0358656786292791,0.0075808796100318,0.0175699796527624,0.0267574936151504,standing,2026-03-04_13-57-05
1772632630450050600,5.413050537109375,-0.051796493939124,-0.0091734865367412,0.0139227268904447,0.0099904192611575,0.0074578169733285,0.021761542186141,standing,2026-03-04_13-57-05
1772632630459999500,5.42299951171875,-0.0611322218328714,-0.054511196257919,0.1039244848549365,0.0038078906945884,-0.0153883760794997,0.0156485233455896,standing,2026-03-04_13-57-05
1772632630469948700,5.43294873046875,-0.0514762124761939,-0.1042851348608732,0.0945621977478265,-0.0010088640265166,-0.0229332409799098,0.0126318773254752,standing,2026-03-04_13-57-05
1772632630479896600,5.442896484375,-0.1160216402860358,-0.0748478818438947,0.0599549947470426,0.0001741116866469,-0.0237684082239866,0.0031243921257555,standing,2026-03-04_13-57-05
1772632630489845800,5.452845703125,-0.126464598769322,-0.0550879732325673,0.0073889412075281,-0.0039253225550055,-0.0165698863565921,-0.0069577894173562,standing,2026-03-04_13-57-05
1772632630499794700,5.462794677734375,-0.0631113033534958,-0.0272683845452964,-0.0101373631328344,-0.0084505658596754,-0.0034748574253171,-0.0016804696060717,standing,2026-03-04_13-57-05
1772632630509743600,5.47274365234375,0.0001161737255752,0.0299960559435188,-0.0276776959985494,-0.010748703032732,0.0150371761992573,0.0050317756831645,standing,2026-03-04_13-57-05
1772632630519692500,5.482692626953125,-0.0380246832940727,0.0695299016915261,-0.0471001893490552,-0.0067539601586759,0.0308001600205898,0.0078459382057189,standing,2026-03-04_13-57-05
1772632630529640700,5.492640625,-0.0262484669130295,0.0826886584721505,-0.0084176997333765,-0.0017027165740728,0.0254156477749347,0.0075214523822069,standing,2026-03-04_13-57-05
1772632630539589600,5.502589599609375,0.0277462311901152,0.0486366051360964,0.0728162298858165,-0.0081371804699301,0.0028469560202211,0.0080841789022088,standing,2026-03-04_13-57-05
1772632630549538600,5.51253857421875,0.0244791922181844,0.0358712315872311,0.1605202323019504,-0.0162899661809206,-0.0111735220998525,0.0075408518314361,standing,2026-03-04_13-57-05
1772632630559487500,5.522487548828125,0.0152331519018858,0.0513631074905395,0.137217682647705,-0.0222192276269197,-0.0144633250311017,0.0112429121509194,standing,2026-03-04_13-57-05
1772632630569435600,5.532435546875,-0.0222967701451852,0.0733775170303881,0.0545236173480749,-0.0192716643214225,-0.0154621433466672,0.0092608332633972,standing,2026-03-04_13-57-05
1772632630579384600,5.542384521484375,-0.0383828490819782,0.1142301902920007,0.0105173023611307,-0.0136816892772912,-0.0112053472548723,0.0105330254882574,standing,2026-03-04_13-57-05
1772632630589333800,5.552333740234375,-0.0041387072399258,0.1023310781836509,-0.0074281041741371,-0.007066860795021,0.0082082962617278,0.0202017296105623,standing,2026-03-04_13-57-05
1772632630599281700,5.56228173828125,-0.0166556224530562,0.0990891736529767,0.0070960957407951,-0.0030564069747924,0.020249780267477,0.0220867153257131,standing,2026-03-04_13-57-05
1772632630609230800,5.57223095703125,-0.0200022659998387,0.047606093044579,0.0796539669513702,-0.0051038702949881,0.0142157208174467,0.0192297864705324,standing,2026-03-04_13-57-05
1772632630619178800,5.5821787109375,0.0080529946068301,-0.0165501527845859,0.1578805314481258,-0.0148808667436242,-0.005746800918132,0.0191371086984872,standing,2026-03-04_13-57-05
1772632630629127700,5.592127685546875,-0.0045423196047544,-0.074789429654926,0.2022451583534479,-0.0274242833256721,-0.0326595120131969,0.0125319380313158,standing,2026-03-04_13-57-05
1772632630639076600,5.60207666015625,-0.0468538864377886,-0.1131280742689967,0.1572837345987558,-0.0405230410397052,-0.0593931227922439,-0.0004192804917693,standing,2026-03-04_13-57-05
1772632630649025800,5.61202587890625,-0.0603298194088041,-0.1179784369096159,0.0409668011605739,-0.0438812114298343,-0.0609674453735351,-0.0052786245942115,standing,2026-03-04_13-57-05
1772632630658975000,5.62197509765625,-0.0357641910161823,-0.0511281296908855,-0.1365875680506229,-0.0383202657103538,-0.0343028120696544,0.001866104081273,standing,2026-03-04_13-57-05
1772632630668923000,5.6319228515625,-0.0510360674932599,0.0258515034846961,-0.2709112828224897,-0.0227389093488454,0.0075932396575808,0.0099669080227613,standing,2026-03-04_13-57-05
1772632630678871800,5.641871826171875,-0.0605687427312135,0.0464566307485103,-0.2894891420423984,-0.006051274947822,0.0293952077627182,0.0161070916801691,standing,2026-03-04_13-57-05
1772632630688820700,5.65182080078125,-0.0360232803437858,0.0197578627847135,-0.2088163534373044,0.0073037352412939,0.0327794216573238,0.0194758642464876,standing,2026-03-04_13-57-05
1772632630698770000,5.66177001953125,-0.0410404509186744,-0.0375631301969289,-0.1088625257790088,0.0177150964736938,0.026546562090516,0.0173975341022014,standing,2026-03-04_13-57-05
1772632630709338600,5.672338623046875,-0.0894385711237788,-0.0833520908169448,-0.0064572133153676,0.0230968557298183,0.0102795716375112,0.0071384478360414,standing,2026-03-04_13-57-05
1772632630719287800,5.682287841796875,-0.0890104088395833,-0.1046899162694811,0.0566425091981887,0.0223375875502824,-0.0030082704033702,-0.0020329458639025,standing,2026-03-04_13-57-05
1772632630729236700,5.69223681640625,-0.0601516863629221,-0.1024850997015833,0.1093693062573671,0.0149420090019702,-0.0122603606432676,-0.0080859893932938,standing,2026-03-04_13-57-05
1772632630739186000,5.70218603515625,-0.0167831212902441,-0.0714554629266262,0.1516413447976112,0.003959666006267,-0.0195371825248003,-0.0069000832736492,standing,2026-03-04_13-57-05
1772632630749133800,5.7121337890625,0.0016490823812782,-0.0176882169038057,0.1690039830088615,-0.0098061878234148,-0.0261206477880477,-0.0055017694830894,standing,2026-03-04_13-57-05
1772632630759082800,5.722082763671875,-0.0013185717852786,0.0055041503742337,0.1235053836375474,-0.0177970025688409,-0.0176770966500043,-0.0016841280739754,standing,2026-03-04_13-57-05
1772632630769031700,5.73203173828125,-0.0260175807666033,0.0278606513500213,0.0253594821840524,-0.0192763172090053,-0.0024452791549265,-0.0053353914991021,standing,2026-03-04_13-57-05
1772632630778980600,5.741980712890625,-0.0699057857992127,0.0452354183904826,-0.0450549472570419,-0.0129150887951254,0.0101221781224012,-0.015431435778737,standing,2026-03-04_13-57-05
1772632630788929800,5.7519296875,-0.040006833554618,0.0783421537004411,-0.0493190344423055,-0.008299421519041,0.0208969283849,-0.0148604260757565,standing,2026-03-04_13-57-05
1772632630798877700,5.761877685546875,0.0386997695440426,0.0855836492612957,-0.0212041160702705,-0.0042330413125455,0.0229004248976707,-0.0074898609891533,standing,2026-03-04_13-57-05
1772632630808826600,5.77182666015625,0.0674100234607234,0.096123309584707,0.0616863485842943,-0.0054007642902433,0.0077871172688901,-0.0011164543684571,standing,2026-03-04_13-57-05
1772632630818775800,5.78177587890625,0.1108649516426026,0.0936005131088197,0.0979693758428096,-0.0059943827800452,-0.0110787153244018,0.0067433333024382,standing,2026-03-04_13-57-05
1772632630828724700,5.791724853515625,0.123011353042908,0.0662675388947129,0.0777934337764978,-0.0068813860416412,-0.0323874689638614,0.0108311735093593,standing,2026-03-04_13-57-05
1772632630838674000,5.801673828125,0.0634619799546897,0.0624304449498653,0.0284989492535591,-0.0051423422992229,-0.0388988964259624,0.0120863215997815,standing,2026-03-04_13-57-05
1772632630848621800,5.811621826171875,0.025867760499753,0.0634044045485556,-0.0531792170017957,0.0004440271295607,-0.0262352973222732,0.0121617587283253,standing,2026-03-04_13-57-05
1772632630858570800,5.82157080078125,-0.002745207054913,0.0669414926335215,-0.1035632503271102,0.0049530249089002,-0.0075140744447708,0.0130086438730359,standing,2026-03-04_13-57-05
1772632630868519700,5.831519775390625,-0.022138656974025,0.0624362901687622,-0.1188923368841409,0.0054365079849958,0.0133384764194488,0.0132364844903349,standing,2026-03-04_13-57-05
1772632630878468900,5.84146875,-0.0428888917969539,0.0440865406163036,-0.0804366417616605,0.005270326975733,0.02924713678658,0.0197606962174177,standing,2026-03-04_13-57-05
1772632630888416800,5.851416748046875,-0.0436055521663278,0.0199377493962645,-0.0123597153574228,-8.74912366271e-05,0.0336927510797977,0.0220469217747449,standing,2026-03-04_13-57-05
1772632630898365700,5.86136572265625,-0.0667848042344674,-0.0301516848966479,0.0582920299708843,0.0020539565011858,0.016426146030426,0.019913462921977,standing,2026-03-04_13-57-05
1772632630908314600,5.871314697265625,-0.0757624028729274,-0.0568120205461978,0.0830798497468233,0.0030720811337232,-0.0059940759092569,0.0131180444732308,standing,2026-03-04_13-57-05
1772632630918263600,5.881263671875,-0.0853907205050811,-0.0728014707081019,0.0414823494672775,0.005085164681077,-0.0115326531231403,0.0101315751671791,standing,2026-03-04_13-57-05
1772632630928213000,5.891212890625,-0.0841330120615661,-0.071959320795536,0.0360574018090963,0.0076777301728725,-0.0061703766696155,0.0072563695721328,standing,2026-03-04_13-57-05
1772632630938161000,5.901160888671875,-0.106786961613968,-0.062928019208461,0.0556499910295009,0.002033426426351,-0.0120969759300351,0.0014733155257999,standing,2026-03-04_13-57-05
1772632630948109800,5.91110986328125,-0.1197333177529275,-0.0691470398537814,0.0517301872372627,-0.0074443500488996,-0.0160325933247804,-0.0042504901066422,standing,2026-03-04_13-57-05
1772632630958058800,5.921058837890625,-0.1104385794566944,-0.0614506401322782,0.0143289696037769,-0.0092805996537208,-0.0012672294396907,-0.0090550994500517,standing,2026-03-04_13-57-05
1772632630968007700,5.931007568359375,-0.0893911883180961,-0.0156748312547802,-0.0096305826544761,-0.0117635410279035,0.0086538419127464,-0.0097483480349183,standing,2026-03-04_13-57-05
1772632630977956900,5.940956787109375,-0.0872787627413868,0.0082918813966214,0.0235965641647577,-0.0122152138501405,-0.0070047457702457,-0.0126884784549474,standing,2026-03-04_13-57-05
1772632630987904800,5.95090478515625,-0.0745393273513764,0.0082185238994657,-0.0219867908805608,-0.0104581248015165,-0.0140870194882154,-0.0149923786520957,standing,2026-03-04_13-57-05
1772632630997853700,5.960853759765625,-0.0444982997549697,0.0300182677753269,-0.1061234562039375,-0.0004702061414718,0.003721271874383,-0.0154072986915707,standing,2026-03-04_13-57-05
1772632631007802600,5.970802734375,-0.0074880907330662,0.0733097124911844,-0.1119593227505683,0.0075607425533235,0.0333282947540283,-0.0087639037519693,standing,2026-03-04_13-57-05
1772632631017751800,5.980751708984375,0.020372158758156,0.0866771435864269,-0.0151291800707578,0.007935183122754,0.0356654860079288,-0.0042117619886994,standing,2026-03-04_13-57-05
1772632631027701000,5.990700927734375,0.0277633649880066,0.0695575203508138,0.1318424193501472,-0.003996891900897,-0.0053167007863521,-0.006772868335247,standing,2026-03-04_13-57-05
1772632631037648600,6.000648681640625,0.0579781782487407,0.0421522115528583,0.1329167705833911,-0.0098843425512313,-0.0284348037093877,-0.0047738994471728,standing,2026-03-04_13-57-05
1772632631047597800,6.010597900390625,0.0318070143556222,0.0768694507993757,0.0323719912946224,-0.001920523121953,-0.0047872648574411,0.0016524903476238,standing,2026-03-04_13-57-05
1772632631057546800,6.020546630859375,-0.0020803499380126,0.1341748078204691,-0.026667642173171,0.005644186399877,0.0228736586868762,0.0049982196651399,standing,2026-03-04_13-57-05
1772632631067496000,6.030495849609375,0.0198154016582295,0.1229097558319568,0.0496253239125013,0.0045618065632879,0.0228350423276424,0.0085172224789857,standing,2026-03-04_13-57-05
1772632631077444900,6.04044482421875,0.0596583498880267,0.0452304499544203,0.1403688401550054,-0.0016564084216952,0.0164700876921415,0.0118379183113574,standing,2026-03-04_13-57-05
1772632631087392800,6.050392822265625,0.0507389842428267,0.0102577746421098,0.1978764417499303,-0.0130899883806705,0.011872406117618,0.0120271854102611,standing,2026-03-04_13-57-05
1772632631097341700,6.060341796875,-0.0035125381655991,-0.0141473294265568,0.289046074450016,-0.0343713089823722,-0.0218882206827402,-0.000910984352231,standing,2026-03-04_13-57-05
1772632631107290600,6.07029052734375,-0.0240876721499487,-0.0975121335946023,0.2804530181497335,-0.0605905875563621,-0.0603687688708305,-0.0125097511336207,standing,2026-03-04_13-57-05
1772632631117239800,6.08023974609375,0.000227379015088,-0.1067842582002282,0.0679419018477201,-0.0709662660956382,-0.0525569170713424,-0.0134543748572468,standing,2026-03-04_13-57-05
1772632631127188700,6.090188720703125,-0.0443727736791595,0.0068558572441339,-0.1895890903979539,-0.0601181238889694,-0.0068370988592505,-0.0070532150566577,standing,2026-03-04_13-57-05
1772632631137136600,6.10013671875,-0.106437636719644,0.092923782891035,-0.3245142781943083,-0.0370820425450801,0.0240395907312631,-0.0030406303703784,standing,2026-03-04_13-57-05
1772632631147085600,6.11008544921875,-0.0372558908786624,0.0706743955515325,-0.359026788648963,-0.0082240067422389,0.0388358458876609,0.0125040309503674,standing,2026-03-04_13-57-05
1772632631157034800,6.12003466796875,0.0069794105585664,0.0701090167537331,-0.349638198056817,0.031972948461771,0.0464117377996444,0.0248475149273872,standing,2026-03-04_13-57-05
1772632631166984000,6.12998388671875,-0.0480216881081461,0.041483226250112,-0.2412479659646749,0.0636581256985664,0.0301064047962427,0.0210802648216485,standing,2026-03-04_13-57-05
1772632631176931800,6.139931884765625,-0.0854555293696001,-0.0323166078455746,-0.05900865380764,0.0794125869870185,-0.0015015890821814,0.0119959553703665,standing,2026-03-04_13-57-05
1772632631186880800,6.149880859375,-0.0595157265469431,-0.1181695755675435,0.0874982507109642,0.0747741311788559,-0.0213466677814722,0.0026272356044501,standing,2026-03-04_13-57-05
1772632631196829700,6.15982958984375,-0.0700031452264636,-0.118103232333064,0.1605681630969047,0.0551037602126598,-0.0177631191909313,-0.0076251355931162,standing,2026-03-04_13-57-05
1772632631206779000,6.16977880859375,-0.155358940548636,-0.0759217946857214,0.2223351757019758,0.021595049649477,-0.011790576390922,-0.0242922212928533,standing,2026-03-04_13-57-05
1772632631216727800,6.179727783203125,-0.1384219804035499,-0.0805095608673989,0.2309860996693372,-0.0176618099212646,0.006865931674838,-0.0286851041018962,standing,2026-03-04_13-57-05
1772632631226675700,6.18967578125,-0.0765953465657308,-0.0691565383344888,0.1890355481684207,-0.0479853153228759,0.0222218502312898,-0.0270827356725931,standing,2026-03-04_13-57-05
1772632631236624600,6.199624755859375,-0.0778023112026974,0.0005225625693798,0.0996200656592845,-0.0586715154349803,0.0276744049042463,-0.0284657161682844,standing,2026-03-04_13-57-05
1772632631246573600,6.209573486328125,-0.0579386499559506,0.046964580270648,-0.0241074362963438,-0.0480640195310115,0.033485822379589,-0.0258750207722187,standing,2026-03-04_13-57-05
1772632631256523000,6.21952294921875,-0.0301502601245418,0.0780320648379623,-0.1070849947124719,-0.0248644240200519,0.0310530252754688,-0.0225849524140357,standing,2026-03-04_13-57-05
1772632631266472000,6.229471923828125,-0.0428169956045225,0.0703872491732239,-0.152251585650444,0.0051961466670036,0.0248653050512075,-0.0226560309529304,standing,2026-03-04_13-57-05
1772632631276419800,6.239419921875,-0.0177124014969915,0.073301236923784,-0.1256745443701744,0.0338192693889141,0.014379640109837,-0.015715567395091,standing,2026-03-04_13-57-05
1772632631286368800,6.24936865234375,0.0208303873870521,0.0886804462328553,-0.0500005869656801,0.0495845787227153,0.0044871941208839,-0.0117790792137384,standing,2026-03-04_13-57-05
1772632631296317700,6.259317626953125,0.036226072906889,0.0720306324660778,0.0651449646055698,0.0493462234735488,-0.0098326234146952,-0.0092727774754166,standing,2026-03-04_13-57-05
1772632631306267000,6.269266845703125,0.0346153132420033,0.0178587511651217,0.167298348134756,0.0301936194300651,-0.0208144336938858,-0.0095734065398573,standing,2026-03-04_13-57-05
1772632631316215800,6.2792158203125,0.0277163109758868,0.003482727549225,0.1963046623885631,0.0063740392215549,-0.0202847309410572,-0.0078942831605672,standing,2026-03-04_13-57-05
1772632631326163700,6.289163818359375,0.0152347228044643,0.0244702782593667,0.148984108287096,-0.013663318939507,-0.0083925202488899,-0.0088118398562073,standing,2026-03-04_13-57-05
1772632631336112600,6.299112548828125,0.0097805855844169,0.04188800765872,0.0836176098853349,-0.0278824679553508,0.0015208309050649,-0.0081077003851532,standing,2026-03-04_13-57-05
1772632631346061800,6.309061767578125,0.0060145475817844,0.0317202493876218,0.0071270754009485,-0.0323614589869976,0.0124242175370454,-0.0049412576481699,standing,2026-03-04_13-57-05
1772632631356010800,6.3190107421875,-0.0066928121695294,0.0344821153163909,-0.0791910256147384,-0.0251853074878454,0.0319318734109401,-0.000364615349099,standing,2026-03-04_13-57-05
1772632631365960000,6.3289599609375,-0.0424108990216627,0.0493900538519024,-0.1307423491537571,-0.0050482298247516,0.0345015525817871,-0.003752016229555,standing,2026-03-04_13-57-05
1772632631375907800,6.338907958984375,-0.0552791118904948,0.0250344880133867,-0.085262454482913,0.0119469985365867,0.0132109131664037,-0.0093723516911268,standing,2026-03-04_13-57-05
1772632631385856800,6.348856689453125,-0.0057892874585464,-0.0159442958459258,-0.0518476761370897,0.0232037417590618,-0.0073245903477072,-0.0091286860406398,standing,2026-03-04_13-57-05
1772632631395806000,6.358805908203125,0.0142032243322581,-0.0008959259264171,-0.0362824427366256,0.0240980312228202,-0.0091706933453679,-0.0059539321810007,standing,2026-03-04_13-57-05
1772632631405755000,6.3687548828125,-0.0205717729834839,0.0273408652596175,0.0003857844471931,0.019263882189989,-0.002065647393465,-0.0062201926484704,standing,2026-03-04_13-57-05
1772632631415703800,6.378703857421875,-0.0529595463691279,-0.0154679105058312,0.0411988563507795,0.0083068395033478,-0.0024475445970892,-0.0101081412285566,standing,2026-03-04_13-57-05
1772632631425651700,6.388651611328125,-0.0518756235899403,-0.0507655799888074,0.0257505273282527,-0.0015380200929939,0.0064013404771685,-0.0129584800451993,standing,2026-03-04_13-57-05
1772632631435600600,6.3986005859375,-0.0469751016646623,-0.0304782865025103,-0.0104559275627136,-0.0055540665052831,0.0211262237280607,-0.0086731882765889,standing,2026-03-04_13-57-05
1772632631445549800,6.4085498046875,-0.0487142369495704,0.0196186004444956,-0.0345469972461462,-0.0045845783315598,0.0184569396078586,-0.0086989365518093,standing,2026-03-04_13-57-05
1772632631455498800,6.418498779296875,-0.0095409316096454,0.0344356458261609,-0.042973464807868,0.0036483176518231,0.0135604506358504,-0.0057588065974414,standing,2026-03-04_13-57-05
1772632631465446700,6.42844677734375,0.0165252740716561,0.0165690036155283,-0.068897010615468,0.0155905373394489,0.0170890055596828,-0.0042166402563452,standing,2026-03-04_13-57-05
1772632631475395600,6.4383955078125,-0.0262170488614588,0.0167871764108538,-0.0565448940426111,0.0264879278838634,0.0157883185893297,-0.0073413271456956,standing,2026-03-04_13-57-05
1772632631485344800,6.4483447265625,-0.0637332346441224,0.0101467154830694,-0.0213829797685146,0.0299130678176879,0.0148527501150965,-0.0135674886405467,standing,2026-03-04_13-57-05
1772632631495294000,6.4582939453125,-0.0286395267680287,0.0098617610618472,0.0393576123982667,0.0262573473155498,0.0135840205475687,-0.0190075282007455,standing,2026-03-04_13-57-05
1772632631505243000,6.468242919921875,-0.008313910565339,0.0212079154625535,0.1259784957528114,0.0124765988439321,0.0104658566415309,-0.0168227273970842,standing,2026-03-04_13-57-05
1772632631515190800,6.478190673828125,-0.0044960327776148,0.051710898014903,0.1671498795747756,0.0033627292141318,-0.002123704412952,-0.0126937618479132,standing,2026-03-04_13-57-05
1772632631525139700,6.4881396484375,0.0267918896073475,0.0730295803755521,0.097401805087924,0.0040765525773167,-0.003330782521516,-0.0043346462771296,standing,2026-03-04_13-57-05
1772632631535089000,6.4980888671875,0.0205400261383503,0.1077427279688417,0.0227484229028224,0.0122386086732149,0.0182155221700668,0.0029626816976815,standing,2026-03-04_13-57-05
1772632631545037800,6.508037841796875,-0.0125351084569469,0.1198803250081837,0.0158504800826311,0.0158576779067516,0.0361509807407856,0.0083443131297826,standing,2026-03-04_13-57-05
1772632631554986800,6.51798681640625,-0.0455152947777882,0.0594618044026196,0.0966004255771637,0.0127942441031336,0.0329666398465633,0.0006464465986937,standing,2026-03-04_13-57-05
1772632631564934700,6.5279345703125,-0.0710222956737503,-0.046602761220932,0.1712351030617952,0.001820467878133,0.0071263867430388,-0.0141325565055012,standing,2026-03-04_13-57-05
1772632631574883600,6.537883544921875,-0.0682741660093888,-0.1026679089225828,0.215182381337881,-0.0109496554359793,-0.0205523781478405,-0.0239574890583753,standing,2026-03-04_13-57-05
1772632631584832800,6.547832763671875,-0.0396951372569426,-0.0800201699152588,0.1649754581451415,-0.0243539027869701,-0.0277600921690464,-0.027039187029004,standing,2026-03-04_13-57-05
1772632631594782700,6.55778271484375,-0.0531286193257197,-0.0591534691058099,0.0839724146723747,-0.0343218483030796,-0.0261595323681831,-0.0285364165902137,standing,2026-03-04_13-57-05
1772632631604732000,6.56773193359375,-0.0666984045926481,-0.0392082670554518,-0.0041378304570913,-0.0377258732914924,-0.023641912266612,-0.0313568152487278,standing,2026-03-04_13-57-05
1772632631614679800,6.5776796875,-0.040592889814265,0.0086339728325605,-0.1386719731092452,-0.0343958586454391,0.0008783442899584,-0.0188103970140218,standing,2026-03-04_13-57-05
1772632631624628700,6.587628662109375,-0.057107350230962,0.0510490731053054,-0.2341249822169542,-0.0178365185856819,0.0319297350943088,-0.0102801946923136,standing,2026-03-04_13-57-05
1772632631634577700,6.59757763671875,-0.1227569033578038,0.0450860730476677,-0.240283504846692,0.0036682416684925,0.0308277197182178,-0.0121694412082433,standing,2026-03-04_13-57-05
1772632631644526800,6.60752685546875,-0.0900868058994412,-0.0152262107044458,-0.2340489943712949,0.0286060832440853,0.0189277846366167,-0.0182719770818948,standing,2026-03-04_13-57-05
