time,seconds_elapsed,acc_x,acc_y,acc_z,gyr_x,gyr_y,gyr_z,activity,session
1772632689284706000,0.0617060546875,0.1567948368369601,0.1383826347738504,-0.157885792145133,0.009246283210814,-0.0036327738780528,0.0195900350809097,standing,2026-03-04_13-58-09
1772632689294655000,0.071655029296875,0.1589055271143093,0.1084714806348085,-0.0981610990226268,0.0086039677262306,-0.0211265422403812,0.0219874717295169,standing,2026-03-04_13-58-09
1772632689304604200,0.081604248046875,0.1750264399024657,0.0573554797731339,-0.0148041859000921,-0.0021687848493456,-0.0451772809028625,0.0266205724328756,standing,2026-03-04_13-58-09
1772632689314553000,0.091552978515625,0.1524687537987716,0.0129300625912845,-0.0138841484457254,-0.0077476589940488,-0.0476337857544422,0.0278657674789428,standing,2026-03-04_13-58-09
1772632689324502000,0.101501953125,0.0901257314040325,0.0066641340643167,-0.1227940204977989,-0.005497554782778,-0.0271223857998847,0.0298945643007755,standing,2026-03-04_13-58-09
1772632689334451000,0.111450927734375,0.0268354730207473,0.0340286724604666,-0.2216109530806541,-0.0011292262934148,-0.0063736848533153,0.0337348319590091,standing,2026-03-04_13-58-09
1772632689344398800,0.12139892578125,0.0058017998802475,0.0462030943788588,-0.2838262939751148,0.0145541299134492,0.0201388821005821,0.0353132896125316,standing,2026-03-04_13-58-09
1772632689354348000,0.13134814453125,-0.001524232158903,0.0454955306313931,-0.3266249867379665,0.0351648889482021,0.0506628304719924,0.0454203896224498,standing,2026-03-04_13-58-09
1772632689364297200,0.141297119140625,0.0226123023677617,0.0955896410994231,-0.327343948662281,0.0568459518253803,0.0598454102873802,0.0534993559122085,standing,2026-03-04_13-58-09
1772632689374246100,0.15124609375,0.0308907762935385,0.0860834154769778,-0.1726215889841318,0.0743087828159332,0.0431580431759357,0.049261424690485,standing,2026-03-04_13-58-09
1772632689384195000,0.161195068359375,0.0109108865222893,0.0224215290360152,0.0009282207608222,0.0793546736240387,0.0144345182925462,0.0423310808837413,standing,2026-03-04_13-58-09
1772632689394144000,0.17114404296875,-0.0196628962439484,-0.0435705539181828,0.1615127504706382,0.0739003047347068,-0.0080737266689538,0.0325658246874809,standing,2026-03-04_13-58-09
1772632689404092200,0.181092041015625,-0.0434838254828006,-0.0449880195006728,0.2865887444257736,0.0532357767224311,-0.0253643002361059,0.0223928168416023,standing,2026-03-04_13-58-09
1772632689414041000,0.191041015625,-0.0560823362984694,-0.0540199056096374,0.3804068458080291,0.023074384778738,-0.0269910860806703,0.0176911354064941,standing,2026-03-04_13-58-09
1772632689423990000,0.200989990234375,-0.0338906704955734,-0.033269816917181,0.3758165954083204,-0.0069591486826539,-0.0250363256782293,0.0193305760622024,standing,2026-03-04_13-58-09
1772632689433939000,0.21093896484375,-0.0231045245978049,0.0188876558214426,0.3471995727330446,-0.0343368425965309,-0.0288382563740015,0.0195687878876924,standing,2026-03-04_13-58-09
1772632689443887900,0.220887939453125,-0.0454427775308489,0.0514813270427286,0.2746814490109682,-0.051875352859497,-0.0199241247028112,0.0251382570713758,standing,2026-03-04_13-58-09
1772632689453837000,0.230837158203125,-0.0481808789915405,0.0675641545765101,0.115216278719902,-0.054902084171772,0.0013468104880303,0.0269776619970798,standing,2026-03-04_13-58-09
1772632689463785000,0.240784912109375,-0.0976432674272917,0.0720116355046629,-0.0260404501855373,-0.050607468932867,0.0191809348762035,0.0162666924297809,standing,2026-03-04_13-58-09
1772632689473734100,0.250734130859375,-0.1583634926594793,0.0288885330930352,-0.1173924537152051,-0.0329099558293819,0.035593457520008,0.0074324393644928,standing,2026-03-04_13-58-09
1772632689483683000,0.26068310546875,-0.1469357791888527,-0.0027285481810569,-0.168225399851799,-0.0142641030251979,0.0351268723607063,0.0028400844894349,standing,2026-03-04_13-58-09
1772632689493632000,0.270632080078125,-0.0761111615116708,-0.002711597046256,-0.1530500425517559,0.0002641943283379,0.0081676933914422,0.0066691357642412,standing,2026-03-04_13-58-09
1772632689503581000,0.280580810546875,0.0191268531384877,-0.011603928554058,-0.0448129551947116,0.0143951941281557,-0.0267029386013746,0.0111887864768505,standing,2026-03-04_13-58-09
1772632689513529000,0.290529052734375,0.0776421704712323,-0.0202362939514219,-0.0331570041924715,0.0292657241225242,-0.0386446788907051,0.0187435038387775,standing,2026-03-04_13-58-09
1772632689523478000,0.30047802734375,0.0498382908097468,0.0109355277732014,-0.0842021317750215,0.0343086831271648,-0.0348896235227584,0.0198361985385417,standing,2026-03-04_13-58-09
1772632689533427000,0.310427001953125,0.022339659438841,0.0339481545701622,-0.05880348662436,0.0286651365458965,-0.0345870852470397,0.0199280362576246,standing,2026-03-04_13-58-09
1772632689543376000,0.3203759765625,0.005387812251877,-0.0036306115873157,-0.0054202714830636,0.0177032984793186,-0.0284753981977701,0.0088631343096494,standing,2026-03-04_13-58-09
1772632689553325000,0.330324951171875,-0.0477296098263934,-0.0389399715080857,-0.0200000009775161,0.0114088915288448,0.0044930791482329,0.0038440031930804,standing,2026-03-04_13-58-09
1772632689563274200,0.340274169921875,-0.0724974462602287,-0.013467092077434,-0.1110597435623407,0.0103372354060411,0.0421320684254169,0.0097745973616838,standing,2026-03-04_13-58-09
1772632689573222100,0.35022216796875,-0.0376679788108915,0.0311632000267505,-0.0972311246961355,0.0096669495105743,0.0412562713027,0.0135436234995722,standing,2026-03-04_13-58-09
1772632689583171000,0.360171142578125,0.0552966658134944,0.0083982643805444,0.0230342541068792,0.0093148788437247,0.007145706564188,0.0159103758633136,standing,2026-03-04_13-58-09
1772632689593120000,0.3701201171875,0.1107723231893964,-0.0196164084874093,0.0525555321455001,0.0216089654713869,-0.0046430444344878,0.022551892325282,standing,2026-03-04_13-58-09
1772632689603069200,0.380069091796875,0.0856971561057493,0.0178176885023713,-0.0299222600549459,0.0328349880874156,0.0018534706905484,0.020972903817892,standing,2026-03-04_13-58-09
1772632689613018000,0.39001806640625,0.0318862353379838,0.0546190405465662,-0.0579430704027414,0.0378147810697555,0.0001634350046515,0.0186079908162355,standing,2026-03-04_13-58-09
1772632689622967000,0.399967041015625,0.0165453852779231,0.0324421339213848,0.0041875148177146,0.0284625589847564,-0.0149159161373972,0.0129556972533464,standing,2026-03-04_13-58-09
1772632689632915000,0.4099150390625,0.0152144106687977,-0.0059879883684217,0.1101350299328565,0.0119045311585068,-0.0127014955505728,0.0111449304968118,standing,2026-03-04_13-58-09
1772632689642863900,0.41986376953125,0.0089145616059191,-0.0192108964264392,0.0970236194252967,-0.0012094066478312,0.0140512883663177,0.0156882833689451,standing,2026-03-04_13-58-09
1772632689652813300,0.429813232421875,-0.0015220219355076,0.030415450399369,0.0734375766545534,-0.0086246896535158,0.0296333096921443,0.0219793580472469,standing,2026-03-04_13-58-09
1772632689662762200,0.43976220703125,0.0042423502774909,0.0532889609865844,0.1320171913951635,-0.0202858727425336,6.44999090582e-05,0.0226494073867797,standing,2026-03-04_13-58-09
1772632689672711200,0.449711181640625,0.0244418376161716,0.0236190682575106,0.213714646872878,-0.0267156790941953,-0.0301796849817037,0.0221949461847543,standing,2026-03-04_13-58-09
1772632689682660000,0.45966015625,0.0198043322749435,-0.012472089690715,0.1306441494762897,-0.015557300299406,-0.0155115276575088,0.0264626629650592,standing,2026-03-04_13-58-09
1772632689692608000,0.46960791015625,-0.0410904640728607,0.0650946957230567,-0.0644669192135334,-0.0009854515083134,0.0029340512119233,0.023974273353815,standing,2026-03-04_13-58-09
1772632689702557200,0.47955712890625,-0.0863367509172298,0.1001560722321271,-0.1494061330914497,0.0128901498392224,0.0091701094061136,0.015939250588417,standing,2026-03-04_13-58-09
1772632689712506000,0.489506103515625,-0.0584446449830196,0.0535407437905669,-0.1133925704240799,0.0238693598657846,0.0144030908122658,0.018735246732831,standing,2026-03-04_13-58-09
1772632689722455300,0.499455322265625,0.0119774745741859,0.0461069405280053,-0.0490571686357259,0.0240371394902467,0.0166081897914409,0.0259401630610227,standing,2026-03-04_13-58-09
1772632689732404200,0.509404296875,0.0283129799610935,0.0547933742001652,0.0596738397181034,0.0156419221311807,-0.0050281272269785,0.0244667772203683,standing,2026-03-04_13-58-09
1772632689742352100,0.51935205078125,-0.0099264055295847,0.0082211542479693,0.1658230148851871,0.0005292817950248,-0.0288732722401618,0.0173675902187824,standing,2026-03-04_13-58-09
1772632689752301300,0.52930126953125,-0.0422099148231558,-0.0380830624178051,0.1562625748574733,-0.0128829702734947,-0.0184712372720241,0.0159632470458745,standing,2026-03-04_13-58-09
1772632689762250200,0.539250244140625,-0.0486153431523591,-0.0208846748575568,0.0805593913584947,-0.0225318688899278,0.0045845480635762,0.0186426527798175,standing,2026-03-04_13-58-09
1772632689772199200,0.54919921875,-0.0731378995882347,0.0235809282042086,0.0390665204972028,-0.0254847612231969,0.0270010400563478,0.0177951231598854,standing,2026-03-04_13-58-09
1772632689782148000,0.559148193359375,-0.0621086291169747,-0.0149669752463698,0.0105821842908859,-0.0239502470940351,0.0409773103892803,0.0231246408075094,standing,2026-03-04_13-58-09
1772632689792097000,0.569096923828125,-0.0332288455859757,-0.020872984419763,0.0267471371501684,-0.0184876434504985,0.0331299155950546,0.0238072946667671,standing,2026-03-04_13-58-09
1772632689802045200,0.579045166015625,-0.0244044647478498,-0.0451496398031711,0.1222574294030666,-0.0211697127670049,-0.0115310307592153,0.0127104371786117,standing,2026-03-04_13-58-09
1772632689811994000,0.588994140625,-0.0443002198996022,-0.1013208782278001,0.1838151831716299,-0.0149192288517951,-0.0463252328336238,0.0021521097514778,standing,2026-03-04_13-58-09
1772632689821943300,0.598943359375,-0.0776355945999734,-0.1371753048107027,0.0893798266738653,-0.0083233779296278,-0.0513500832021236,-0.0085154483094811,standing,2026-03-04_13-58-09
1772632689831892200,0.608892333984375,-0.1178559613074176,-0.0787748460292816,-0.0109708913475275,-0.0073833903297781,-0.0523441135883331,-0.0147517602890729,standing,2026-03-04_13-58-09
1772632689841841200,0.618841064453125,-0.1249847263419535,-0.0360401584133505,-0.0733019675761461,-0.0102604031562805,-0.0448241457343101,-0.0163075774908065,standing,2026-03-04_13-58-09
1772632689851790000,0.6287900390625,-0.060253712832136,-0.012846037569642,-0.1486678819447755,-0.0071901916526257,-0.0095965238288044,-0.0048320624046027,standing,2026-03-04_13-58-09
1772632689861738200,0.63873828125,-0.014462962113833,0.0578409252025187,-0.2420171967715025,0.002827288582921,0.0370585955679416,0.0116254733875393,standing,2026-03-04_13-58-09
1772632689871687200,0.648687255859375,-0.0184451179520227,0.1203387363001704,-0.2892734534651041,0.0199864264577627,0.0514615140855312,0.0216891840100288,standing,2026-03-04_13-58-09
1772632689881636000,0.658635986328125,-0.0047290560822002,0.1068776355721056,-0.2324409746527671,0.041052296757698,0.0381140150129795,0.0181748773902654,standing,2026-03-04_13-58-09
1772632689891585000,0.6685849609375,0.0283180397287011,0.0468032522290945,-0.0859258868277072,0.0538569800555706,0.0138202551752328,0.014425465837121,standing,2026-03-04_13-58-09
1772632689901534200,0.6785341796875,0.0202100452653132,0.0126750649169087,0.0583890606045722,0.0562538243830204,-0.0166231375187635,0.0106485728174448,standing,2026-03-04_13-58-09
1772632689911482000,0.688482177734375,0.0169932934422045,0.0070224459826946,0.1855447834432124,0.03793291375041,-0.0492212884128093,-0.0059151668101549,standing,2026-03-04_13-58-09
1772632689921431000,0.69843115234375,-0.040065915931249,-0.0542928773321211,0.291129310464859,0.0108704036101698,-0.0497443340718746,-0.0179912708699703,standing,2026-03-04_13-58-09
1772632689931380200,0.708380126953125,-0.0262493802284821,-0.0821123198889196,0.2816834367275238,-0.0198301170021295,-0.0229891557246446,-0.010640287771821,standing,2026-03-04_13-58-09
1772632689941329200,0.7183291015625,0.0118646983820945,-0.0276126679383218,0.2263730529159307,-0.0518415793776512,4.13286034017e-05,-0.0030268433038145,standing,2026-03-04_13-58-09
1772632689951278300,0.7282783203125,0.0031161318596918,0.01318082248196,0.1898953798681497,-0.0664753168821334,0.0054577970877289,0.0035439033526927,standing,2026-03-04_13-58-09
1772632689961227300,0.738227294921875,-0.0053468957195989,0.0319477745331823,0.0839040256112814,-0.0621455498039722,0.0205696392804384,0.0018858194816857,standing,2026-03-04_13-58-09
1772632689971175200,0.748175048828125,-0.0238129742612596,0.0411596933841705,-0.059075873824954,-0.0371535494923591,0.0398368090391159,0.0050124539993703,standing,2026-03-04_13-58-09
1772632689981124000,0.7581240234375,-0.0472722762466408,0.0683716715671122,-0.1768254704147577,-0.0080856829881668,0.0355184935033321,0.004775698762387,standing,2026-03-04_13-58-09
1772632689991073000,0.768072998046875,-0.0255540731743909,0.0510686545886099,-0.1359410868406295,0.0178764890879392,-0.0050507541745901,-0.0035566680599004,standing,2026-03-04_13-58-09
1772632690001022200,0.778022216796875,0.0237008647894486,-0.0030041502520442,-0.0575724835246801,0.0376259572803974,-0.0337521731853485,-0.0063031860627233,standing,2026-03-04_13-58-09
1772632690010971100,0.78797119140625,0.0630006277869455,-0.0154890994243323,-0.0313484934657812,0.0465245582163333,-0.0336898677051067,0.0006725823041051,standing,2026-03-04_13-58-09
1772632690020920300,0.79792041015625,0.0522478727021254,0.0364351490803062,-0.005380523994565,0.0362681932747364,-0.0384446755051612,0.0014872432220727,standing,2026-03-04_13-58-09
1772632690030868200,0.8078681640625,0.0453271517945453,0.0271997032232582,0.0816571234673261,0.0116061447188258,-0.0399425663053989,-7.8266020864e-06,standing,2026-03-04_13-58-09
1772632690040817200,0.817817138671875,0.0336582865118049,-0.0163249657265841,0.0963537573397159,-0.0109510961920022,-0.0073689119890332,0.0064583285711705,standing,2026-03-04_13-58-09
1772632690050766300,0.827766357421875,-0.0056525915347505,0.0130408294893801,0.0497504115968942,-0.0332275740802288,0.0269122347235679,0.0111081534996628,standing,2026-03-04_13-58-09
1772632690060715300,0.83771533203125,-0.0360630460985936,0.0334371363081038,0.0507446833312511,-0.0502779297530651,0.037629060447216,0.0083475206047296,standing,2026-03-04_13-58-09
1772632690070664200,0.847664306640625,-0.0213987527263816,-0.019394144038856,0.0800339061796665,-0.052004624158144,0.0355603024363517,0.0073305102996528,standing,2026-03-04_13-58-09
1772632690080613000,0.857613037109375,-0.0096648137176409,-0.051389264845103,0.0298971256136894,-0.038391076028347,0.0384429059922695,0.0092887338250875,standing,2026-03-04_13-58-09
1772632690090561000,0.86756103515625,-0.02359112080466,-0.0063445467211306,-0.0271662393450736,-0.0132689569145441,0.029420930892229,0.0074192262254655,standing,2026-03-04_13-58-09
1772632690100510200,0.87751025390625,-0.0398721377916634,-0.0001269873805344,-0.0481277788311243,0.0111690079793334,-0.0006594739388674,-0.0006445593899115,standing,2026-03-04_13-58-09
1772632690110459100,0.887459228515625,-0.0092640143644064,-0.0484819990962743,-0.0074421326994895,0.0278722234070301,-0.0349388904869556,-0.0101106408983469,standing,2026-03-04_13-58-09
1772632690120408000,0.897407958984375,-0.0058709926589392,-0.0343237098842859,0.0306780468583106,0.0334523431956768,-0.0447092279791832,-0.0064850132912397,standing,2026-03-04_13-58-09
1772632690130357200,0.907357177734375,0.0209534566442947,0.0155804309695959,0.0248000947356224,0.0290572624653577,-0.0277269128710031,-0.0017296017613261,standing,2026-03-04_13-58-09
1772632690140305400,0.917305419921875,0.0008026581523939,0.0423269835978746,0.0475327355474233,0.0107991620898246,-0.0119407586753368,-0.0025069785770028,standing,2026-03-04_13-58-09
1772632690150254300,0.92725439453125,-0.0198856356165371,0.0266144506812095,0.0837538034856319,-0.0129327960312366,-0.0021959929727017,-0.0040066204965114,standing,2026-03-04_13-58-09
1772632690160203300,0.937203369140625,-0.0075964373452123,0.006018237376213,0.1398626441985368,-0.0382615886628627,0.0008000631351023,0.0003148911055177,standing,2026-03-04_13-58-09
1772632690170152200,0.947152099609375,-0.0006219678232446,-0.0029017127908766,0.1292442195504903,-0.0476115867495536,0.0110399164259433,-0.0016110236756503,standing,2026-03-04_13-58-09
1772632690180101000,0.95710107421875,-0.0187258802553173,0.0025315643042325,0.0101473000049591,-0.04384321346879,0.0207109190523624,-0.0015979742165654,standing,2026-03-04_13-58-09
1772632690190050000,0.967050048828125,-0.0396041253720875,0.0140761638864874,-0.0711579412847757,-0.0248591881245374,0.0207037348300218,-0.0043738130480051,standing,2026-03-04_13-58-09
1772632690199998200,0.976998291015625,-0.0052950376681983,0.0319860607169568,-0.1279535952180624,-0.0039887935854494,0.0159417372196912,-0.003128518583253,standing,2026-03-04_13-58-09
1772632690209947100,0.986947021484375,0.0378864256008528,0.0557277324408292,-0.1198380933016538,0.0133741991594433,0.0062964279204607,-0.0011385083198547,standing,2026-03-04_13-58-09
1772632690219896000,0.99689599609375,0.0605719210689887,0.0518354011774063,-0.0390285265743732,0.020372187718749,-0.0005934364162385,0.0041079185903072,standing,2026-03-04_13-58-09
1772632690229845200,1.00684521484375,0.0764009382384829,0.0286532630324363,0.0210877962142229,0.0174325909465551,-0.0090345917269587,0.0070227487012743,standing,2026-03-04_13-58-09
1772632690239794200,1.016794189453125,0.0681413882088847,0.0320909823961555,0.1005091234534978,0.0050893714651465,-0.0203972347080707,0.0086174495518207,standing,2026-03-04_13-58-09
1772632690249743000,1.0267431640625,0.0749045256682671,0.0252177356258034,0.1172451541990041,0.0001011863350868,-0.0134826069697737,0.0170627664774656,standing,2026-03-04_13-58-09
1772632690259691300,1.036691162109375,0.0321789529405534,0.0144493811130523,0.0637304216325283,-0.0051420452073216,0.0157482475042343,0.0154230594635009,standing,2026-03-04_13-58-09
1772632690269640200,1.04664013671875,-0.0442441331976559,0.0370133873596787,0.0070990183502435,-0.0086267553269863,0.0259090196341276,0.0072829141281545,standing,2026-03-04_13-58-09
1772632690279589000,1.056589111328125,-0.070380344508402,0.0071599547572433,0.0521785155266523,-0.0176426209509372,0.0235651712864637,0.0039313258603215,standing,2026-03-04_13-58-09
1772632690289538000,1.0665380859375,0.0001077712234109,-0.0341929231114685,0.1183650981396436,-0.0250820498913526,0.0204086564481258,0.0105255506932735,standing,2026-03-04_13-58-09
1772632690299487200,1.0764873046875,0.0436643514151684,-0.0558398145131766,0.1551724415332079,-0.0288887713104486,0.0090460125356912,0.0126568786799907,standing,2026-03-04_13-58-09
1772632690309435100,1.08643505859375,0.0192153716721571,-0.0553365411661565,0.1311328097760677,-0.0288488697260618,-0.0183288846164941,0.0094490591436624,standing,2026-03-04_13-58-09
1772632690319384000,1.096384033203125,-0.0168203480280935,-0.095220515526086,0.1067038864403963,-0.0296113323420286,-0.0386187098920345,0.0016723619773983,standing,2026-03-04_13-58-09
1772632690329333000,1.1063330078125,-0.0591125891061499,-0.0940497181810438,0.0433756158679723,-0.0290527157485485,-0.0430812239646911,-0.0031463168561458,standing,2026-03-04_13-58-09
1772632690339282200,1.1162822265625,-0.0724697180030867,-0.0491718810565769,-0.0340583369463682,-0.0252499878406524,-0.0268937330693006,-0.0046187788248062,standing,2026-03-04_13-58-09
1772632690349231400,1.1262314453125,-0.1139380663444753,-0.0251091606847941,-0.1366471892833709,-0.0152973979711532,0.0058207930997014,-0.0043819560669362,standing,2026-03-04_13-58-09
1772632690359180300,1.13618017578125,-0.1041253503224346,0.0150226509563624,-0.2248380984336137,-0.0002401508390903,0.0368567407131195,0.0023401288781315,standing,2026-03-04_13-58-09
1772632690369128200,1.146128173828125,-0.0779936690563335,0.0394926369547843,-0.1956914989262819,0.0110530294477939,0.0453138723969459,0.0086281597614288,standing,2026-03-04_13-58-09
1772632690379077000,1.1560771484375,-0.0419593375955708,0.0094552260875701,-0.0963578489929437,0.0173479430377483,0.0252831727266311,0.0065527586266398,standing,2026-03-04_13-58-09
1772632690389026000,1.166026123046875,-0.0464432050113566,-0.0548575254775583,0.0448310753732919,0.0209792591631412,0.0057230461388826,-0.0030750336591154,standing,2026-03-04_13-58-09
1772632690398975200,1.175975341796875,-0.0517542439662851,-0.0953317208155989,0.1279775606155395,0.0175115559250116,-0.0124042918905615,-0.0126645443961024,standing,2026-03-04_13-58-09
1772632690408924200,1.185924072265625,-0.0530089384688064,-0.0798220169946551,0.2138561011701822,0.0011254148557782,-0.0399577543139457,-0.0243319645524024,standing,2026-03-04_13-58-09
1772632690418873000,1.195873046875,-0.0268749647809192,-0.06852481630221,0.2403758593052625,-0.0146879032254219,-0.0478228703141212,-0.0239103864878416,standing,2026-03-04_13-58-09
1772632690428821000,1.205821044921875,0.0157138024251442,-0.04553396294564,0.1472773043692112,-0.0283143240958452,-0.0209318660199642,-0.016072254627943,standing,2026-03-04_13-58-09
1772632690438770200,1.215770263671875,0.0129398989987093,0.0406643110826611,0.0823527045160532,-0.0424165576696395,-0.0054953852668404,-0.0141848716884851,standing,2026-03-04_13-58-09
1772632690448719400,1.22571923828125,0.0193185763183049,0.0787402131073176,0.0427466703146696,-0.0496668182313442,0.0063739251345396,-0.0124015491455793,standing,2026-03-04_13-58-09
1772632690458668300,1.235668212890625,0.0289398340220097,0.0232027425415813,-0.0281435599446296,-0.0448619425296783,0.0300907045602798,-0.0045950249768793,standing,2026-03-04_13-58-09
1772632690468617200,1.2456171875,0.0204794367912225,0.0602003478102385,-0.1319131464987993,-0.0278374627232551,0.0531086735427379,0.0021251537837088,standing,2026-03-04_13-58-09
1772632690478566100,1.255566162109375,0.0113092929890379,0.1103876895196735,-0.1364957981139421,-0.0074760001152753,0.0336156673729419,0.0032844278030097,standing,2026-03-04_13-58-09
1772632690488514300,1.265514404296875,0.0527572287300601,0.0564921409420669,-0.0564572157591581,0.0048280246555805,-0.0029157109092921,-0.002027288544923,standing,2026-03-04_13-58-09
1772632690498463200,1.275463134765625,0.0512351154630072,0.0015561434008181,-0.0063338791966438,0.0133117903023958,-0.0234002117067575,-0.0027197105810046,standing,2026-03-04_13-58-09
1772632690508412200,1.285412109375,0.0483292196873575,0.0071406655348837,4.79307949542e-05,0.0130444951355457,-0.0296908617019653,-0.0052365642040967,standing,2026-03-04_13-58-09
1772632690518361000,1.295361083984375,0.0112397988162469,0.0069786068409681,0.0210357737660408,0.0034424681216478,-0.0255451183766126,-0.009136764332652,standing,2026-03-04_13-58-09
1772632690528310000,1.30531005859375,0.0039901199489366,-0.0218790927223861,0.0158428812980651,-0.0044591077603399,-0.0037869601510465,-0.0046854028478264,standing,2026-03-04_13-58-09
1772632690538258200,1.315258056640625,-0.0031366723242215,-0.0146120243288576,-0.0389198055028915,-0.0140081383287906,0.0172589365392923,-0.0001425824593752,standing,2026-03-04_13-58-09
1772632690548207400,1.325207275390625,-0.026503720315732,0.0478629904150962,-0.0247352128058671,-0.0187884680926799,0.0218022894114255,0.0036881500855088,standing,2026-03-04_13-58-09
1772632690558156300,1.33515625,-0.0036619565736502,0.0317326704777777,0.0080389295488595,-0.0175375808030366,0.0176064781844615,0.0050128065049648,standing,2026-03-04_13-58-09
1772632690568105200,1.345105224609375,0.007276621673163,-0.0029753625489771,-0.0159428345412015,-0.0124191865324974,0.0137154720723629,0.0016755450051277,standing,2026-03-04_13-58-09
1772632690578054100,1.35505419921875,-0.0477017719713971,-0.0165760178782045,-0.0541740732580423,0.0001189750619232,0.0180561579763889,-0.0033069630153477,standing,2026-03-04_13-58-09
1772632690588003000,1.365003173828125,-0.0779189050533808,-0.0347622474320232,-0.0939706615954637,0.0122007941827178,0.0101200565695762,-0.0111191403120756,standing,2026-03-04_13-58-09
1772632690597951200,1.374951171875,-0.0455154774408787,-0.0457327003881335,-0.0443038366287946,0.0213692598044872,-0.0047353226691484,-0.0162039138376712,standing,2026-03-04_13-58-09
1772632690607900200,1.384900146484375,-0.0016531923008151,-0.0353716115020215,0.0509808301746845,0.0169674418866634,-0.0132995005697011,-0.0139749404042959,standing,2026-03-04_13-58-09
1772632690617849000,1.39484912109375,0.0189305633814074,-0.0023402795158326,0.1094844570696353,0.002911277115345,-0.0187432691454887,-0.0086611360311508,standing,2026-03-04_13-58-09
1772632690627798000,1.404798095703125,0.0270587055836804,-0.0324294205702841,0.1472778888911008,-0.0079822270199656,-0.018032606691122,-0.0093665942549705,standing,2026-03-04_13-58-09
1772632690637747200,1.414747314453125,-0.0028706052665598,-0.0410042105615139,0.0618535218447446,-0.0084083322435617,0.0086392164230346,-0.0128255086019635,standing,2026-03-04_13-58-09
1772632690647695000,1.424695068359375,-0.0782751163462176,0.0120531336262822,-0.0637631548583507,-0.0045685591176152,0.0287203751504421,-0.0157721582800149,standing,2026-03-04_13-58-09
1772632690657643500,1.4346435546875,-0.0645985827691853,0.0436181924521923,-0.0526589925199747,-0.0049435319378972,0.0251996777951717,-0.0114583689719438,standing,2026-03-04_13-58-09
1772632690667592400,1.444592529296875,0.0126600865434855,-1.35901339352e-05,0.0078659110695123,-0.0068817655555903,0.0003999350592494,-0.0115250293165445,standing,2026-03-04_13-58-09
1772632690677541400,1.454541259765625,0.0125675311555154,-0.0169422208420932,0.0396785149157047,-0.0019461293704807,-0.0108159678056836,-0.0119860218837857,standing,2026-03-04_13-58-09
1772632690687490800,1.46449072265625,-0.0157028883054852,0.0209279294773936,-0.0148380881696939,0.008241793140769,0.0017014220356941,-0.0109966583549976,standing,2026-03-04_13-58-09
1772632690697439700,1.474439697265625,-0.0139192197591066,0.0680235887818038,-0.0522854830324649,0.0106829395517706,0.0079121701419353,-0.0093744592741131,standing,2026-03-04_13-58-09
1772632690707387600,1.4843876953125,-0.0126456744256429,0.0638346126593649,0.0280827696681022,0.0031180949881672,-0.0037322316784411,-0.0086928149685263,standing,2026-03-04_13-58-09
1772632690717336600,1.494336669921875,0.0100396383794024,0.0164602825440466,0.1036462524354457,-0.0013469606637954,-0.004382842220366,-0.0117850117385387,standing,2026-03-04_13-58-09
1772632690727285500,1.504285400390625,0.0010768354512751,-0.0140519062280654,0.0433580802112817,-0.0006810608319938,0.0145300012081861,-0.0121213812381029,standing,2026-03-04_13-58-09
1772632690737234700,1.514234619140625,-0.0514115497421473,0.0538832736179232,-0.0153659114360809,0.004734743386507,0.028101734817028,-0.0089136036112904,standing,2026-03-04_13-58-09
1772632690747183600,1.52418359375,-0.0495422852715477,0.0749735540501773,0.0023299042522907,0.0027001816779375,0.0070353229530155,-0.0137029653415083,standing,2026-03-04_13-58-09
1772632690757132500,1.534132568359375,-0.0166124774310737,0.0167690562322735,0.0747223557680845,0.0010133357718586,-0.0007421725895255,-0.0126579413190484,standing,2026-03-04_13-58-09
1772632690767080400,1.54408056640625,0.015902429465577,-0.006917232042551,0.0654115065872669,0.0015025809407234,0.0166111178696155,-0.008793806657195,standing,2026-03-04_13-58-09
1772632690777029600,1.554029541015625,0.0193061552281491,0.0192022747285664,0.0748129566609859,-0.0017888192087411,0.0223872475326061,-0.0054195811972022,standing,2026-03-04_13-58-09
1772632690786978600,1.563978515625,0.0382480254548601,0.0238265735283494,0.1530138021945953,-0.0101362038403749,-0.0052935210987925,-0.0067446320317685,standing,2026-03-04_13-58-09
1772632690796927700,1.573927734375,0.0673818385458551,-0.042863282431662,0.2107283245384693,-0.0144009888172149,-0.0300057921558618,-0.0055552646517753,standing,2026-03-04_13-58-09
1772632690806876700,1.583876708984375,0.0431729511690326,-0.0606023527398705,0.191761758261919,-0.0187642723321914,-0.0469807758927345,-0.0105768628418445,standing,2026-03-04_13-58-09
1772632690816825600,1.59382568359375,-0.0037275326231494,-0.0312938406690955,0.137948919531703,-0.0307554211467504,-0.0654298290610313,-0.0199426673352718,standing,2026-03-04_13-58-09
1772632690826773800,1.603773681640625,-0.0690499909537844,-0.0136443483404815,0.0822644417107105,-0.0400886572897434,-0.0738749653100967,-0.0268012564629316,standing,2026-03-04_13-58-09
1772632690836722700,1.61372265625,-0.0756066825882531,-0.010579115550965,-0.0745621967703104,-0.0359090901911258,-0.0369315929710865,-0.0189092457294464,standing,2026-03-04_13-58-09
1772632690846671600,1.623671630859375,-0.0279087374086026,0.0755377638041973,-0.297390124425292,-0.0150577127933502,0.0225915182381868,-0.0041068512946367,standing,2026-03-04_13-58-09
1772632690856620500,1.63362060546875,-0.0369815857156179,0.1761656913317739,-0.4481003258526325,0.0101866573095321,0.0568917021155357,0.0051337843760848,standing,2026-03-04_13-58-09
1772632690866569500,1.643569580078125,0.0225404427079483,0.167413060555607,-0.3972130191802978,0.0318920202553272,0.0562545396387577,0.0145064443349838,standing,2026-03-04_13-58-09
1772632690876518400,1.653518310546875,0.1079145043391734,0.0926183702036738,-0.2405687515288591,0.0506918095052242,0.0384984463453292,0.0206628739833831,standing,2026-03-04_13-58-09
1772632690886466600,1.663466552734375,0.0916110015257261,0.0380262176640331,-0.0541916089147329,0.0588072836399078,0.0079739512875676,0.0153310950845479,standing,2026-03-04_13-58-09
1772632690896415700,1.673415771484375,0.0436567526306025,0.0007183774024248,0.1374824710637331,0.0510686710476875,-0.025010896846652,0.0001374955754727,standing,2026-03-04_13-58-09
1772632690906364700,1.68336474609375,-0.0107533213404007,-0.0580082445934414,0.2936912699073553,0.0276813618838787,-0.0375647582113742,-0.0135963521897792,standing,2026-03-04_13-58-09
1772632690916313600,1.693313720703125,-0.0415493502888828,-0.0906461933478713,0.3270259687542915,-0.0021873223595321,-0.0232859551906585,-0.0165252964943647,standing,2026-03-04_13-58-09
1772632690926262500,1.703262451171875,-0.025852161071822,-0.0742981390066444,0.3278267637431621,-0.0352401249110698,-0.0094351200386881,-0.0139636434614658,standing,2026-03-04_13-58-09
1772632690936210700,1.713210693359375,-1.78644502535e-05,-0.0288271582946181,0.302957110902667,-0.0603425465524196,-0.0022112955339252,-0.0084823258221149,standing,2026-03-04_13-58-09
1772632690946159600,1.72315966796875,0.0383144052219577,-0.0133813134901225,0.2088333045721054,-0.0669689625501632,0.0150245483964681,-0.0010300726862624,standing,2026-03-04_13-58-09
1772632690956108500,1.733108642578125,0.0291822188099846,0.0344387145660817,0.0599117401272058,-0.0564864948391914,0.0206693839281797,-0.0018170367693528,standing,2026-03-04_13-58-09
1772632690966057500,1.743057373046875,-0.0109970304357819,0.048470454788953,-0.0415484004408121,-0.035168744623661,0.022027451545,-0.004081217572093,standing,2026-03-04_13-58-09
1772632690976006400,1.75300634765625,-0.0055436238680966,0.0343596579805016,-0.1061269633352756,-0.0123846046626567,0.0102541493251919,-0.0041174367070198,standing,2026-03-04_13-58-09
1772632690985955600,1.76295556640625,0.0039551673665642,0.0331594884105026,-0.1039788453906774,0.0040391338989138,-0.014143468812108,-0.0066632647067308,standing,2026-03-04_13-58-09
1772632690995903500,1.772903564453125,-0.0009556202244013,0.0280243174791336,-0.067156888949871,0.01226057857275,-0.0268081314861774,-0.007846507243812,standing,2026-03-04_13-58-09
1772632691005852700,1.782852783203125,0.0423824401121586,0.0122239601485431,-0.0411637850373983,0.01028464268893,-0.0334090404212474,-0.0027477440889924,standing,2026-03-04_13-58-09
1772632691015801600,1.792801513671875,0.058601424713619,0.0243672562763094,-0.0072556702166795,-4.81558963656e-05,-0.0256880037486553,0.0036896490491926,standing,2026-03-04_13-58-09
1772632691025750500,1.80275048828125,0.0324076105972752,0.0391765567429363,-0.0257020120114088,-0.0117574576288461,-0.0137117635458707,0.0097660161554813,standing,2026-03-04_13-58-09
1772632691035699700,1.81269970703125,0.0537241284003015,0.0440801108755171,-0.0287181449621915,-0.019112043082714,0.001685035880655,0.0141857992857694,standing,2026-03-04_13-58-09
1772632691045648600,1.822648681640625,0.0437335624601691,0.0639347120329737,-0.0735778619080781,-0.0203770156949758,0.0191163495182991,0.0175058338791131,standing,2026-03-04_13-58-09
1772632691055596500,1.832596435546875,-0.0095522567212581,0.0513718753188848,-0.1252805766165256,-0.0103084035217762,0.0296392980962991,0.0146242920309305,standing,2026-03-04_13-58-09
1772632691065545500,1.84254541015625,-0.0410695491489954,0.0273740368768572,-0.1649140833467245,0.0049999495968222,0.024691293016076,0.0134004484862089,standing,2026-03-04_13-58-09
1772632691075494400,1.852494384765625,-0.0042674116535112,0.0052756023153662,-0.1460059692591428,0.0204524099826812,0.019203582778573,0.0124795269221067,standing,2026-03-04_13-58-09
1772632691085443600,1.862443603515625,0.0083859346219338,0.0102437461167573,-0.099634094184637,0.0310096703469753,0.0120117105543613,0.0136597827076911,standing,2026-03-04_13-58-09
1772632691095392800,1.872392822265625,0.0283859173331409,0.0172099318675696,-0.0059223757863044,0.0350353047251701,0.0001454635057598,0.0139508657157421,standing,2026-03-04_13-58-09
1772632691105340400,1.88234033203125,0.0277770647197961,-0.0051454000644385,0.0737409435153007,0.0319901555776596,-0.011953274719417,0.0167401768267154,standing,2026-03-04_13-58-09
1772632691115289600,1.89228955078125,0.0131012909723445,-0.020132687446475,0.1434849263489246,0.0232139751315116,-0.0136260064318776,0.0102673647925257,standing,2026-03-04_13-58-09
1772632691125238800,1.90223876953125,-0.0268054980075918,0.0013736264407634,0.1810655922025442,0.0101303113624453,-0.0149711733683943,0.0054397527128458,standing,2026-03-04_13-58-09
1772632691135187700,1.912187744140625,-0.0771179822003468,-0.0143830378785729,0.2030985603123903,-0.0099805500358343,-0.0210924502462148,-0.0060818810015916,standing,2026-03-04_13-58-09
1772632691145136600,1.92213671875,-0.0859622915816493,-0.028379706788063,0.2151210065394639,-0.0259488653391599,-0.0127357086166739,-0.0128830447793006,standing,2026-03-04_13-58-09
1772632691155085600,1.93208544921875,-0.0866763398688286,-0.0235031867928802,0.1436953542292117,-0.0379722416400909,0.0121880173683166,-0.009173528291285,standing,2026-03-04_13-58-09
1772632691165033500,1.942033447265625,-0.0878580422003753,0.0391818174399435,0.0619166502088308,-0.0445414334535598,0.0160771552473306,-0.0078929429873824,standing,2026-03-04_13-58-09
1772632691174982700,1.951982666015625,-0.0959624199345707,0.0307747852310538,0.0272106630086898,-0.0466677024960517,0.0030764022376388,-0.0114197665825486,standing,2026-03-04_13-58-09
1772632691184931600,1.961931640625,-0.0601003032355569,0.0228755564138293,0.0077361472100019,-0.0394717268645763,0.007708303630352,-0.0081611517816782,standing,2026-03-04_13-58-09
1772632691194880500,1.971880615234375,-0.0413440552414394,0.0555000611647963,-0.0505494530200958,-0.026599071919918,0.0050941444933414,-0.0092437267303466,standing,2026-03-04_13-58-09
1772632691204829700,1.98182958984375,-0.0491203335324302,0.0817971164599061,-0.0743301415801048,-0.0114034544676542,-0.0045887078158557,-0.0122687825933098,standing,2026-03-04_13-58-09
1772632691214778600,1.991778564453125,-0.0272960945361293,0.0465370025083422,-0.1093015017181634,0.0062509067356586,0.0008196395356208,-0.0121675822883844,standing,2026-03-04_13-58-09
1772632691224726800,2.001726806640625,-0.0221190937570296,0.0712429892197251,-0.1511392404943704,0.0206284690648317,0.0048822937533259,-0.0063968207687139,standing,2026-03-04_13-58-09
1772632691234675700,2.01167578125,-0.0173037110982462,0.0933816096611321,-0.1109171202212572,0.018888359889388,-0.0102231558412313,-0.0050769578665494,standing,2026-03-04_13-58-09
1772632691244624600,2.021624755859375,0.0065518693288788,0.0639807431317865,-0.0095312139332294,0.0129503328353166,-0.0196301080286502,-0.0052834656089544,standing,2026-03-04_13-58-09
1772632691254573600,2.031573486328125,0.0194038799815811,0.0146526486001908,-0.012150456520915,0.015909370034933,0.0055455528199672,-0.0014264091150835,standing,2026-03-04_13-58-09
1772632691264522500,2.0415224609375,0.0017423684216104,0.0183139475867152,-0.0837292535662651,0.0210399962961673,0.0323902145028114,-0.0025185295380651,standing,2026-03-04_13-58-09
1772632691274470700,2.051470703125,-0.0199416035874746,0.0424585010230541,-0.0591308188825845,0.0216956660151481,0.0262263286858797,-0.0070520285516977,standing,2026-03-04_13-58-09
1772632691284419600,2.061419677734375,-0.0064797722070477,-0.0357629489071667,0.0448240611106157,0.0181749854236841,0.0041256938129663,-0.0140570383518934,standing,2026-03-04_13-58-09
1772632691294368500,2.071368408203125,0.0325141031790524,-0.0748509505838155,0.116907885068655,0.0076978439465165,-0.0183963924646377,-0.0172094218432903,standing,2026-03-04_13-58-09
1772632691304317400,2.0813173828125,0.0040471382326446,-0.0604115063428878,0.1541945364117622,-0.005877086892724,-0.0393189825117588,-0.0227964669466018,standing,2026-03-04_13-58-09
1772632691314266600,2.0912666015625,-0.01892280020006,-0.0408517964787781,0.1635299355119466,-0.0253738239407539,-0.0499418005347251,-0.0295973811298608,standing,2026-03-04_13-58-09
1772632691324215600,2.101215576171875,-0.0437464036754332,-0.0287801042824983,0.0873421833664178,-0.0333308614790439,-0.0270042605698108,-0.02478988468647,standing,2026-03-04_13-58-09
1772632691334163700,2.111163818359375,-0.0441339782209135,0.0441239500172436,-0.0984744027554988,-0.0243155285716056,0.0195922683924436,-0.011146243661642,standing,2026-03-04_13-58-09
1772632691344112600,2.121112548828125,-0.0438383928078226,0.1378289464138448,-0.2332569672107696,-0.0056531601585447,0.0513888150453567,-0.0006038546562194,standing,2026-03-04_13-58-09
1772632691354061600,2.1310615234375,-0.0405015034700743,0.1525115517608821,-0.2507774263322353,0.0151493232697248,0.0500766783952713,0.0056308722123503,standing,2026-03-04_13-58-09
1772632691364010500,2.141010498046875,-0.0274717433639802,0.107100630673021,-0.1528068814456462,0.0344198495149612,0.0329132638871669,0.0036042188294231,standing,2026-03-04_13-58-09
1772632691373959400,2.15095947265625,-0.0427835865252651,0.060254562215507,-0.0032622166663408,0.0435385145246982,-0.000514201587066,-0.0035378464963287,standing,2026-03-04_13-58-09
1772632691383908600,2.16090869140625,-0.0711149789258837,0.0130637719735503,0.1306073245972394,0.0378080531954765,-0.0372098945081234,-0.0165914557874202,standing,2026-03-04_13-58-09
1772632691393856500,2.1708564453125,-0.0823000244807451,-0.035767917343229,0.2212707613408565,0.0252627003937959,-0.0471341647207737,-0.0270363725721836,standing,2026-03-04_13-58-09
1772632691403805400,2.180805419921875,-0.0484384339491836,-0.0487476642951369,0.2030786865681409,0.0117633836343884,-0.0259531196206808,-0.023080950602889,standing,2026-03-04_13-58-09
1772632691413754600,2.190754638671875,-0.0277506516369059,0.0055699090868234,0.1044336034208536,-0.0038227667100727,-0.0067171063274145,-0.0219967775046825,standing,2026-03-04_13-58-09
1772632691423703600,2.20070361328125,-0.0356723845468834,0.0744676503546536,0.0771218181252479,-0.017552962526679,-0.0005500167608261,-0.0205381494015455,standing,2026-03-04_13-58-09
1772632691433652700,2.21065283203125,-0.0017664616832509,0.0385853128515183,0.0408849680960178,-0.0276221074163913,0.0069193504750728,-0.0194521117955446,standing,2026-03-04_13-58-09
1772632691443601700,2.2206015625,0.0046020687016658,0.0476736053228378,-0.00518470916152,-0.0287988018244504,0.0214187931269407,-0.0161937214434146,standing,2026-03-04_13-58-09
1772632691453549600,2.230549560546875,-0.009432995989453,0.0644843087397515,-0.0553220742493867,-0.0273740123957395,0.0221261288970708,-0.0199541039764881,standing,2026-03-04_13-58-09
1772632691463498500,2.24049853515625,-0.0006575871258974,0.0619211802534759,-0.0649725306481122,-0.020055953413248,0.0221807193011045,-0.0157423727214336,standing,2026-03-04_13-58-09
1772632691473447700,2.25044775390625,0.0492113545504398,0.0355045902319252,-0.0743786568969488,-0.0057664955966174,0.0321401432156562,-0.0118645429611206,standing,2026-03-04_13-58-09
1772632691483396600,2.260396728515625,0.0312630802046507,0.0516805028766393,-0.0885270092368125,0.007466347888112,0.0255546886473894,-0.0147198271006345,standing,2026-03-04_13-58-09
1772632691493345500,2.270345458984375,-0.0030475144697353,0.0360405968047678,-0.0387643226802349,0.0168787576258182,-0.0029802839271724,-0.0176543649286031,standing,2026-03-04_13-58-09
1772632691503294700,2.280294677734375,0.0380297613279893,-0.0125881172858178,0.0463929178625345,0.0215108171105384,-0.026690274477005,-0.0177122671157121,standing,2026-03-04_13-58-09
1772632691513242400,2.290242431640625,0.0722840775041841,0.0016192717649042,0.0724462275296449,0.0185081027448177,-0.0369751341640949,-0.01571542955935,standing,2026-03-04_13-58-09
1772632691523191800,2.30019189453125,0.0362788260074332,0.054435646803677,0.0594838701039552,0.0036456207744777,-0.0397304370999336,-0.0183806214481592,standing,2026-03-04_13-58-09
1772632691533140700,2.310140625,-0.0093209321834146,0.0362859498679637,0.022628011393547,-0.0076381922699511,-0.0185788143426179,-0.0180234909057617,standing,2026-03-04_13-58-09
1772632691543089700,2.320089599609375,-0.0286818498061038,0.035222412289679,-0.116546066018939,-0.0070146508514881,0.0356308780610561,-0.0165933221578598,standing,2026-03-04_13-58-09
1772632691553038600,2.33003857421875,-0.0518575764765962,0.0933843861401081,-0.2546054601877928,0.0075254100374877,0.0763663277029991,-0.0129258837550878,standing,2026-03-04_13-58-09
1772632691562986500,2.339986572265625,-0.0099377854401245,0.1308766430579125,-0.2612245860666036,0.0191596448421478,0.0765269249677658,-0.0058831800706684,standing,2026-03-04_13-58-09
1772632691572935700,2.349935791015625,0.0615019136617891,0.0930715207986533,-0.1290086572289466,0.0308434665203094,0.0523616634309291,0.0017643531318753,standing,2026-03-04_13-58-09
1772632691582884600,2.359884521484375,0.0880099082938395,0.0632724487319588,-7.65723675489e-05,0.0399686284363269,0.0193082448095083,0.0040091192349791,standing,2026-03-04_13-58-09
1772632691592833500,2.36983349609375,0.0595404773957096,0.0192572197861969,0.0988794764250516,0.0413979478180408,-0.0094328569248318,-0.004147077910602,standing,2026-03-04_13-58-09
1772632691602782500,2.379782470703125,0.0160353899291716,-0.0069527417473495,0.1738876633971929,0.029794804751873,-0.0264410078525543,-0.0108237927779555,standing,2026-03-04_13-58-09
1772632691612731600,2.389731689453125,-0.0381842760362662,-0.0254158885464072,0.2111351517736911,0.0119351129978895,-0.0213671531528234,-0.0140052055940032,standing,2026-03-04_13-58-09
1772632691622679800,2.3996796875,-0.0413352691467851,-0.0248604466207325,0.1879395696252584,-0.006474679801613,0.0006046027410775,-0.0135820256546139,standing,2026-03-04_13-58-09
1772632691632628700,2.409628662109375,-0.0159336648540571,-0.0015747019708156,0.1277665482133627,-0.0240763090550899,0.0117374146357178,-0.0079688811674714,standing,2026-03-04_13-58-09
1772632691642577700,2.41957763671875,0.0094668799927458,0.017737901264429,0.0899234320312738,-0.0284771583974361,0.0143413133919239,-0.0039734691381454,standing,2026-03-04_13-58-09
1772632691652526600,2.429526611328125,0.0269803979167714,0.0351386795289814,0.012092588853836,-0.0223297849297523,0.0159104466438293,0.0014199651777744,standing,2026-03-04_13-58-09
1772632691662475300,2.439475341796875,0.0155508395489305,0.0487387503363192,-0.0446650711566209,-0.0095731317996978,0.018075993284583,0.0049600759521126,standing,2026-03-04_13-58-09
1772632691672424200,2.449424072265625,-0.014913692422863,0.0664345660246908,-0.1177227085828781,0.0091307815164327,0.009877186268568,4.4659245759e-06,standing,2026-03-04_13-58-09
1772632691682372400,2.459372314453125,-0.0465860840807668,0.0530063446529209,-0.1284931089222431,0.0226531811058521,-0.0048880437389016,-0.0092355674132704,standing,2026-03-04_13-58-09
1772632691692321300,2.4693212890625,-0.0405926706185564,0.0443181574150919,-0.1129366433501243,0.0320599973201751,-0.0035522021353244,-0.0079066501930356,standing,2026-03-04_13-58-09
1772632691702270200,2.479270263671875,0.0155826229266822,0.0482034744158387,-0.0958557446897029,0.0336387008428573,0.0100683970376849,-0.0008957819081842,standing,2026-03-04_13-58-09
1772632691712219100,2.48921923828125,0.0239576708284206,0.0606751257151365,-0.0552624530166387,0.0281504578888416,0.0213737804442644,-0.0009072334505617,standing,2026-03-04_13-58-09
1772632691722168300,2.499168212890625,0.0161906718224287,0.0503536381870508,0.0307908595830202,0.0179422739893198,0.0261186026036739,-0.0027854486834257,standing,2026-03-04_13-58-09
1772632691732117500,2.509117431640625,0.0131469202123582,0.0072385729514062,0.0877273832917213,0.0048331301659345,0.0184476338326931,-0.0035319328308105,standing,2026-03-04_13-58-09
1772632691742065200,2.519065185546875,0.0094761592777445,0.0049618601910769,0.1125122804582118,0.0012382878921926,0.0183047521859407,-0.0014615786494687,standing,2026-03-04_13-58-09
1772632691752014300,2.529014404296875,-0.0376151709114201,0.0239180512040853,0.0569634117156267,0.00227931747213,0.0250026024878025,-0.0091796861961483,standing,2026-03-04_13-58-09
1772632691761963300,2.53896337890625,-0.0573772714798338,0.0288885330930352,0.0047661914885044,0.0085420869290828,0.0378044322133064,-0.0081515740603208,standing,2026-03-04_13-58-09
1772632691771912400,2.548912353515625,-0.002126234906353,0.0108148240029811,-0.0112438630700111,0.0186597015708684,0.0455302633345127,0.0001263292506337,standing,2026-03-04_13-58-09
1772632691781861400,2.558861328125,0.0425383613262325,0.0190374395556747,0.0198842656433582,0.0247372221201658,0.0313363969326019,0.0041180104017257,standing,2026-03-04_13-58-09
1772632691791810300,2.568810302734375,0.040163120094873,-0.0061368953198194,0.1062602343261241,0.0219014883041381,-0.0045614154078066,-0.0005044385325163,standing,2026-03-04_13-58-09
1772632691801758200,2.57875830078125,0.0428635381599888,-0.0735736241243779,0.1953758571058511,0.0119525101035833,-0.0451244078576564,-0.0053519629873335,standing,2026-03-04_13-58-09
1772632691811707100,2.58870703125,-0.0113825043557211,-0.1158029925666749,0.211277190592885,-0.0041212644428014,-0.0658278241753578,-0.0188709665089845,standing,2026-03-04_13-58-09
1772632691821656300,2.59865625,-0.0998497827619314,-0.10308350398615,0.1322919166833162,-0.0202109199017286,-0.0528039149940013,-0.02767532505095,standing,2026-03-04_13-58-09
1772632691831605200,2.608605224609375,-0.1451609515360556,-0.0623057956568896,-0.0020136779099702,-0.03223242983222,-0.0166152846068143,-0.0241753999143838,standing,2026-03-04_13-58-09
1772632691841554400,2.618554443359375,-0.0890194506625644,-0.0066521513655781,-0.154580905380845,-0.0271803587675094,0.0242177825421094,-0.0134689826518297,standing,2026-03-04_13-58-09
1772632691851502300,2.62850244140625,-0.0630206841942854,0.04602817620337,-0.3183651079148054,-0.0071153026074171,0.0651226043701171,-0.0014980735722929,standing,2026-03-04_13-58-09
1772632691861451300,2.638451171875,-0.0437759768297895,0.0782867702513933,-0.3895937763482332,0.0251227114349603,0.0835066586732864,0.0074471030384302,standing,2026-03-04_13-58-09
1772632691871400400,2.648400390625,-0.0264628951149992,0.0700786216154694,-0.3279062587201595,0.0583192780613899,0.0601805634796619,0.0050092451274394,standing,2026-03-04_13-58-09
1772632691881349400,2.658349365234375,-0.0024159203016199,0.0071891808517277,-0.17532909437716,0.0789629742503166,0.0131149208173155,-0.0044587547890841,standing,2026-03-04_13-58-09
1772632691891298300,2.66829833984375,0.0303515548503026,-0.0361725526213645,0.0243733937561511,0.0862381979823112,-0.0246441755443811,-0.0099597796797752,standing,2026-03-04_13-58-09
1772632691901247200,2.678247314453125,0.0511533554636873,-0.0427424325309693,0.1631324606269598,0.0723933726549148,-0.0472364276647567,-0.0135866943746805,standing,2026-03-04_13-58-09
1772632691911195400,2.6881953125,0.0860497324030846,-0.0176581140264868,0.2724906609684229,0.0457519069314003,-0.049356035888195,-0.0099994167685508,standing,2026-03-04_13-58-09
1772632691921144300,2.698144287109375,0.1134119692442938,0.0150727737084031,0.3202320708304643,0.0145415216684341,-0.0296283978968858,-0.0014913995983079,standing,2026-03-04_13-58-09
1772632691931093200,2.70809326171875,0.1339625898418948,0.0452811572283506,0.2568517778098583,-0.017247300595045,-0.0061544962227344,0.0063342987559735,standing,2026-03-04_13-58-09
1772632691941042200,2.718042236328125,0.101427242945414,0.0885052357964217,0.2229752271711826,-0.0433292537927627,0.0045470092445611,0.0124402251094579,standing,2026-03-04_13-58-09
1772632691950991400,2.727991455078125,0.0929518216754309,0.0911386530399322,0.1492401288747787,-0.0507522821426391,0.0216764621436595,0.0207404978573322,standing,2026-03-04_13-58-09
1772632691960940300,2.737940185546875,0.1180124670433811,0.1044413483358919,0.0343073432713747,-0.042172398418188,0.0417443066835403,0.0282397903501987,standing,2026-03-04_13-58-09
1772632691970888400,2.747888427734375,0.0807321541095152,0.1611833723857998,-0.057688218858838,-0.0251521375030279,0.029548892751336,0.0296121183782815,standing,2026-03-04_13-58-09
1772632691980837400,2.75783740234375,0.09085022801999,0.1442192319728434,-0.0714022714346647,-0.0023974678479135,-0.0010063489899039,0.0315240994095802,standing,2026-03-04_13-58-09
1772632691990786300,2.767786376953125,0.1438269995185546,0.0928860812291502,-0.0760153181880712,0.018599160015583,-0.0157221779227256,0.0396358221769332,standing,2026-03-04_13-58-09
1772632692000735200,2.7777353515625,0.1335477802296169,0.1049963518701493,-0.115520230102539,0.0357543341815471,-0.0175050273537635,0.0469150692224502,standing,2026-03-04_13-58-09
1772632692010684200,2.78768408203125,0.0995944928266108,0.132730600361526,-0.0942787046313285,0.0397016704082489,-0.029616018757224,0.0465241149067878,standing,2026-03-04_13-58-09
1772632692020633300,2.79763330078125,0.044353886315599,0.0815073397330939,-0.03467033136487,0.0340075641870498,-0.0312173776328563,0.0468934997916221,standing,2026-03-04_13-58-09
1772632692030581200,2.807581298828125,0.0258289628593251,0.0320263927273452,-0.022501170143485,0.019238207489252,-0.0083599984645843,0.0538052022457122,standing,2026-03-04_13-58-09
1772632692040530200,2.8175302734375,-0.0351100379563868,0.0142142571829259,-0.0353004459619522,0.0074805747717618,0.0178180690854787,0.0545159392058849,standing,2026-03-04_13-58-09
1772632692050479400,2.827479248046875,-0.0867022780276834,0.0095826518595218,-0.0226624981850385,-0.0016743075102567,0.0272800140082836,0.0496807023882865,standing,2026-03-04_13-58-09
1772632692060428300,2.83742822265625,-0.1083347207789309,-0.0526673219569027,0.0195493346005678,-0.0051948097534477,0.0272513944655656,0.043824765831232,standing,2026-03-04_13-58-09
1772632692070377500,2.84737744140625,-0.110998167834524,-0.0969200129203498,0.0290127439945936,-0.0057673887349665,0.0228651687502861,0.0372592732310295,standing,2026-03-04_13-58-09
1772632692080326400,2.857326416015625,-0.1540111974678002,-0.1143821659833192,0.0395090035676956,-0.0006338348612189,0.010679873637855,0.0244950521737337,standing,2026-03-04_13-58-09
1772632692090274300,2.8672744140625,-0.1677927988545037,-0.1403033737033605,0.0741746587574481,0.0047582671977579,0.0015502909664064,0.0129566406831145,standing,2026-03-04_13-58-09
1772632692100223200,2.87722314453125,-0.1359683584400452,-0.1486998845182359,0.0758189188331365,0.0113563174381852,-0.0030035909730941,0.0067005222663283,standing,2026-03-04_13-58-09
1772632692110172200,2.887172119140625,-0.1257054874977096,-0.1266987728513777,0.1045031615257263,0.0123763084411621,-0.0155281713232398,0.0035007342230528,standing,2026-03-04_13-58-09
1772632692120121300,2.897121337890625,-0.1166534536498598,-0.0946260567642748,0.1573901175826788,0.0052272556349635,-0.0413873381912708,-0.0053816521540284,standing,2026-03-04_13-58-09
1772632692130070300,2.9070703125,-0.0917342991118319,-0.0866213217459619,0.1804845774441957,0.0016903113573789,-0.0501446090638637,-0.0093415062874555,standing,2026-03-04_13-58-09
1772632692140019500,2.91701953125,-0.0545597846399992,-0.0680117522135376,0.1247422319561243,-0.004048207309097,-0.0345021188259124,-0.0088504580780863,standing,2026-03-04_13-58-09
1772632692149967000,2.926967041015625,-0.0565399073402397,-0.0086808807142078,0.0328840324699878,-0.012335430830717,-0.0214643497020006,-0.0162780135869979,standing,2026-03-04_13-58-09
1772632692159916300,2.936916259765625,-0.0905626615165732,0.040215106010437,0.0124053080648183,-0.0243608020246028,-0.0059756748378276,-0.0224337857216596,standing,2026-03-04_13-58-09
1772632692169865500,2.946865478515625,-0.0361254072776995,0.0169403211459517,-0.0354769715726375,-0.0320352315902709,0.0220833905041217,-0.0131068630144,standing,2026-03-04_13-58-09
1772632692179814400,2.956814453125,0.0325068514543585,0.0347251302920281,-0.0640618455439805,-0.0292132310569286,0.0426535047590732,-0.0047302013263106,standing,2026-03-04_13-58-09
1772632692189763300,2.966763427734375,0.0579039257024414,0.1021269339136779,-0.0517190813213586,-0.024745512753725,0.0239011198282241,-0.0008470460306853,standing,2026-03-04_13-58-09
1772632692199712300,2.976712158203125,0.1041660750584676,0.0949544119358062,0.0106347912609577,-0.0073822606354951,-0.0095035666599869,0.0052807494066655,standing,2026-03-04_13-58-09
1772632692209660400,2.986660400390625,0.1642837312876247,0.1079559323281049,-0.0164876089423894,0.0143025275319814,-0.0218616984784603,0.0168444607406854,standing,2026-03-04_13-58-09
1772632692219609300,2.996609375,0.1835978140939027,0.1644791990607977,-0.0915752908915281,0.0353171527385711,-0.021477535367012,0.0251410361379385,standing,2026-03-04_13-58-09
1772632692229558300,3.006558349609375,0.1481451367123052,0.1719042344950139,-0.0803799431383609,0.0390903204679489,-0.0276185180991888,0.0238041300326585,standing,2026-03-04_13-58-09
1772632692239507200,3.016507080078125,0.0978253642622381,0.1225502748697996,0.0294295081019401,0.0224348660558462,-0.0292995031923055,0.0206415820866823,standing,2026-03-04_13-58-09
1772632692249456400,3.026456298828125,0.0655691631007008,0.0505186194904148,0.0979576854050159,4.93992120027e-05,-0.0099023710936307,0.0240986328572034,standing,2026-03-04_13-58-09
1772632692259404300,3.036404296875,0.0365739547627978,0.0334932504095137,0.0839490337967872,-0.0218361485749483,0.017909824848175,0.026670504361391,standing,2026-03-04_13-58-09
1772632692269353500,3.046353515625,-0.0020388671501539,0.0454686426244676,0.0529804795593023,-0.0362944528460502,0.0412827916443347,0.0241855084896087,standing,2026-03-04_13-58-09
1772632692279302400,3.056302490234375,-0.0021666034493595,0.0166841544277966,0.0395598569720983,-0.0461017377674579,0.0511664487421512,0.0281692612916231,standing,2026-03-04_13-58-09
1772632692289251300,3.066251220703125,0.0064082413407973,-0.0104385380364954,0.0934223800629377,-0.0496131181716918,0.0428163707256317,0.0335139594972133,standing,2026-03-04_13-58-09
1772632692299200300,3.0762001953125,0.007762870820146,-0.0182554953977465,0.107567809793353,-0.0501366294920444,0.0116287562996149,0.0277244430035352,standing,2026-03-04_13-58-09
1772632692309149200,3.086149169921875,-0.0445513633827678,-0.0740771897323429,0.114736970770359,-0.047982133924961,-0.025246437638998,0.014085597358644,standing,2026-03-04_13-58-09
1772632692319097300,3.096097412109375,-0.085298146850802,-0.1131084927856922,0.0681020608454942,-0.0360776185989379,-0.0430028103291988,0.0053820041939616,standing,2026-03-04_13-58-09
1772632692329046300,3.10604638671875,-0.1135058763391338,-0.0867567846938967,-0.0077647887825965,-0.0237242802977561,-0.0376722253859043,0.0016991184093058,standing,2026-03-04_13-58-09
1772632692338995200,3.1159951171875,-0.1392329131939448,-0.0338281814523041,-0.1167746140778064,-0.0138562247157096,-0.0215778108686208,0.0054779900237917,standing,2026-03-04_13-58-09
1772632692348944100,3.125944091796875,-0.1215764248689636,-0.0039252106197178,-0.1655745930820703,0.0021565626375377,-0.0016030378174036,0.0128655992448329,standing,2026-03-04_13-58-09
1772632692358893300,3.135893310546875,-0.0825440441033802,0.0134929571710526,-0.1774193446546793,0.018086215481162,0.0133681893348693,0.0222428124397993,standing,2026-03-04_13-58-09
1772632692368842200,3.14584228515625,-0.079703815708775,0.0286981250874698,-0.143603584292531,0.0310651324689388,0.010392639786005,0.0209165588021278,standing,2026-03-04_13-58-09
1772632692378790400,3.155790283203125,-0.1249310507928021,0.0109150695070624,-0.0675011723428964,0.0450561344623565,-0.0024105021730065,0.009286368265748,standing,2026-03-04_13-58-09
1772632692388739300,3.1657392578125,-0.1295600440340116,-0.0412776206754148,-0.0018318916022777,0.0473334044218063,-0.0200432911515235,-0.0032312877010554,standing,2026-03-04_13-58-09
1772632692398688300,3.175688232421875,-0.1074439459516666,-0.0661953504413366,0.0709124420911073,0.0412136241793632,-0.0337461978197097,-0.0173044987022876,standing,2026-03-04_13-58-09
1772632692408637200,3.18563720703125,-0.080559135630168,-0.0545521127901971,0.1311474228233098,0.0236008055508136,-0.0315424315631389,-0.0233663860708475,standing,2026-03-04_13-58-09
1772632692418586400,3.19558642578125,0.0048083683961071,-0.0214889243610203,0.1770364828169345,0.0041802539490163,-0.0143129723146557,-0.0185799840837717,standing,2026-03-04_13-58-09
1772632692428535300,3.205535400390625,0.0589140891256742,0.0204031749509274,0.2008539962559938,-0.0223797187209129,-0.0091565605252981,-0.0106355072930455,standing,2026-03-04_13-58-09
1772632692438483200,3.215483154296875,0.0818804290954954,0.0268425603486597,0.2170423299908637,-0.0460389554500579,-0.0166822485625743,-0.0019539648201316,standing,2026-03-04_13-58-09
1772632692448432000,3.22543212890625,0.1036476406749337,0.035634500221908,0.1632715768367052,-0.0477652177214622,-0.0081742471083998,0.0046400218270719,standing,2026-03-04_13-58-09
1772632692458381300,3.23538134765625,0.0852356395412236,0.0746305858314037,0.0201940622448921,-0.0359497927129268,0.0074196327477693,0.0062078824266791,standing,2026-03-04_13-58-09
1772632692468330500,3.24533056640625,0.0243263945429585,0.089510028924793,-0.1097258646100759,-0.016832023859024,0.0172054190188646,0.0035583032295107,standing,2026-03-04_13-58-09
1772632692478279400,3.255279541015625,0.0109401856820099,0.0649349751166999,-0.1320575234055519,-0.0011683711782097,0.0103664062917232,0.0027494691312313,standing,2026-03-04_13-58-09
1772632692488228400,3.265228271484375,0.0566671504491008,0.0427298653103411,-0.0971954688608646,0.0147991441190242,-0.0012308615259826,0.006380689330399,standing,2026-03-04_13-58-09
1772632692498176300,3.27517626953125,0.0919217297090217,0.0416395858556032,-0.0207172093361616,0.0189638137817382,-0.0191492680460214,0.0093673281371593,standing,2026-03-04_13-58-09
1772632692508125200,3.285125244140625,0.0756084544202312,0.0309800985448062,0.0375567004561424,0.0143669322133064,-0.0333788059651851,0.0109428539872169,standing,2026-03-04_13-58-09
1772632692518074400,3.295074462890625,0.0524024422093294,-0.004878711952269,0.0711421591937541,0.0013415906578302,-0.0332424566149711,0.0155926337465643,standing,2026-03-04_13-58-09
1772632692528023300,3.305023193359375,0.0403638302987441,-0.0175562610872089,0.0546773466050624,-0.0145529536530375,-0.0221546497195959,0.0122610200196504,standing,2026-03-04_13-58-09
1772632692537972200,3.31497216796875,-0.0223641910918988,-0.0243339385285973,0.0426566539436578,-0.0285596288740634,-0.0046928352676332,0.0116207543760538,standing,2026-03-04_13-58-09
1772632692547921200,3.324921142578125,-0.0528329973800107,-0.0372583020314574,0.017599954098463,-0.0317756608128547,0.0095353694632649,0.0130673833191394,standing,2026-03-04_13-58-09
1772632692557869300,3.334869384765625,-0.0552711660460568,-0.0164108904443681,-0.0673550418704748,-0.0256490595638752,0.0282707139849662,0.0149598410353064,standing,2026-03-04_13-58-09
1772632692567818500,3.344818603515625,-0.0668243325272575,-0.0313670520357787,-0.1106423949331045,-0.0109798368066549,0.0389257557690143,0.0105587011203169,standing,2026-03-04_13-58-09
1772632692577767400,3.354767333984375,-0.0878699701001867,-0.0403154976449906,-0.0998521208494901,0.0020873830653727,0.02731504291296,0.0031322392169386,standing,2026-03-04_13-58-09
1772632692587716400,3.36471630859375,-0.1042187368274666,-0.0975187094658613,0.004147767329216,0.010768755339086,-0.0022122228983789,-0.0098048644140362,standing,2026-03-04_13-58-09
1772632692597665300,3.374665283203125,-0.0816189103487879,-0.1525629896871745,0.0826426273733377,0.017626816406846,-0.0298794005066156,-0.0171234682202339,standing,2026-03-04_13-58-09
1772632692607614200,3.3846142578125,-0.0289000591340474,-0.1238232174150645,0.101991470965743,0.0182321518659591,-0.0480362996459007,-0.0158928222954273,standing,2026-03-04_13-58-09
1772632692617562400,3.394562255859375,-5.19128503277e-05,-0.0724170014351606,0.0621072043448686,0.0186714194715023,-0.042600393295288,-0.014041687361896,standing,2026-03-04_13-58-09
1772632692627511300,3.40451123046875,0.0040575134961865,-0.0098318043150007,-0.0170259536027908,0.0194969996809959,-0.0190146397799253,-0.0104046082124114,standing,2026-03-04_13-58-09
1772632692637460200,3.414460205078125,0.0200040195655077,0.0187296887807548,-0.0704781423270702,0.0204062312841415,0.0087990006431937,-0.0091328267008066,standing,2026-03-04_13-58-09
1772632692647409200,3.4244091796875,0.0152814480230212,0.0458854067318141,-0.0585036268949508,0.0124750714749097,0.0147879179567098,-0.0069929771125316,standing,2026-03-04_13-58-09
1772632692657358600,3.434358642578125,0.0216152541544288,0.0473699462011456,0.0244230781167745,-0.0023954920470714,0.0080072507262229,-0.0120662823319435,standing,2026-03-04_13-58-09
1772632692667307500,3.4443076171875,0.025107041792944,0.0154931910775601,0.1107633909642696,-0.0179379656910896,0.0049544679932296,-0.0110231228172779,standing,2026-03-04_13-58-09
1772632692677255700,3.454255615234375,0.0204781398832798,0.0356222252622246,0.1302571959853172,-0.0276593044400215,0.0076399999670684,-0.0069298441521823,standing,2026-03-04_13-58-09
1772632692687204600,3.46420458984375,0.0431469582112506,0.0749104256860911,0.1138245321005582,-0.0317384675145149,-0.003725572489202,-0.0047449865378439,standing,2026-03-04_13-58-09
1772632692697153500,3.474153564453125,0.0307093370457179,0.0908012377791106,0.0846715028524398,-0.0230332762002944,-0.0073036714456975,-0.0036238408647477,standing,2026-03-04_13-58-09
1772632692707102700,3.484102783203125,0.0413968448746018,0.0910161957040429,-0.025964462339878,-0.0061443061567842,0.0108199380338191,0.0027704089879989,standing,2026-03-04_13-58-09
1772632692717051600,3.4940517578125,0.0468991138190031,0.1352570500992238,-0.0708650958180427,0.00385317299515,0.0093409586697816,0.0056153256446123,standing,2026-03-04_13-58-09
1772632692727000800,3.504000732421875,0.0566997192781418,0.1351683489024639,0.0100011695325374,0.0060082031413912,-0.0085328472778201,0.0043961303308606,standing,2026-03-04_13-58-09
1772632692736948700,3.51394873046875,0.0702778157156892,0.0893647752352058,0.0739952105373144,0.0035157050006091,-0.01728106290102,0.0060307374224066,standing,2026-03-04_13-58-09
1772632692746897700,3.523897705078125,0.0744312638670206,0.0808076670311391,0.0859983675420284,-0.0049302438274025,-0.0109091848134994,0.018001914024353,standing,2026-03-04_13-58-09
1772632692756846600,3.5338466796875,0.054787054057233,0.104868341576308,0.1164326687723398,-0.0205248948186635,-0.0103495214134454,0.0181706435978412,standing,2026-03-04_13-58-09
1772632692766795500,3.54379541015625,-0.0043551630022004,0.0599963496707379,0.154806530830264,-0.036828763782978,-0.0124225262552499,0.0128840040415525,standing,2026-03-04_13-58-09
1772632692776744700,3.55374462890625,-0.0348057943128049,-0.0154892455548048,0.0828694218665361,-0.0365049913525581,0.0190361998975276,0.0166079718619585,standing,2026-03-04_13-58-09
1772632692786693600,3.563693603515625,-0.0343007856664247,-0.001639291639626,-0.0442611665308475,-0.0287235006690025,0.0399854220449924,0.0206138994544744,standing,2026-03-04_13-58-09
1772632692796641500,3.5736416015625,-0.0460383140048943,0.018182868552953,-0.0522621021568775,-0.0223172046244144,0.0208390317857265,0.0170683786273002,standing,2026-03-04_13-58-09
1772632692806590500,3.583590576171875,-0.0170237799120135,-0.0616508388794958,0.0294616568058729,-0.0155873959884047,-0.011735157109797,0.012754057534039,standing,2026-03-04_13-58-09
1772632692816539600,3.59353955078125,-0.0022720365852117,-0.120587450364232,0.0514303275078535,-0.0106952134519815,-0.0363475494086742,0.0102458670735359,standing,2026-03-04_13-58-09
1772632692826488800,3.60348876953125,-0.0553782614160329,-0.0929340120241045,0.0367296019822359,-0.0114004183560609,-0.0597508773207664,-0.0017002746462821,standing,2026-03-04_13-58-09
1772632692836437800,3.613437744140625,-0.0992134393534623,-0.0878077550515532,0.009041384589672,-0.0101625379174947,-0.0598049387335777,-0.0068792821839451,standing,2026-03-04_13-58-09
1772632692846386700,3.62338671875,-0.0583914443579036,-0.058942456703633,-0.1140665241628885,-0.0046431352384388,-0.021176055073738,0.0013344390317797,standing,2026-03-04_13-58-09
1772632692856334600,3.63333447265625,-0.0555334885103628,0.0235119546212255,-0.2746539764821529,0.0089769810438156,0.0215506311506032,0.0077272579073905,standing,2026-03-04_13-58-09
1772632692866283800,3.64328369140625,-0.0604204203017055,0.0819692581564188,-0.2907815199404954,0.018174473196268,0.0367194600403308,0.0097193019464612,standing,2026-03-04_13-58-09
1772632692876232700,3.653232666015625,-0.0221891085196286,0.0564613074123859,-0.1610001247733831,0.0260773822665214,0.0361574105918407,0.0129330670461058,standing,2026-03-04_13-58-09
1772632692886181600,3.663181640625,0.0013274126788601,0.0368929758504033,-0.0799947432130575,0.0337941572070121,0.0328774638473987,0.0139655750244855,standing,2026-03-04_13-58-09
1772632692896130600,3.673130615234375,-0.0142580780583433,0.0523623476609587,0.0178776019960641,0.0311286244541406,0.0111557729542255,0.005131191574037,standing,2026-03-04_13-58-09
1772632692906079700,3.683079833984375,-0.0217585168163292,0.0373242068745195,0.1694856290459633,0.0178703423589468,-0.0161413624882698,-0.0006127138622105,standing,2026-03-04_13-58-09
1772632692916028000,3.69302783203125,0.0110164292559959,-0.0031653321631252,0.2682663212716579,0.0020824787206947,-0.0269643124192953,-0.0037339094560593,standing,2026-03-04_13-58-09
1772632692925976800,3.702976806640625,0.0073740724319592,-0.008070639861375,0.2576286074012517,-0.0137337679043412,-0.0207447651773691,-0.0022441372275352,standing,2026-03-04_13-58-09
1772632692935925800,3.71292578125,-0.0150459770330227,0.026965017684549,0.2279641214996576,-0.0286425221711397,-0.0144515708088874,-0.0008901411201804,standing,2026-03-04_13-58-09
1772632692945874700,3.722874755859375,-0.0123552401117049,0.0684539430230855,0.1931336311370134,-0.0398549623787403,-0.0079526584595441,0.0010654181241989,standing,2026-03-04_13-58-09
1772632692955823600,3.73282373046875,0.005906630227901,0.071473436974734,0.1528624110251665,-0.0436900481581687,-0.0028788174968212,0.0020948387682437,standing,2026-03-04_13-58-09
1772632692965772500,3.7427724609375,-0.0157440240334719,0.0754237820357084,0.0769581519961357,-0.0404188856482505,0.0051354337483644,-0.0015768612502142,standing,2026-03-04_13-58-09
1772632692975720700,3.752720703125,-0.0279189939411357,0.0974121803514659,0.0362362655073404,-0.0312067884951829,0.0128644537180662,0.0004984822589904,standing,2026-03-04_13-58-09
1772632692985669600,3.762669677734375,-0.0034198640466202,0.1001369291402399,0.0311462488919496,-0.0247169304639101,-0.0015818637330085,-0.0010626628063619,standing,2026-03-04_13-58-09
1772632692995618600,3.77261865234375,0.0454183372093364,0.0833773713886737,0.044120296755433,-0.0234894156455993,-0.0243709273636341,0.0049384497106075,standing,2026-03-04_13-58-09
1772632693005567700,3.782567626953125,0.0882324376038741,0.0728077543184161,0.05843056165874,-0.0218252055346965,-0.0333090275526046,0.0101148365065455,standing,2026-03-04_13-58-09
1772632693015516700,3.7925166015625,0.0768514493518043,0.0651728755258023,0.0098842651546001,-0.0189794637262821,-0.0324921011924743,0.0104445647448301,standing,2026-03-04_13-58-09
1772632693025465600,3.802465576171875,0.0320354802160989,0.0651484717369079,-0.0469207411289215,-0.0194854661822319,-0.0241785086691379,0.0098714521154761,standing,2026-03-04_13-58-09
1772632693035413800,3.812413818359375,0.0158582249976694,0.066762482804805,-0.0907031842321157,-0.0216078925877809,-0.0045436848886311,0.01466965675354,standing,2026-03-04_13-58-09
1772632693045362700,3.82236279296875,0.0167751389131881,0.0586918429434299,-0.1118441719383001,-0.0265336744487285,0.0086892955005168,0.0165546424686908,standing,2026-03-04_13-58-09
1772632693055311600,3.8323115234375,-0.0051030861595179,0.0380912457242608,-0.1034796636968851,-0.0273805148899555,0.0183911807835102,0.0152382683008909,standing,2026-03-04_13-58-09
1772632693065260500,3.842260498046875,-0.0216698795516509,0.0071349664464592,-0.0756932466268539,-0.0239623468369245,0.0219161435961723,0.0132920295000076,standing,2026-03-04_13-58-09
1772632693075209700,3.852209716796875,-0.0275654312631115,-0.0087295421615242,-0.0500765748113393,-0.0180811136960983,0.0207158662378788,0.0116205615922808,standing,2026-03-04_13-58-09
1772632693085158700,3.86215869140625,-0.022193401102256,-0.0345548882916569,-0.038484336695075,-0.0102242548018693,0.0123732490465044,0.0103244008496403,standing,2026-03-04_13-58-09
1772632693095106600,3.8721064453125,-0.0335165125540923,-0.0589594078384339,-0.0307552037477493,-0.0013080136850476,-0.0026423274539411,0.0055694230832159,standing,2026-03-04_13-58-09
1772632693105055500,3.882055419921875,-0.0484778526441194,-0.0591837181136012,-0.0201619135409593,0.0060407128185033,-0.0073867486789822,0.0032532722689211,standing,2026-03-04_13-58-09
1772632693115004700,3.892004638671875,-0.0339349297624081,-0.0569366698391735,-0.0121966337502002,0.0095304967835545,-0.0070792781189084,0.0017907922156155,standing,2026-03-04_13-58-09
1772632693124953900,3.901953857421875,-0.0513557644343003,-0.0482712789550423,0.0072661916106939,0.0103893661871552,-0.0079730348661541,-0.0018058067653328,standing,2026-03-04_13-58-09
1772632693134902800,3.91190283203125,-0.0991206921692472,-0.0509217934638261,0.0360714303344488,0.0025681275874376,-0.0059963101521134,-0.0118019273504614,standing,2026-03-04_13-58-09
1772632693144851700,3.921851806640625,-0.1213343780077062,-0.0589390957027673,0.038182138878107,-0.0046514356508851,-0.0003341629635542,-0.0182678159326314,standing,2026-03-04_13-58-09
1772632693154799600,3.931799560546875,-0.1362194379911292,-0.0592177665136754,0.0592974076211452,-0.0152310580015182,0.0018107315991073,-0.0262812580913305,standing,2026-03-04_13-58-09
1772632693164748500,3.94174853515625,-0.1104091524328105,-0.038696079749614,0.062755439120531,-0.0223938953131437,0.006667005829513,-0.0238367412239313,standing,2026-03-04_13-58-09
1772632693174697700,3.95169775390625,-0.0428530806980561,-0.0197645847864449,0.0358452203631401,-0.0189129263162612,0.0111435204744338,-0.0180510506033897,standing,2026-03-04_13-58-09
1772632693184646700,3.961646728515625,-0.0477588541871868,0.0340120135866105,-0.0002934299886226,-0.0103934742510318,0.012090541422367,-0.019495015963912,standing,2026-03-04_13-58-09
1772632693194595600,3.971595703125,-0.0565279246415011,0.058999301457405,-0.0393202029973268,0.0031214007176458,0.0109720174223184,-0.0209801197052001,standing,2026-03-04_13-58-09
1772632693204544800,3.981544677734375,-0.0374921564531046,0.039173341872543,-0.0300777428776025,0.0151237342506647,0.009603152051568,-0.0238944161683321,standing,2026-03-04_13-58-09
1772632693214492700,3.99149267578125,0.0144481116045732,0.0305102890759706,0.013920388802886,0.0155193712562322,0.002371999900788,-0.0284646544605493,standing,2026-03-04_13-58-09
1772632693224441900,4.00144189453125,0.0160951755587011,0.0625035101860761,0.1011368999630212,0.00194310862571,-0.0082159303128719,-0.0298907775431871,standing,2026-03-04_13-58-09
1772632693234390800,4.011390869140625,0.0612633647987153,0.053395928492397,0.1921031190454959,-0.018226608633995,-0.0143430642783641,-0.0221263319253921,standing,2026-03-04_13-58-09
1772632693244339700,4.021339599609375,0.1174674369138665,0.0590085076771676,0.2246358538597822,-0.0412961095571517,-0.0120207760483026,-0.0139934141188859,standing,2026-03-04_13-58-09
1772632693254288600,4.03128857421875,0.0871657308209687,0.0616425094425678,0.1910188309401273,-0.0528222061693668,-0.0004103281535208,-0.0069558145478367,standing,2026-03-04_13-58-09
1772632693264237600,4.041237548828125,0.071824168374855,0.0851876356810331,0.0649590866446495,-0.0479419641196727,0.0187519155442714,-0.0004422555211931,standing,2026-03-04_13-58-09
1772632693274185700,4.051185791015625,0.0806390781317371,0.0900150558374822,-0.0598071107089519,-0.0335353910923004,0.0353243611752986,0.0017349335830658,standing,2026-03-04_13-58-09
1772632693284134700,4.061134765625,0.0666299607326276,0.0925987887203693,-0.1091425117641687,-0.0157180447131395,0.0288068074733018,0.0060761524364352,standing,2026-03-04_13-58-09
1772632693294083600,4.07108349609375,0.0797189219463616,0.0555135051682591,-0.0650263066619634,-0.0040486734360456,-0.0006697240751236,0.0040213279426097,standing,2026-03-04_13-58-09
1772632693304032500,4.081032470703125,0.0775743111331015,-0.0217370539031922,-0.0017950667232275,-0.0014425041154026,-0.0358878970146179,-0.0018818350508809,standing,2026-03-04_13-58-09
1772632693313981700,4.090981689453125,0.0542695512554608,-0.0648800300590694,0.0538952563166618,-0.0111455302685499,-0.0532268062233924,-0.0095143839716911,standing,2026-03-04_13-58-09
1772632693323930600,4.1009306640625,0.0064931157458107,-0.058406304000318,0.0388444021791219,-0.0232943389564752,-0.0422061122953891,-0.006961477920413,standing,2026-03-04_13-58-09
1772632693333878800,4.110878662109375,-0.0371853555262554,-0.0440314494282007,-0.0179050745248794,-0.0400486402213573,-0.0196190420538187,-0.0077104424126446,standing,2026-03-04_13-58-09
1772632693343827700,4.12082763671875,-0.041632261065673,-0.0147429572321474,-0.1125415065526962,-0.0408206917345523,0.0091313794255256,0.0012790579348802,standing,2026-03-04_13-58-09
1772632693353776600,4.130776611328125,-0.0333248350400477,0.0211522397525608,-0.2227864266008138,-0.021549766883254,0.0410217903554439,0.0099959885701537,standing,2026-03-04_13-58-09
1772632693363725600,4.1407255859375,-0.0459945844610221,0.0616433862254023,-0.3388438323199749,0.0065867947414517,0.0554526634514331,0.0093419160693883,standing,2026-03-04_13-58-09
1772632693373674800,4.1506748046875,-0.0593730849395506,0.0528352258697152,-0.3150298260122537,0.0362165011465549,0.0453968346118927,0.0081934779882431,standing,2026-03-04_13-58-09
1772632693383623700,4.160623779296875,-0.0401579141967929,-0.0076008303925395,-0.2530646604865789,0.0636859461665153,0.0310583785176277,0.0008103963918983,standing,2026-03-04_13-58-09
1772632693393571600,4.170571533203125,-0.0240610033387318,-0.0182619251385331,-0.1361766491621732,0.0760894790291786,0.0121440775692462,-0.0051631992682814,standing,2026-03-04_13-58-09
1772632693403520500,4.1805205078125,-0.0255924872223287,-0.0378374170936644,0.0535766918867826,0.0661380514502525,-0.0086208553984761,-0.0081310262903571,standing,2026-03-04_13-58-09
1772632693413469700,4.1904697265625,-0.0006690401016734,-0.0478849099859595,0.2225385893195867,0.0421211086213588,-0.0228031259030103,-0.0096079185605049,standing,2026-03-04_13-58-09
1772632693423419000,4.2004189453125,0.0030899653719738,-0.045455637012422,0.3369365373939275,0.0067205084487795,-0.0241584088653326,-0.0118060912936925,standing,2026-03-04_13-58-09
1772632693433367800,4.210367919921875,-0.0268117633515968,-0.0634976357899606,0.3811778301805257,-0.0317231304943561,-0.0200466252863407,-0.016842383891344,standing,2026-03-04_13-58-09
1772632693443316700,4.220316650390625,-0.070765032977052,-0.065626756773144,0.3236199597030877,-0.0595558285713195,-0.0048596835695207,-0.0229151900857687,standing,2026-03-04_13-58-09
1772632693453264600,4.2302646484375,-0.0747572626846842,-0.0376588456563651,0.1859720689445733,-0.0688198581337928,0.0163350980728864,-0.0234597325325012,standing,2026-03-04_13-58-09
1772632693463213600,4.240213623046875,-0.0632723574004135,0.0021326281145215,-0.0122241062790155,-0.0543133541941642,0.0439624637365341,-0.0236703865230083,standing,2026-03-04_13-58-09
1772632693473162800,4.250162841796875,-0.0302071048783138,0.0616629677087068,-0.1724965012997388,-0.0279043763875961,0.0538915134966373,-0.0186370462179183,standing,2026-03-04_13-58-09
1772632693483111700,4.260111572265625,-0.0026978425155393,0.0961374842405319,-0.1820920126408338,0.0002284571528434,0.0354858748614788,-0.0128004616126418,standing,2026-03-04_13-58-09
1772632693493060600,4.270060546875,0.0448472045241855,0.0908864318445324,-0.1347358027040958,0.0238593239337205,-0.0013734623789787,-0.0118965823203325,standing,2026-03-04_13-58-09
1772632693503009500,4.280009521484375,0.0726357587523758,0.0654978696964681,-0.0699491500169038,0.037153024226427,-0.0318746455013752,-0.0118928533047437,standing,2026-03-04_13-58-09
1772632693512957700,4.289957763671875,0.0624520722597837,0.0573747689954936,-0.0229237794697284,0.0378030352294445,-0.0394546762108802,-0.0128709776327013,standing,2026-03-04_13-58-09
1772632693522907000,4.299906982421875,0.0353993214928545,0.0582362081304192,-0.0145844056695699,0.02851845882833,-0.0270954761654138,-0.0091473460197448,standing,2026-03-04_13-58-09
1772632693532855800,4.309855712890625,0.0273189639550633,0.0586998801194131,-0.020298691663146,0.0148269496858119,-0.0047708647325634,-0.0027885867748409,standing,2026-03-04_13-58-09
1772632693542804700,4.3198046875,0.032900727876462,0.0640799657225608,-0.0196837746351957,0.0022160825319588,0.0148182827979326,0.0017366565298289,standing,2026-03-04_13-58-09
1772632693552753700,4.329753662109375,0.0125570645604282,0.0659876990400254,-0.0220820679485797,-0.0047465325333178,0.0292920395731925,0.0079716239124536,standing,2026-03-04_13-58-09
1772632693562702600,4.33970263671875,-0.0055802843503654,0.0555633356593549,-0.0361059171259403,-0.0032977727241814,0.0321147255599498,0.0053476109169423,standing,2026-03-04_13-58-09
1772632693572650800,4.349650634765625,-0.0181289464086294,0.0032065409563481,-0.0359884282261133,0.0026812246069312,0.0324828997254371,-0.0005251374095678,standing,2026-03-04_13-58-09
1772632693582599700,4.359599609375,-0.0411014421246014,-0.0180598266951739,-0.0285059635162353,0.01035379152745,0.0241029970347881,-0.0069497469812631,standing,2026-03-04_13-58-09
1772632693592548600,4.369548583984375,-0.0275833870449103,-0.0260547709718346,0.0285591550081968,0.0169433616101741,0.0075875422917306,-0.0103740524500608,standing,2026-03-04_13-58-09
1772632693602497500,4.37949755859375,-0.001343340900354,-0.0241748024441301,0.0592366173446178,0.0186038427054882,-0.0012972960248589,-0.0087937330827116,standing,2026-03-04_13-58-09
1772632693612446700,4.38944677734375,0.0037080424713902,-0.0121517716951668,0.086642510664463,0.0164836570620536,-0.0094580268487334,-0.0091477241367101,standing,2026-03-04_13-58-09
1772632693622395600,4.399395751953125,0.0024848573519848,-0.0024807108998298,0.0903290902227163,0.0117312464863061,-0.0080747809261083,-0.0077341184951364,standing,2026-03-04_13-58-09
1772632693632344800,4.4093447265625,-0.0169914120123721,0.003047404871881,0.0880921249508857,0.0074530094861984,-0.0039426167495548,-0.0093917958438396,standing,2026-03-04_13-58-09
1772632693642292700,4.419292724609375,-0.0497530419453978,0.00876549025774,0.0786176096409559,0.0011730091646313,-0.0118407532572746,-0.0149375619366765,standing,2026-03-04_13-58-09
1772632693652241700,4.42924169921875,-0.0673244092701934,0.0058088324092328,0.0785574038863182,-0.0077208620496094,-0.0158302932977676,-0.0150226131081581,standing,2026-03-04_13-58-09
1772632693662190600,4.439190673828125,-0.0306656257681548,-0.0031849136464297,0.0468541056334972,-0.0102130472660064,-0.0073699639178812,-0.0156282149255275,standing,2026-03-04_13-58-09
1772632693672139500,4.449139404296875,-0.0428327411629259,0.0147248370535671,-0.0230184720158576,-0.0093552414327859,0.0015825100708752,-0.021231522783637,standing,2026-03-04_13-58-09
1772632693682088700,4.459088623046875,-0.0711249888632446,0.0408195016443729,-0.049528877800703,-0.0078124734573066,0.009268126450479,-0.0222427248954772,standing,2026-03-04_13-58-09
1772632693692038000,4.469037841796875,-0.0570962991139851,0.0238484930992126,-0.055730070528388,-0.0046715415082871,0.0122202411293983,-0.0228403378278017,standing,2026-03-04_13-58-09
1772632693701985500,4.478985595703125,-0.0206992900869809,0.0302758957982063,-0.000910100582242,-0.0048691476695239,0.0066371895372867,-0.0198504067957401,standing,2026-03-04_13-58-09
1772632693711934700,4.488934814453125,0.0332152371857315,0.0379515449926257,0.0280026901692152,-0.001080113928765,-0.0013662718702107,-0.0196333304047584,standing,2026-03-04_13-58-09
1772632693721883600,4.498883544921875,0.0168311799493618,0.0427044386081397,0.0291869315177202,0.0029047741554677,-0.0121012069284915,-0.02002614736557,standing,2026-03-04_13-58-09
1772632693731832800,4.508832763671875,-0.0197714529186487,0.0473648316346108,0.0153618197828531,0.0071320752613246,-0.0142486421391367,-0.0212150365114212,standing,2026-03-04_13-58-09
1772632693741781800,4.51878173828125,-0.0155909158309921,0.0436975412987172,-0.0028968904852867,0.0140778655186295,-0.002023933455348,-0.0191385690122842,standing,2026-03-04_13-58-09
1772632693751730700,4.528730712890625,-0.0016896518536843,0.0800052646070718,-0.0501695137917995,0.0200146529823541,0.0179467014968395,-0.0164611153304576,standing,2026-03-04_13-58-09
1772632693761678600,4.5386787109375,-0.0022905768889002,0.1001385365754365,-0.0183037184536457,0.0142718125134706,0.0240317583084106,-0.0145665416494011,standing,2026-03-04_13-58-09
1772632693771627800,4.548627685546875,0.036313751190342,0.0585449818186461,0.0708113198041915,0.0081697320565581,0.0196262318640947,-0.0077545386739075,standing,2026-03-04_13-58-09
1772632693781576700,4.55857666015625,0.0928695502194575,0.0178435535959899,0.1341372522890567,0.0044953683391213,0.0021838585380464,-0.0024002532009035,standing,2026-03-04_13-58-09
1772632693791525600,4.568525634765625,0.1067920396478846,0.0143614105686545,0.1512906316637992,0.0032843437511473,-0.0196207854896783,-0.0032352695707231,standing,2026-03-04_13-58-09
1772632693801474800,4.578474853515625,0.0653390624055638,-0.0062801031827926,0.1279758070498705,0.0010843062773346,-0.0455509200692176,-0.0123081263154745,standing,2026-03-04_13-58-09
1772632693811423700,4.588423828125,0.0079633252956904,-0.032641163624823,0.0809574507653713,-0.0024107163771986,-0.0573608353734016,-0.0196922849863767,standing,2026-03-04_13-58-09
1772632693821372000,4.598371826171875,-0.0262229123466648,-0.0309951499834656,-0.0138841484457254,-0.0086081586778163,-0.0377722196280956,-0.0195418167859315,standing,2026-03-04_13-58-09
1772632693831320800,4.60832080078125,-0.0365620816619135,0.0155061966896057,-0.0982417630434036,-0.0081507181748747,-0.0058912513777613,-0.0155839109793305,standing,2026-03-04_13-58-09
1772632693841269800,4.618269775390625,-0.0393061562056653,0.0762811295174062,-0.1727542754530906,-0.0089528625831007,0.0209068078547716,-0.0058620413765311,standing,2026-03-04_13-58-09
1772632693851218700,4.62821875,-0.0062300717622973,0.079057462362945,-0.2047702929168939,0.0015175105072557,0.0412740036845207,0.0065091699361801,standing,2026-03-04_13-58-09
1772632693861167600,4.638167724609375,0.0168960436128079,0.0782557905912399,-0.1961614545255899,0.017643216997385,0.0490365847945213,0.0108346762135624,standing,2026-03-04_13-58-09
1772632693871116500,4.648116455078125,-0.0096297789368778,0.0680674279235303,-0.1191524491250514,0.0351034589111804,0.0379710048437118,0.010167958214879,standing,2026-03-04_13-58-09
1772632693881064700,4.658064697265625,-0.037721882688906,0.0301753580331802,-0.047425183519721,0.0456466451287269,0.0128113254904747,0.0010314513929188,standing,2026-03-04_13-58-09
1772632693891013600,4.668013671875,-0.0659374666901305,-0.0525450107514858,0.0707739104032516,0.0457863733172416,-0.0147957988083362,-0.0118719134479761,standing,2026-03-04_13-58-09
1772632693900962800,4.677962890625,-0.0613416085335426,-0.0769805099584162,0.1603659185230732,0.0367430783808231,-0.0294386558234691,-0.0206630080938339,standing,2026-03-04_13-58-09
1772632693910911700,4.687911865234375,-0.0558636885791085,-0.0671142188519239,0.2277922720640897,0.0136500308290123,-0.0267681721597909,-0.0237641055136919,standing,2026-03-04_13-58-09
1772632693920860700,4.697860595703125,-0.0363126917444169,-0.0427183210030198,0.2516156307220459,-0.012496618553996,-0.016087032854557,-0.0205744393169879,standing,2026-03-04_13-58-09
1772632693930809900,4.707809814453125,0.0083173446314409,-0.0196446116685867,0.2605915488600731,-0.0358082689344882,-0.0128777772188186,-0.014482494443655,standing,2026-03-04_13-58-09
1772632693940757800,4.7177578125,0.029057587783318,0.0160030402958393,0.2107593041986226,-0.0489930473268032,-0.0086880913004279,-0.0144899524748325,standing,2026-03-04_13-58-09
1772632693950706700,4.727706787109375,0.0305191299695521,0.017368775691092,0.1074649339407682,-0.0540865436196327,0.0086385644972324,-0.0133427325636148,standing,2026-03-04_13-58-09
1772632693960655600,4.737655517578125,0.0135101640341803,0.0449985408946871,0.0030763387054204,-0.0481476932764053,0.0257826633751392,-0.0107480157166719,standing,2026-03-04_13-58-09
1772632693970604500,4.7476044921875,-0.0018791830764152,0.0901174932986497,-0.0792336957126855,-0.0329284593462944,0.0270121209323406,-0.0096833370625972,standing,2026-03-04_13-58-09
1772632693980553700,4.7575537109375,0.0113445104328915,0.0411116164587438,-0.1266641399294137,-0.0123456846922636,0.0075875548645854,-0.011429039761424,standing,2026-03-04_13-58-09
1772632693990503000,4.7675029296875,0.0453829553687013,0.0327200740799307,-0.1429769768267869,0.0105419903993606,-0.0046136062592267,-0.0087892916053533,standing,2026-03-04_13-58-09
1772632694000451800,4.777451904296875,0.0722016416514292,0.0574408199690282,-0.1753466300338506,0.0287825129926204,-0.0070690410211682,-0.0057191997766494,standing,2026-03-04_13-58-09
1772632694010399700,4.787399658203125,0.0765768793272785,0.0719951227612793,-0.1535708515554666,0.0342396609485149,-0.0116125214844942,-0.0014989430783316,standing,2026-03-04_13-58-09
1772632694020348700,4.7973486328125,0.0747362746955826,0.0721999976836144,-0.0758276866614818,0.0294470377266407,-0.0114894835278391,0.0025938029866665,standing,2026-03-04_13-58-09
1772632694030297900,4.8072978515625,0.0739062170796096,0.0508002129107713,-0.0206751237601041,0.0165306814014911,-0.00468469876796,0.0030748981516808,standing,2026-03-04_13-58-09
1772632694040246800,4.817246826171875,0.0387298541550524,0.0322854820549488,-3.97474884986e-05,0.0035328576341271,0.0137995025143027,0.002868236741051,standing,2026-03-04_13-58-09
1772632694050195700,4.82719580078125,0.0228440470307134,0.034083909779042,-0.0033487259060144,-0.0037356843240559,0.0342511087656021,0.0079872366040945,standing,2026-03-04_13-58-09
1772632694060144600,4.83714453125,0.0141986760213039,0.0372336059816181,-0.0002723872005939,-0.0113142412155866,0.0401779748499393,0.0107894148677587,standing,2026-03-04_13-58-09
1772632694070092800,4.8470927734375,0.0220716196198016,0.0146690152131021,0.0311345584541559,-0.0105413477867841,0.0312422662973403,0.0126850940287113,standing,2026-03-04_13-58-09
1772632694080041700,4.857041748046875,0.0199878538819961,-0.0239101601585745,0.0130786772817373,0.0006023840978741,0.0205304995179176,0.0101753305643796,standing,2026-03-04_13-58-09
1772632694089990700,4.86699072265625,-0.0435765452675521,-0.0192084122084081,-0.0148936177492141,0.0144789814949035,0.0108849396929144,0.0039532082155346,standing,2026-03-04_13-58-09
1772632694099939800,4.87693994140625,-0.0461831841019913,-0.0356138958252966,-0.0141968676567077,0.0268046241253614,0.0030304789543151,0.0001877651084214,standing,2026-03-04_13-58-09
1772632694109888800,4.886888671875,-0.0556349213245324,-0.0415833256237208,0.0010287585258483,0.0298378095030784,-0.0007979520596563,-0.0065279570408165,standing,2026-03-04_13-58-09
1772632694119837700,4.896837646484375,-0.0897753287974745,-0.0470097345866262,0.0662695847213268,0.0257743597030639,-0.0009529481176286,-0.0100957937538623,standing,2026-03-04_13-58-09
1772632694129785900,4.906785888671875,-0.0852277667620219,-0.0324321970492601,0.112340431022644,0.0134125873446464,0.0011064717546105,-0.0139058949425816,standing,2026-03-04_13-58-09
1772632694139734800,4.91673486328125,-0.0784809959155507,-0.038044191712141,0.1225198797315359,0.0034044275525957,0.000448671169579,-0.0155016612261533,standing,2026-03-04_13-58-09
1772632694149683700,4.92668359375,-0.0801432848382741,-0.0439990084633231,0.1152016656726598,-0.0047933817841112,-0.0018481613369658,-0.0186108145862817,standing,2026-03-04_13-58-09
1772632694159632600,4.936632568359375,-0.0677897434933111,-0.0378644512310624,0.0614069471210241,-0.0037784515880048,-0.0022335206158459,-0.020687548443675,standing,2026-03-04_13-58-09
1772632694169581600,4.94658154296875,-0.065285395989567,-0.0057949500143527,-0.0100835871189832,-0.0012894594110548,0.0035711145028471,-0.0212625078856945,standing,2026-03-04_13-58-09
1772632694179530500,4.956530517578125,-0.0632390031200833,0.0361387964822351,-0.0634071810275316,0.0051559228450059,0.0132967121899127,-0.0194057524204254,standing,2026-03-04_13-58-09
1772632694189478700,4.966478759765625,-0.0394801245330832,0.0653010319501161,-0.0558095655053854,0.0114118866622447,0.0157807599753141,-0.0200832225382328,standing,2026-03-04_13-58-09
1772632694199427600,4.976427490234375,0.0006219495569355,0.054819969946146,-0.033749124866724,0.0128372097387909,0.0130161326378583,-0.0184208769351243,standing,2026-03-04_13-58-09
1772632694209376800,4.986376708984375,0.0030726671773009,0.0568687191694974,0.0241138660371303,0.0072268401272594,0.0100838560611009,-0.0170477796345949,standing,2026-03-04_13-58-09
1772632694219325700,4.99632568359375,0.0217437941712327,0.0596013590037822,0.0677373191863298,-0.0016097947955131,-0.0014953024219721,-0.0188209116458892,standing,2026-03-04_13-58-09
1772632694229274600,5.006274658203125,0.0312729440115392,0.0511857050970196,0.1182528699368238,-0.0094206891953945,-0.0047543505206704,-0.0157649219036102,standing,2026-03-04_13-58-09
1772632694239223800,5.016223876953125,0.0388248754947446,0.0578138910651206,0.0684112729251384,-0.0083255972713232,0.0100906426087021,-0.0114479381591081,standing,2026-03-04_13-58-09
1772632694249171700,5.026171630859375,0.0436174800661392,0.0997070132903754,-0.0156131641954183,-0.0044633937068283,0.020615192130208,-0.0009821489220485,standing,2026-03-04_13-58-09
1772632694259120600,5.03612060546875,0.0686807009836658,0.1081897410839796,-0.0377963544309139,0.004489354789257,0.0250917002558708,0.0083607528358697,standing,2026-03-04_13-58-09
1772632694269069600,5.046069580078125,0.1036813237488269,0.0778688371002674,-0.0197469029992818,0.0162101034075021,0.0204018764197826,0.0113274306058883,standing,2026-03-04_13-58-09
1772632694279018800,5.056018798828125,0.0689886709542944,0.0284191620156168,0.0369528893440961,0.0207420047372579,-0.0011508194729685,0.009498905390501,standing,2026-03-04_13-58-09
1772632694288967700,5.0659677734375,0.0354865431185811,-0.0124193365901708,0.1240717853486537,0.0162049327045679,-0.0364194586873054,-0.0043729399330914,standing,2026-03-04_13-58-09
1772632694298916900,5.075916748046875,-0.0215618434667587,-0.068895987702161,0.1958575031429529,0.0013761851005256,-0.0672026723623275,-0.0165529064834117,standing,2026-03-04_13-58-09
1772632694308865800,5.08586572265625,-0.0335335093546658,-0.0871560131445527,0.1733452270835637,-0.0138129517436027,-0.068341314792633,-0.0208232458680868,standing,2026-03-04_13-58-09
1772632694318813700,5.095813720703125,-0.0659990789505653,-0.0357727396488189,0.0118242933064699,-0.0200474113225936,-0.0352861620485782,-0.0191569067537784,standing,2026-03-04_13-58-09
1772632694328763000,5.105762939453125,-0.0817431212503463,0.0307902750611305,-0.1780132188946008,-0.0168219041079282,0.0106487153097987,-0.0101263504475355,standing,2026-03-04_13-58-09
1772632694338711800,5.1157119140625,-0.0665668323685415,0.0779313809424638,-0.282766555789113,-0.0040254150517284,0.0479327030479908,0.0032483115792274,standing,2026-03-04_13-58-09
1772632694348660700,5.12566064453125,-0.0624010544585995,0.0941954102620482,-0.3092792996615171,0.014168856665492,0.0591590031981468,0.0111505426466465,standing,2026-03-04_13-58-09
1772632694358609700,5.135609619140625,-0.0423375780571252,0.0716395873218774,-0.2042699421793222,0.0343060828745365,0.0391376204788684,0.0097531825304031,standing,2026-03-04_13-58-09
1772632694368558600,5.14555859375,-0.029056893663574,0.0173503632515668,-0.077369655406475,0.0505647286772728,0.0101533718407154,0.0012252493761479,standing,2026-03-04_13-58-09
1772632694378506800,5.1555068359375,-0.0657413961287587,-0.0373740373656153,0.0285498026579618,0.0591848492622375,-0.0187350008636713,-0.0113115813583135,standing,2026-03-04_13-58-09
1772632694388455700,5.16545556640625,-0.0832863869032822,-0.065396309018135,0.1246311727970838,0.0533916279673576,-0.0432688556611537,-0.0205387100577354,standing,2026-03-04_13-58-09
1772632694398404600,5.175404541015625,-0.0593033624378964,-0.0772980514749884,0.1928156512290239,0.0358539149165153,-0.0463922098278999,-0.0231560636311769,standing,2026-03-04_13-58-09
1772632694408353800,5.185353759765625,-0.0205505292660556,-0.0499677076093852,0.1999889038592577,0.0130403423681855,-0.0300547704100608,-0.0200051218271255,standing,2026-03-04_13-58-09
1772632694418302700,5.195302734375,-0.0240544274674728,-0.0081511577516794,0.168941439166665,-0.0131068378686904,-0.0152340121567249,-0.0168623253703117,standing,2026-03-04_13-58-09
1772632694428251600,5.205251708984375,-0.011678071502503,-0.0021636077746748,0.1412093826323747,-0.0285221021622419,-0.0020279423333704,-0.0184350367635488,standing,2026-03-04_13-58-09
1772632694438199800,5.21519970703125,-0.0179806422454304,0.0083237378396093,0.0657137044042348,-0.0330795645713806,0.016203524544835,-0.0181562043726444,standing,2026-03-04_13-58-09
1772632694448148700,5.225148681640625,-0.0356775356460362,0.0490675438992679,-0.0315162512481212,-0.0279367845505476,0.0284575447440147,-0.0172888226807117,standing,2026-03-04_13-58-09
1772632694458097700,5.23509765625,0.0042093795896507,0.075907473899424,-0.1042541552007198,-0.0137424021959304,0.0320426933467388,-0.0131555953994393,standing,2026-03-04_13-58-09
1772632694468046600,5.245046630859375,0.0570202564693987,0.0920339944444596,-0.0982663129627704,0.0051099159754812,0.0194892063736915,-0.0129389008507132,standing,2026-03-04_13-58-09
1772632694477995500,5.25499560546875,0.0800780375823378,0.0890729526817798,-0.0773988815009593,0.0206699669361114,-0.0025652283802628,-0.0110174305737018,standing,2026-03-04_13-58-09
1772632694487944700,5.26494482421875,0.1280335651190951,0.0981847721591591,-0.0461152699649333,0.0327199064195156,-0.018056433647871,-0.0038707670755684,standing,2026-03-04_13-58-09
1772632694497892600,5.274892578125,0.1589229166405275,0.0977066332533955,-0.0138321259975433,0.0307467691600322,-0.0290619488805532,0.0038167133461683,standing,2026-03-04_13-58-09
1772632694507841800,5.284841796875,0.1542397272603586,0.1015324751518666,0.0379985990047454,0.022110691294074,-0.0280436798930168,0.008282471448183,standing,2026-03-04_13-58-09
1772632694517790700,5.294790771484375,0.1246130160858854,0.0919039383240044,0.0722165104269981,0.0059524946846067,-0.0197250302881002,0.0118050351738929,standing,2026-03-04_13-58-09
1772632694527739600,5.30473974609375,0.0888391987248323,0.107541798569262,0.0830810187906026,-0.0137590244412422,-0.0013572126626968,0.0168848745524883,standing,2026-03-04_13-58-09
1772632694537688800,5.314688720703125,0.0528792842071503,0.1041644310906529,0.0853922183424234,-0.0292013622820377,0.0198346264660358,0.0238623563200235,standing,2026-03-04_13-58-09
1772632694549503700,5.326503662109375,0.0484455760760232,0.0963848831303417,0.0363952554613351,-0.0308031663298606,0.0369121357798576,0.0283320061862468,standing,2026-03-04_13-58-09
1772632694559452000,5.336451904296875,0.0463700119109824,0.0976318144515156,-0.0142629186302423,-0.0203079134225845,0.0323544032871723,0.0311235301196575,standing,2026-03-04_13-58-09
1772632694569400800,5.34640087890625,0.0272574795587919,0.0779138452857732,-0.0397188469260931,0.0003004460595548,0.0171438958495855,0.0323958955705165,standing,2026-03-04_13-58-09
1772632694579349800,5.356349853515625,0.0462753924300894,0.0360835591636598,-0.049314358267188,0.020962581038475,-0.0077737038955092,0.0336180180311203,standing,2026-03-04_13-58-09
1772632694589298700,5.366298583984375,0.0464892361101694,0.0156888597801327,-0.0386579396963119,0.0354010425508022,-0.0244472175836563,0.0308319609612226,standing,2026-03-04_13-58-09
1772632694599247600,5.37624755859375,0.0423320068328641,0.0260600316688418,0.0013747954845428,0.0320212244987487,-0.0206892304122447,0.0256771463900804,standing,2026-03-04_13-58-09
1772632694609196500,5.386196533203125,0.0082666738901287,-0.005233955130726,0.0360316828459501,0.0142073184251785,0.0013192570768296,0.0322171673178672,standing,2026-03-04_13-58-09
1772632694619145700,5.396145751953125,-0.0174499694348312,0.0185071320712566,0.0792284350156784,-0.0086457999423146,0.0128720495849847,0.037242017686367,standing,2026-03-04_13-58-09
1772632694629093600,5.40609375,-0.0182628384539857,0.0095770989015698,0.1431499953061342,-0.0299927629530429,-0.0041615320369601,0.0286361388862133,standing,2026-03-04_13-58-09
1772632694639042600,5.41604248046875,-0.0568038189734332,-0.0452336648248136,0.1632499495267868,-0.0425948426127433,-0.008670262992382,0.0174300894141197,standing,2026-03-04_13-58-09
1772632694648991700,5.42599169921875,-0.0959674431695602,-0.0669699880756437,0.0954226139694452,-0.0398812182247638,0.0066093690693378,0.0155077120289206,standing,2026-03-04_13-58-09
1772632694658940700,5.435940673828125,-0.1018003688404336,-0.0075875325195491,-0.0293985284417867,-0.0302711986005306,0.0138398511335253,0.0182715393602848,standing,2026-03-04_13-58-09
1772632694668889900,5.445889892578125,-0.0657215771834366,0.0126246499039232,-0.1149351236909627,-0.0143786091357469,0.0172950308769941,0.0178724993020296,standing,2026-03-04_13-58-09
1772632694678838800,5.4558388671875,-0.0187351321408525,0.0344713016614317,-0.1403238319694995,0.0045846961438655,0.0167160592973232,0.0233647357672452,standing,2026-03-04_13-58-09
1772632694688786700,5.46578662109375,0.0093904172230511,0.0482446832090616,-0.1443459270924329,0.0241603069007396,0.0149120325222611,0.0224632993340492,standing,2026-03-04_13-58-09
1772632694698735600,5.475735595703125,0.0179087643193081,0.0521663866974413,-0.1132698208272457,0.0314866602420806,-0.0022405888885259,0.0175135470926761,standing,2026-03-04_13-58-09
1772632694708684800,5.485684814453125,0.019387915227469,0.0477500315599143,-0.0076496379703283,0.0268717817962169,-0.0171426925808191,0.0133808571845293,standing,2026-03-04_13-58-09
1772632694718633700,5.4956337890625,0.037526067855861,0.0236098620377481,0.0759855075716972,0.0134222842752933,-0.0161370821297168,0.0183127652853727,standing,2026-03-04_13-58-09
1772632694728582700,5.505582763671875,0.0430967441276647,0.0378657664053142,0.1110679268687963,-0.0013248808681964,-0.004792827181518,0.0243376996368169,standing,2026-03-04_13-58-09
1772632694738531800,5.51553173828125,0.0061263191268779,0.0573243539825081,0.0785515586674213,-0.0099178375676274,0.0115925371646881,0.0238532721996307,standing,2026-03-04_13-58-09
1772632694748479500,5.5254794921875,-0.0187748796293511,0.0502281121112406,0.01894844609797,-0.0069287489168345,0.0362265110015869,0.0251986589282751,standing,2026-03-04_13-58-09
1772632694758429000,5.535428955078125,0.0151983728494495,0.058237523304671,-0.0241296481281518,-0.004070911090821,0.0444269180297851,0.0288426615297794,standing,2026-03-04_13-58-09
1772632694768377900,5.5453779296875,0.044308129211422,0.0741825498029589,0.0321592253267765,-0.0060732741840183,0.0256014298647642,0.0305169206112623,standing,2026-03-04_13-58-09
1772632694778326800,5.555326904296875,0.0732977480587549,0.0287950095906853,0.1383592538982629,-0.009867213666439,-0.0136226713657379,0.0273339115083217,standing,2026-03-04_13-58-09
1772632694788275700,5.565275634765625,0.0571418004898354,-0.0237742588192224,0.2043342395871877,-0.0160991661250591,-0.0507480651140213,0.0229857545346021,standing,2026-03-04_13-58-09
1772632694798224600,5.575224609375,0.0305571421586908,-0.0446053037934005,0.1733119093358516,-0.0200859177857637,-0.0574504435062408,0.0185734294354915,standing,2026-03-04_13-58-09
1772632694808173600,5.585173583984375,-0.0159202025842852,-0.0158399586886167,0.0477665443032979,-0.0224156733602285,-0.0378233417868614,0.0189229510724544,standing,2026-03-04_13-58-09
1772632694818121700,5.595121826171875,-0.05990973083321,0.0100188513197004,-0.0743529379338026,-0.0246881507337093,-0.0058081522583961,0.0229626968502998,standing,2026-03-04_13-58-09
1772632694828070700,5.605070556640625,-0.0755335808194242,0.0430881772287189,-0.1603179877281189,-0.0209474265575408,0.0212229490280151,0.0294821895658969,standing,2026-03-04_13-58-09
1772632694838019600,5.61501953125,-0.0829492273707874,0.0650387277521193,-0.2005044521659612,-0.0099592227488756,0.0383223071694374,0.0343749485909938,standing,2026-03-04_13-58-09
1772632694847968800,5.62496875,-0.098946495512966,0.0668967767089605,-0.194844526708126,0.0057559316046535,0.0410761348903179,0.0363728106021881,standing,2026-03-04_13-58-09
1772632694857917700,5.634917724609375,-0.0865181536324322,0.0504049299828708,-0.1680968050360679,0.0251120515167713,0.0331519022583961,0.0361538976430892,standing,2026-03-04_13-58-09
1772632694867867000,5.644866943359375,-0.087499237091653,0.0146812901727855,-0.092384853708744,0.0419151559472084,0.0119018666446208,0.0277345925569534,standing,2026-03-04_13-58-09
1772632694877814800,5.654814697265625,-0.0935765294450335,-0.0200726278223097,-0.00039162966609,0.0498995780944824,-0.009113136678934,0.017642542719841,standing,2026-03-04_13-58-09
1772632694887763700,5.664763671875,-0.0824795457661151,-0.0606365472704172,0.1287426997691393,0.0437219105660915,-0.0291362553834915,0.0063479905948042,standing,2026-03-04_13-58-09
1772632694898333700,5.675333740234375,-0.0884813982631079,-0.0891235138252377,0.2409077742248773,0.0228379368782043,-0.0360474251210689,-0.0038998536765575,standing,2026-03-04_13-58-09
1772632694908283000,5.685282958984375,-0.075883545034565,-0.1080925643198192,0.2740828985959291,-0.0064279185608029,-0.0304130874574184,-0.005742167122662,standing,2026-03-04_13-58-09
1772632694918231800,5.695231689453125,-0.0516441163890063,-0.0681537910327315,0.2840677015155554,-0.0337128043174743,-0.0176456272602081,-0.0064154146239161,standing,2026-03-04_13-58-09
1772632694928180700,5.7051806640625,-0.0374455499655567,-0.0285467339180409,0.2267524076223373,-0.0507010631263256,0.0013059575576335,-0.0101270200684666,standing,2026-03-04_13-58-09
1772632694938129700,5.715129638671875,-0.0423898014347068,-0.0111161450371146,0.1192985795974731,-0.0564026236534118,0.0231276340782642,-0.0138530489057302,standing,2026-03-04_13-58-09
1772632694948078600,5.72507861328125,-0.0548388390433974,0.0052631812252104,0.0213595988929271,-0.0485938377678394,0.0372700802981853,-0.0151927601546049,standing,2026-03-04_13-58-09
1772632694958026800,5.73502685546875,-0.0320235979820601,0.0088224811419844,-0.0541565376013517,-0.0378871299326419,0.0266363434493541,-0.0150074046105146,standing,2026-03-04_13-58-09
1772632694967975700,5.7449755859375,0.0319588256501592,0.0061447863653302,-0.0363490782320499,-0.0236859358847141,0.0036520680878311,-0.0124805681407451,standing,2026-03-04_13-58-09
1772632694977924900,5.7549248046875,0.1043074014916084,-0.0019572715476155,-0.033836803150177,-0.0106806540861725,-0.0151583710685372,-0.0044820299372076,standing,2026-03-04_13-58-09
1772632694987873800,5.764873779296875,0.0939550256349146,0.0055571957357227,-0.0479413163483142,-0.0019852095283567,-0.0265423078089952,-0.0046485029160976,standing,2026-03-04_13-58-09
1772632694997822700,5.77482275390625,0.0609086239437572,-0.0068058806225657,-0.0672299541860818,0.0036937152035534,-0.024143598973751,-0.0032372935675084,standing,2026-03-04_13-58-09
1772632695007771600,5.784771728515625,0.0271849075129255,-0.0115612584561109,-0.1256400575786828,0.0047419355250895,-0.0084005882963538,-0.0076195253059268,standing,2026-03-04_13-58-09
1772632695017719800,5.7947197265625,-0.0317942644719034,-0.0161854111254215,-0.1368938575208187,-0.0011721462942659,0.010184814222157,-0.0083979666233062,standing,2026-03-04_13-58-09
1772632695027668700,5.804668701171875,-0.0299465907786041,0.0128222183026373,-0.1133516538918018,-0.0075390343554317,0.0209345128387212,-0.0039627007208764,standing,2026-03-04_13-58-09
1772632695037617700,5.81461767578125,0.0022598712233826,0.0290695887483656,-0.0897661956429481,-0.0074937609024345,0.0293024312704801,0.0012017011176794,standing,2026-03-04_13-58-09
1772632695047566600,5.824566650390625,0.019370580500178,0.0333572029396891,-0.0730114601969718,0.0009504347108304,0.0366049483418464,0.0083075184375047,standing,2026-03-04_13-58-09
1772632695057515500,5.834515625,0.0432289374062791,0.0480193500205874,-0.0900765767663717,0.0099276844412088,0.0208925660699605,0.006482720375061,standing,2026-03-04_13-58-09
1772632695067464700,5.844464599609375,0.0290319784180261,0.0170266842551529,-0.0366086059510707,0.0170227028429508,0.007926182821393,0.0066788448020815,standing,2026-03-04_13-58-09
1772632695077414000,5.854413818359375,0.0036429596122354,0.0008043021202087,0.0106225163012743,0.0229413118213415,-0.0007815556600689,0.0085758147761225,standing,2026-03-04_13-58-09
1772632695087361800,5.86436181640625,-0.0084670187678188,-0.0109555476479232,0.0503553917527198,0.0230026505887508,-0.0150787569582462,0.0119088124483823,standing,2026-03-04_13-58-09
1772632695097310700,5.874310791015625,-0.0259483514552935,-0.0275166602179408,0.1082815110206604,0.0157913453876972,-0.0109231602400541,0.0009078262373805,standing,2026-03-04_13-58-09
1772632695107259600,5.884259765625,-0.1175776192900724,-0.1187897532925009,0.1311795715272426,0.0033891380298882,-0.0013341596350073,-0.0222204886376857,standing,2026-03-04_13-58-09
1772632695117208800,5.894208740234375,-0.2214061694898642,-0.11302388324216,0.164049575471878,-0.0144633632153272,0.0064444011077284,-0.035469714552164,standing,2026-03-04_13-58-09
1772632695127157800,5.90415771484375,-0.1672672954093664,-0.0658817544475197,0.1804196955144405,-0.0303663853555917,0.0026949252933263,-0.0301311165094375,standing,2026-03-04_13-58-09
1772632695137106700,5.914106689453125,-0.0392335476271808,-0.0388902871474623,0.1807417670756578,-0.0426017455756664,-0.008121769875288,-0.0211035329848527,standing,2026-03-04_13-58-09
1772632695147054600,5.9240546875,0.0430560833237133,0.0430810168355703,0.1244528936207294,-0.0410266444087028,-0.0062377108260989,-0.0111877992749214,standing,2026-03-04_13-58-09
1772632695157003500,5.93400341796875,0.0348757177438586,0.0679420479781925,0.0221036952584981,-0.0304597523063421,0.005247171036899,-0.0037783521693199,standing,2026-03-04_13-58-09
1772632695166952700,5.94395263671875,0.0101354086377657,0.0672917673759162,-0.1079132622301578,-0.0109858298674225,0.0126150688156485,-0.0032978344243019,standing,2026-03-04_13-58-09
1772632695176902000,5.95390185546875,0.0069774743298068,0.0669486530266702,-0.1559860960036516,0.0098550021648406,0.0063417265191674,-0.0021473488304764,standing,2026-03-04_13-58-09
1772632695186850800,5.963850830078125,0.0311356909653171,0.0440972081407904,-0.1289051968544721,0.0239988081157207,-0.0124573837965726,-0.0025077706668525,standing,2026-03-04_13-58-09
1772632695196799700,5.9737998046875,0.0477760610503144,0.0405605584472417,-0.044472763454914,0.0287197940051555,-0.0352551080286502,-0.0028555796016007,standing,2026-03-04_13-58-09
1772632695206748700,5.983748779296875,0.0319144933180883,0.0496885984070599,0.0329664500564336,0.0232327487319707,-0.0472635738551616,-0.003932436928153,standing,2026-03-04_13-58-09
1772632695216696800,5.99369677734375,0.0285780241054482,0.0215972070410847,0.0409884284704923,0.0102136200293898,-0.0345400534570217,-0.0042283139191567,standing,2026-03-04_13-58-09
1772632695226645800,6.003645751953125,-0.0053545127704739,0.0322391586951911,0.0345633638590574,-0.0045331032015383,-0.0059720696881413,-0.003448290284723,standing,2026-03-04_13-58-09
1772632695236594700,6.0135947265625,-0.0341720629865303,0.0377573375947773,-0.0095703768998384,-0.015402527526021,0.0269107781350612,0.0023291711695492,standing,2026-03-04_13-58-09
1772632695246543600,6.023543701171875,-0.0175833682898432,0.0456406381905078,-0.0317962372332811,-0.0168559458106756,0.0446908585727214,0.0083925472572445,standing,2026-03-04_13-58-09
1772632695256492500,6.033492431640625,0.0173673143863677,0.0600965951748192,0.0102905078679323,-0.0143003780394792,0.0336174331605434,0.013097021728754,standing,2026-03-04_13-58-09
1772632695266441700,6.043441650390625,0.0262932741691358,0.0333289997585117,0.0686649554252624,-0.0086006140336394,0.0032950770109891,0.0095972903072834,standing,2026-03-04_13-58-09
1772632695276389600,6.0533896484375,0.024593776774872,-0.015424509755522,0.1161100126892328,-0.0062205465510487,-0.0410769134759902,-0.0012630800483748,standing,2026-03-04_13-58-09
1772632695286338800,6.0633388671875,0.0144400287628173,-0.0446373063668608,0.1484972015529871,-0.0069660334847867,-0.0734533742070198,-0.0121500277891755,standing,2026-03-04_13-58-09
1772632695296287700,6.073287841796875,-0.0322656083106994,-0.0680941697999834,0.1299187578111887,-0.0126348379999399,-0.0701438635587692,-0.0178065821528434,standing,2026-03-04_13-58-09
1772632695306236700,6.083236572265625,-0.0324243790689855,-0.0318177184127271,0.0191939452916383,-0.0148717798292636,-0.0338653326034545,-0.0096133630722761,standing,2026-03-04_13-58-09
1772632695316185600,6.093185546875,-0.0373098860882222,0.0386386504739522,-0.1075672252714633,-0.0160403754562139,0.0014005138073116,0.0019950894638895,standing,2026-03-04_13-58-09
1772632695326134800,6.103134765625,0.002108224325627,0.1002082408107817,-0.1574760423004627,-0.0115328440442681,0.0234123151749372,0.0091233979910612,standing,2026-03-04_13-58-09
1772632695336083700,6.113083740234375,0.0211704695289954,0.0959893079414963,-0.1652297251671552,0.004622689448297,0.0420757457613945,0.0155690480023622,standing,2026-03-04_13-58-09
1772632695346031600,6.123031494140625,-0.0092124303076416,0.085839523718506,-0.1784048485606908,0.0261440053582191,0.0419042371213436,0.0130326952785253,standing,2026-03-04_13-58-09
1772632695355980500,6.13298046875,-0.0391451934902928,0.0517658430725336,-0.1095551842182874,0.0374781526625156,0.0063893869519233,-0.0009052249370142,standing,2026-03-04_13-58-09
1772632695365929700,6.1429296875,-0.0524026796713471,-0.0054331309646368,0.05581950237751,0.033668965101242,-0.0362157188355922,-0.0173813160508871,standing,2026-03-04_13-58-09
1772632695375879000,6.15287890625,-0.0177503223545849,-0.0639165918543934,0.1773603079438209,0.0241055563092231,-0.0446281135082244,-0.0222549010068178,standing,2026-03-04_13-58-09
1772632695385827800,6.162827880859375,0.0175181940991431,-0.063576107853651,0.1545586935490369,0.0089363232254982,-0.022252494469285,-0.0167318973690271,standing,2026-03-04_13-58-09
1772632695395776800,6.17277685546875,0.0342735323333181,-0.0048101767607033,0.1121153900951147,-0.009522046893835,-0.0103825191035866,-0.0095733199268579,standing,2026-03-04_13-58-09
1772632695405724700,6.182724609375,0.0383726930141448,0.0289493233695626,0.110199327340722,-0.0238127037882804,-0.0067654186859726,-0.0063923150300979,standing,2026-03-04_13-58-09
1772632695415673900,6.192673828125,0.0278398277577012,0.0331137495726346,0.0559843375504016,-0.0220281183719635,0.0139547726139426,-0.0039970683865249,standing,2026-03-04_13-58-09
1772632695425622800,6.202622802734375,0.003787336518988,0.0490001777514815,-0.0459919358462095,-0.009074680507183,0.038483016192913,-0.0023969577159732,standing,2026-03-04_13-58-09
1772632695435571700,6.21257177734375,-0.0147172200026921,0.0632930531285703,-0.0919639979481697,0.0042893285863101,0.0354028046131134,-0.0036622253246605,standing,2026-03-04_13-58-09
1772632695445520600,6.222520751953125,0.0184268333766609,0.0640384646683931,-0.0002139350116252,0.0058844285085797,-0.0095638763159513,-0.0116851394996047,standing,2026-03-04_13-58-09
1772632695455469600,6.232469482421875,0.056372277422063,0.0158807290904223,0.1356201843231916,0.0042529762722551,-0.0359193161129951,-0.0140747940167784,standing,2026-03-04_13-58-09
1772632695465418800,6.242418701171875,0.0733822662707418,-0.002319967380166,0.1186468376904726,0.0067411926575005,-0.0174682531505823,-0.0071298824623227,standing,2026-03-04_13-58-09
1772632695475367000,6.252366943359375,0.0529497738937847,0.0452210976041853,0.0037958851516246,0.0024934508837759,-0.0031084883958101,-0.0049412967637181,standing,2026-03-04_13-58-09
1772632695485315800,6.26231591796875,0.0469800335681065,0.0764238989889621,-0.0048369186371564,-0.0075356159359216,-0.0074577019549906,-0.0035557954106479,standing,2026-03-04_13-58-09
1772632695495264800,6.2722646484375,0.0483805114831775,0.0507724481210112,0.0567868861049413,-0.0236530676484107,-0.0019473554566502,0.0005856864154338,standing,2026-03-04_13-58-09
1772632695505213700,6.282213623046875,0.0412777485395781,0.0402661055453121,0.0594844546258449,-0.0311401896178722,0.009211809374392,0.0072130300104618,standing,2026-03-04_13-58-09
1772632695515162600,6.29216259765625,0.0190108803423121,0.0554506690651178,0.0155488667875528,-0.030193168669939,0.0055502299219369,0.0064833238720893,standing,2026-03-04_13-58-09
1772632695525111600,6.302111572265625,-0.0011072488558478,0.0595313625074923,-0.0576917259901762,-0.0152037236839532,0.0160277765244245,0.0092434110119938,standing,2026-03-04_13-58-09
1772632695535060700,6.312060791015625,0.0360353726403787,0.0676164692856371,-0.1534258901268243,0.0050807753577828,0.0308181755244731,0.0140642644837498,standing,2026-03-04_13-58-09
1772632695545008600,6.322008544921875,0.0423113476373255,0.088365681195259,-0.1716565433442592,0.0215126816183328,0.0317320488393306,0.0193280894309282,standing,2026-03-04_13-58-09
1772632695554957600,6.33195751953125,0.0451020743343979,0.0432689406231045,-0.0543231263399124,0.0270632430911064,0.0143117811530828,0.018049506470561,standing,2026-03-04_13-58-09
1772632695564906500,6.341906494140625,0.0402613380386494,0.000930558848381,0.0778618228375911,0.0249047707766294,-0.0210817642509937,0.0140008563175797,standing,2026-03-04_13-58-09
1772632695574855700,6.351855712890625,0.0426475755880586,-0.0307788768842816,0.1723077007293701,0.0154524147510528,-0.0350316651165485,0.0095669599249959,standing,2026-03-04_13-58-09
1772632695584804900,6.361804931640625,-0.0211964807530865,-0.0662979340329766,0.2088940948486328,0.0016547748818993,-0.0370488874614238,0.0067829452455043,standing,2026-03-04_13-58-09
1772632695594753800,6.37175390625,-0.0519657130261883,-0.0442095824740827,0.1927273884236812,-0.0113803334534168,-0.0272607058286666,-0.0012094670673832,standing,2026-03-04_13-58-09
1772632695604701700,6.38170166015625,-0.0745183576285839,-0.0377044383637607,0.1282809274762869,-0.0263717733323574,-0.0093393521383404,-0.0088381879031658,standing,2026-03-04_13-58-09
1772632695614650600,6.391650634765625,-0.097146058494877,-0.0174064773529767,0.0710281774252653,-0.0350925624370574,0.0124871172010898,-0.0075417608022689,standing,2026-03-04_13-58-09
1772632695624599800,6.401599853515625,-0.0684696337825618,0.0329398543104529,0.0089396777808666,-0.0413910523056983,0.0215997733175754,-0.0063236346468329,standing,2026-03-04_13-58-09
1772632695634548700,6.411548828125,-0.0359798247945494,0.0523377977415919,0.0119774380415678,-0.0420994535088539,0.0233904812484979,-0.0054722218774259,standing,2026-03-04_13-58-09
1772632695644497700,6.42149755859375,-0.0266931967395357,0.0643655046656727,-0.0089952073603868,-0.0350645557045936,0.0211554281413555,-0.0036641731858253,standing,2026-03-04_13-58-09
1772632695654446600,6.431446533203125,0.0170646416453644,0.0666097764611244,-0.0278840322256088,-0.0225868485867977,0.0177204832434654,0.0028882680926471,standing,2026-03-04_13-58-09
1772632695664395500,6.4413955078125,0.0569042836732231,0.0703897333912551,-0.0468441687613725,-0.0078513324260711,0.0111026717349886,0.008853611536324,standing,2026-03-04_13-58-09
1772632695674343700,6.45134375,0.0800588214252144,0.0718812871232628,-0.0427782344967126,0.0013730591163039,-0.0061863036826252,0.0088056745007634,standing,2026-03-04_13-58-09
1772632695684292600,6.461292724609375,0.0449501899746246,0.0520731554560363,-0.0013899930536746,0.0075240056030452,-0.0176705252379179,0.0104746483266353,standing,2026-03-04_13-58-09
1772632695694241500,6.471241455078125,0.0067922356897033,0.0092187869831919,0.0229243639916181,0.005124763585627,-0.0176028795540332,0.0046077044680714,standing,2026-03-04_13-58-09
1772632695704190500,6.4811904296875,-0.0435760338108986,-0.0115787941128015,0.0155623107910156,5.83436340093e-05,-0.0014016716741025,-0.0031220079399645,standing,2026-03-04_13-58-09
1772632695714139400,6.491139404296875,-0.080065287698619,-0.0241090437315404,0.0312017784714698,-0.009078960865736,0.0179147683084011,-0.0030807289294898,standing,2026-03-04_13-58-09
1772632695724088600,6.501088623046875,-0.0508659168244339,-0.0478131599240005,0.0716781657665967,-0.0211249068379402,0.0206763297319412,-0.0036565749906003,standing,2026-03-04_13-58-09
1772632695734037800,6.511037841796875,-0.0098050989711657,-0.0714686146691441,0.1003524715870618,-0.0287969410419464,0.0131401168182492,0.0012598864268511,standing,2026-03-04_13-58-09
1772632695743985700,6.520985595703125,0.031025088464003,-0.0539550236798822,0.0993657986372709,-0.0336442925035953,-0.0024966381024569,0.001741511048749,standing,2026-03-04_13-58-09
1772632695753934600,6.5309345703125,0.0350236748471856,-0.0625381431080401,0.0653489627450704,-0.031877551227808,-0.020356860011816,-0.0021443071309477,standing,2026-03-04_13-58-09
1772632695763883500,6.540883544921875,-0.0232459971614182,-0.0962093804329633,-0.0123971247583627,-0.0254386942833662,-0.029477659612894,-0.0140253426507115,standing,2026-03-04_13-58-09
1772632695773832400,6.55083251953125,-0.1005641233100555,-0.1160360706701874,-0.1043231287837028,-0.018381318077445,-0.023152919486165,-0.0213551614433527,standing,2026-03-04_13-58-09
1772632695783781600,6.56078173828125,-0.1504934899367392,-0.0707896924942731,-0.1724275277167558,-0.012873101979494,-0.0032860036008059,-0.0261051747947931,standing,2026-03-04_13-58-09
1772632695793730600,6.57073046875,-0.1479857083668932,-0.0287852188490331,-0.2383370469540357,0.0017775706946849,0.0267246421426534,-0.0207230746746063,standing,2026-03-04_13-58-09
1772632695803678500,6.580678466796875,-0.0858709965690039,0.0173345811605453,-0.2837555668264627,0.0162329841405153,0.0498525761067867,-0.0109846862033009,standing,2026-03-04_13-58-09
1772632695813627400,6.59062744140625,-0.0445266673329286,0.0603670826792717,-0.204598443481326,0.0261519290506839,0.0421451218426227,-0.0059371972456574,standing,2026-03-04_13-58-09
