time,seconds_elapsed,acc_x,acc_y,acc_z,gyr_x,gyr_y,gyr_z,activity,session
1772632387921014800,0.065014892578125,0.0065300228232517,0.0548379439942538,0.0490226818442344,0.0108759570866823,-0.014759000390768,-0.0021530531812459,standing,2026-03-04_13-53-07
1772632387930963700,0.074963623046875,-0.0276639597341418,0.0499957646600902,0.0033007951110601,0.0236013382673263,-0.0199239365756511,-0.006807992234826,standing,2026-03-04_13-53-07
1772632387940911900,0.084911865234375,-0.0131078668436035,0.0760243782773613,-0.0068231240183115,0.0277108550071716,-0.0075054680928587,-0.0004837929736822,standing,2026-03-04_13-53-07
1772632387950860800,0.09486083984375,0.0009684431733563,0.1048765248827636,0.0310322671234607,0.0228255540132522,0.0031477089505642,0.0066564078442752,standing,2026-03-04_13-53-07
1772632387960808700,0.10480859375,0.0263624121489003,0.0977883201874792,0.1116676463276147,0.0111134462058544,-0.006004765164107,0.0113159734755754,standing,2026-03-04_13-53-07
1772632387970757600,0.114757568359375,-0.0151156995346769,0.0643197658278048,0.1419347742974758,-0.0077430661767721,-0.0186870042234659,0.005365140736103,standing,2026-03-04_13-53-07
1772632387980705800,0.124705810546875,-0.0715991091810166,0.0316255568414926,0.0906219356894493,-0.0187907107174396,-0.0079639228060841,-0.0001725282054394,standing,2026-03-04_13-53-07
1772632387990654700,0.13465478515625,-0.0778556488251313,0.029679683470726,0.0209597859203815,-0.0251348912715911,0.0157651081681251,0.0007113749161362,standing,2026-03-04_13-53-07
1772632388000602600,0.1446025390625,-0.045269174529612,0.0345325303293764,0.0241232183873653,-0.0244155712425708,0.0243894886225461,3.7730205804e-06,standing,2026-03-04_13-53-07
1772632388010551800,0.1545517578125,-0.013028335333988,0.0037179976098239,0.1167068095386028,-0.0327099859714508,0.0067875934764742,-0.0062293554656207,standing,2026-03-04_13-53-07
1772632388020499700,0.164499755859375,0.0029760932013392,-0.0443295555919408,0.1542091494590043,-0.0409343056380748,-0.0175768807530403,-0.0087346900254488,standing,2026-03-04_13-53-07
1772632388030448600,0.17444873046875,0.0184686997570097,-0.0380719565019011,0.0652156917542219,-0.0336047522723674,-0.0176812764257192,-0.0056177265942096,standing,2026-03-04_13-53-07
1772632388040396800,0.184396728515625,-0.0164889971818774,0.02428220834136,-0.0848193868905305,-0.0153899686411023,-0.0043033575639128,-0.0006541109178215,standing,2026-03-04_13-53-07
1772632388050345700,0.194345703125,-0.0671979150800034,0.0451508088469505,-0.1825011779636144,0.0079156206920742,0.0194488428533077,-0.0017364196246489,standing,2026-03-04_13-53-07
1772632388060293600,0.204293701171875,-0.1146783359182998,0.0265738264098763,-0.1886480101555585,0.0250734128057956,0.039196278899908,-0.009737279266119,standing,2026-03-04_13-53-07
1772632388070242600,0.21424267578125,-0.0820735222484916,0.0006054185472428,-0.0743979461193084,0.0259730294346809,0.041964367032051,-0.0084613598883152,standing,2026-03-04_13-53-07
1772632388080190700,0.224190673828125,-0.0016104674039408,-0.0345402752444148,0.0820399853050708,0.0130506241694092,0.0313294939696788,-0.0010946629336103,standing,2026-03-04_13-53-07
1772632388090139600,0.2341396484375,0.0440147174891084,-0.0497349217668175,0.1971732619166374,0.0004791724495589,0.0122700491920113,0.004684928804636,standing,2026-03-04_13-53-07
1772632388100087600,0.244087646484375,0.018898213748075,-0.0695467066958546,0.2352764903396368,-0.0126445684581995,-0.0112138632684946,0.0021553658880293,standing,2026-03-04_13-53-07
1772632388110036700,0.25403662109375,-0.0393162940071895,-0.093918785277754,0.2123474501729011,-0.0200324431061744,-0.0342235751450061,-0.0087319035083055,standing,2026-03-04_13-53-07
1772632388119984600,0.263984619140625,-0.0996078272322192,-0.1047667808979749,0.1088105033308267,-0.0227849185466766,-0.0531178191304206,-0.0277892425656318,standing,2026-03-04_13-53-07
1772632388129933800,0.273933837890625,-0.1347425247058272,-0.0772366766765713,-0.0129290396779775,-0.021240284666419,-0.0536275468766689,-0.0432491563260555,standing,2026-03-04_13-53-07
1772632388139881700,0.2838818359375,-0.1069455497091636,0.0007227613165974,-0.1316314069479703,-0.0192665681242942,-0.0255684666335582,-0.0387890115380287,standing,2026-03-04_13-53-07
1772632388149831000,0.293830810546875,-0.0493740160325542,0.0877830590017139,-0.2108691943138837,-0.0206793751567602,0.0123517513275146,-0.0191215686500072,standing,2026-03-04_13-53-07
1772632388159779800,0.30377978515625,-0.0043284576583653,0.1213186872482299,-0.2111170315951109,-0.0159033555537462,0.0324284918606281,-0.0022832322865724,standing,2026-03-04_13-53-07
1772632388169727700,0.313727783203125,0.0338436347497627,0.1069280505850911,-0.1985842977583408,-0.0042283236980438,0.0478820167481899,0.013734882697463,standing,2026-03-04_13-53-07
1772632388179676700,0.3236767578125,0.0219188767435029,0.1001576796673238,-0.137920862480998,0.0194287076592445,0.0459345579147338,0.0222484357655048,standing,2026-03-04_13-53-07
1772632388189624800,0.333624755859375,-0.0311204933961853,0.0472673626095056,-0.0488578466713428,0.0374865382909774,0.0284141581505537,0.0147071629762649,standing,2026-03-04_13-53-07
1772632388199573800,0.34357373046875,-0.0889297082861885,-0.0541743655189871,0.0598071107089519,0.0487194582819938,-8.08131881058e-05,-0.0053701782599091,standing,2026-03-04_13-53-07
1772632388209521700,0.353521728515625,-0.114382421711646,-0.0986259400554001,0.1261585284948349,0.0490632727742195,-0.0185058936476707,-0.0199728235602378,standing,2026-03-04_13-53-07
1772632388219470800,0.363470947265625,-0.0754019355300813,-0.0885632495939731,0.1833890667140483,0.0369230583310127,-0.0175573136657476,-0.0296835899353027,standing,2026-03-04_13-53-07
1772632388229418800,0.373418701171875,-0.0206914173077791,-0.0299342427536845,0.2254267119765281,0.005829319357872,-0.0102213704958558,-0.027791678905487,standing,2026-03-04_13-53-07
1772632388239367700,0.38336767578125,0.0369254898805171,-0.0096209380432963,0.2635661807566881,-0.0293701216578483,-0.0077957301400601,-0.0231636073440313,standing,2026-03-04_13-53-07
1772632388249315800,0.39331591796875,0.0456806414073333,-0.0017434826664626,0.2326537406206131,-0.0572840422391891,0.0007759202271699,-0.0179645828902721,standing,2026-03-04_13-53-07
1772632388259264800,0.4032646484375,0.0161948365408927,0.0231907598428428,0.1170510929316282,-0.0690835565328598,0.0128759872168302,-0.0189454741775989,standing,2026-03-04_13-53-07
1772632388269212700,0.413212646484375,-0.0238156137429177,0.0329291867859661,-0.0406400534242391,-0.0603023059666156,0.0208492241799831,-0.0203779898583889,standing,2026-03-04_13-53-07
1772632388279161600,0.42316162109375,-0.0313968261195346,0.0340517610751092,-0.1308352881342172,-0.0402634218335151,0.0230731703341007,-0.019234174862504,standing,2026-03-04_13-53-07
1772632388289109800,0.43310986328125,0.0016277473323047,0.0575157849013805,-0.1907932054907083,-0.0095297442749142,0.0186840146780014,-0.0119304554536938,standing,2026-03-04_13-53-07
1772632388299058700,0.44305859375,0.0684959555339068,0.0800531954020261,-0.1914519616603851,0.0232667885720729,0.0108606200665235,0.0014841246884316,standing,2026-03-04_13-53-07
1772632388309006600,0.453006591796875,0.0565570959370583,0.0798740394428372,-0.1190139174371957,0.0384561270475387,-0.0038613341748714,0.0074618561193346,standing,2026-03-04_13-53-07
1772632388318955800,0.462955810546875,0.0116153267309069,0.0268763164877891,-0.0181897366851568,0.0389501377940177,-0.022462835535407,0.0019688114989548,standing,2026-03-04_13-53-07
1772632388328903700,0.472903564453125,-0.0228078249398618,-0.0278217806443572,0.0292535670131444,0.0224182978272438,-0.0230351481586694,-0.0046627260744571,standing,2026-03-04_13-53-07
1772632388338852600,0.4828525390625,-0.0461929383110255,-0.0445358918190002,0.0412362657517194,0.0011624353937804,-0.0024386513978242,-0.0092016095295548,standing,2026-03-04_13-53-07
1772632388348800500,0.492800537109375,-0.0619004662590101,-0.0284570098079741,0.0375906027257442,-0.0177047289907932,0.0206349752843379,-0.0109638236463069,standing,2026-03-04_13-53-07
1772632388358749400,0.50274951171875,-0.0517955806236714,-0.0195718386933207,0.0220440740257501,-0.0305171497166156,0.0297174360603094,-0.012276878580451,standing,2026-03-04_13-53-07
1772632388368697300,0.512697265625,-0.019986776169762,-0.0175371179953217,-0.003591887012124,-0.0284846238791942,0.0258262921124696,-0.007282652426511,standing,2026-03-04_13-53-07
1772632388378646300,0.522646240234375,-3.46329219639e-05,0.002416998013854,-0.0722854840099811,-0.0134898535907268,0.0171341262757778,-0.0036921203136444,standing,2026-03-04_13-53-07
1772632388388594400,0.532594482421875,-0.032322635727562,0.0083715225040912,-0.1360872173130512,0.0121875461190938,0.0153511390089988,-0.0057976152747869,standing,2026-03-04_13-53-07
1772632388398543400,0.54254345703125,-0.0677022478729486,-0.0010195523060858,-0.1466103648930788,0.036336563527584,0.0116057898849248,-0.0093851517885923,standing,2026-03-04_13-53-07
1772632388408491300,0.5524912109375,-0.0540493874324485,-0.0118472357906401,-0.0959323170572519,0.0451758615672588,0.0081801656633615,-0.0109646720811724,standing,2026-03-04_13-53-07
1772632388418440400,0.5624404296875,-0.0426801809497177,-0.013895108231157,-0.0098427641004323,0.0447617955505847,0.0047236373648047,-0.0124172596260905,standing,2026-03-04_13-53-07
1772632388428388400,0.572388427734375,-0.0429941788023337,-0.0024802725084125,0.074894789725542,0.032304860651493,0.0026370508130639,-0.0125994198024272,standing,2026-03-04_13-53-07
1772632388438337300,0.582337158203125,-0.0356259881218895,0.0062367024324834,0.1292442195504903,0.0133903436362743,0.0016142667736858,-0.0119225531816482,standing,2026-03-04_13-53-07
1772632388448285400,0.592285400390625,-0.0694655312184244,-0.0027951836764812,0.1515817235648631,-0.003393696155399,0.0062513630837202,-0.0147811900824308,standing,2026-03-04_13-53-07
1772632388458234400,0.602234375,-0.0969944298634305,-0.0079901219710707,0.0870388165056705,-0.0115341376513242,0.0098287127912044,-0.0209369622170925,standing,2026-03-04_13-53-07
1772632388468182300,0.612182373046875,-0.1081033414421603,-0.0031112638883292,0.0186310507118701,-0.0071489755064249,0.0115744154900312,-0.0252459570765495,standing,2026-03-04_13-53-07
1772632388478131200,0.622131103515625,-0.0927962109886109,0.0261652456089854,-0.006048047992587,0.0009766481816768,0.0084732705727219,-0.0287888515740633,standing,2026-03-04_13-53-07
1772632388488079400,0.632079345703125,-0.0774715083457529,0.0429936308130621,-0.007219429859519,0.0106505807489156,0.0018790180329233,-0.0291694160550832,standing,2026-03-04_13-53-07
1772632388498028300,0.6420283203125,-0.0088742113292217,0.0591236584894359,-0.0025742344021797,0.021089069545269,-0.002121360739693,-0.020990714430809,standing,2026-03-04_13-53-07
1772632388507976200,0.65197607421875,0.0222439439794048,0.082627137543261,-0.0040396307796239,0.028110759332776,-0.004663348197937,-0.0192165169864892,standing,2026-03-04_13-53-07
1772632388517925400,0.66192529296875,0.0047523821588605,0.0922388693667948,0.0393184494316577,0.0263564717024564,0.0018034982495009,-0.0175293143838644,standing,2026-03-04_13-53-07
1772632388527873300,0.671873291015625,-0.008200257590413,0.0701788671195507,0.0947445685774087,0.0130052454769611,0.0035063233226537,-0.0188300032168626,standing,2026-03-04_13-53-07
1772632388537822200,0.681822265625,0.018229666836746,0.0776734606586396,0.1172533375054597,-0.0054954034276306,0.0016571322921663,-0.0172806661576032,standing,2026-03-04_13-53-07
1772632388547770400,0.691770263671875,-0.0317875059375539,0.0696001904487609,0.0961532663315534,-0.0147357732057571,0.0119901970028877,-0.0199518147855997,standing,2026-03-04_13-53-07
1772632388557719300,0.70171923828125,-0.0369713748488575,0.0571079347528517,0.0812064570903778,-0.0165666602551937,0.0288935899734497,-0.0238012839108705,standing,2026-03-04_13-53-07
1772632388567667200,0.711667236328125,0.0188670879574492,0.0422594713196158,0.0878022020936012,-0.0177826583385467,0.0296584516763687,-0.0175029076635837,standing,2026-03-04_13-53-07
1772632388577616100,0.7216162109375,0.0607086626585572,0.0481155038714408,0.0997749639600515,-0.0128730982542037,0.017941553145647,-0.0132314283400774,standing,2026-03-04_13-53-07
1772632388587564300,0.731564208984375,0.0693773414783179,0.016725217090547,0.119531803831458,-0.0086093787103891,0.0002877237275242,-0.011882004328072,standing,2026-03-04_13-53-07
1772632388597513500,0.741513427734375,0.0646595557088032,-0.0023396949939429,0.1384422560065984,-0.0058764638379216,-0.0243935994803905,-0.0094668194651603,standing,2026-03-04_13-53-07
1772632388607461000,0.751461181640625,0.0431641285417601,-0.0127228495813906,0.1356499949395656,-0.0100440448150038,-0.0533339045941829,-0.0138346701860427,standing,2026-03-04_13-53-07
1772632388617410300,0.761410400390625,0.0303234247343614,-0.023981033437699,0.088610011345148,-0.0138942841440439,-0.0646929442882537,-0.0184928625822067,standing,2026-03-04_13-53-07
1772632388627358500,0.7713583984375,-0.0048948959020897,0.0126619131743907,-0.0414040235340595,-0.0222203899174928,-0.0438361279666423,-0.0174981728196144,standing,2026-03-04_13-53-07
1772632388637307400,0.781307373046875,-0.028018910651654,0.0541864943481981,-0.177587686958909,-0.028367368504405,-0.0123476441949605,-0.011547777801752,standing,2026-03-04_13-53-07
1772632388647255300,0.79125537109375,-0.0269667712502181,0.0730658207327127,-0.240429050797224,-0.0236935224384069,0.0092481952160596,-0.0059157251380383,standing,2026-03-04_13-53-07
1772632388657204500,0.80120458984375,-0.0019968729056417,0.054801265245676,-0.2842471497356891,-0.0058826794847846,0.0276518464088439,0.0050053070299327,standing,2026-03-04_13-53-07
1772632388667153400,0.8111533203125,-0.0057923196658492,0.0998538744151592,-0.2951636805474757,0.0180740524083375,0.0390592291951179,0.0165288057178258,standing,2026-03-04_13-53-07
1772632388677101300,0.821101318359375,-0.0219228953314945,0.0737137632474303,-0.1936333973526954,0.0369754545390605,0.0268555823713541,0.0201042983680963,standing,2026-03-04_13-53-07
1772632388687050200,0.83105029296875,-0.0153601027498021,-0.0052719490535557,-0.0651759442657232,0.0478989407420158,-0.0011217235587537,0.0169383324682712,standing,2026-03-04_13-53-07
1772632388696998400,0.840998291015625,-0.0342310266321524,-0.0719767103217542,0.029573300486803,0.0532857663929462,-0.0086113149300217,0.0066831801086664,standing,2026-03-04_13-53-07
1772632388706947300,0.850947265625,-0.075895345070213,-0.051066608761996,0.0981353800594806,0.0464989691972732,-0.005853877402842,-0.0017459904775023,standing,2026-03-04_13-53-07
1772632388716895200,0.860895263671875,-0.089118764584884,-0.0242411456786096,0.2119721871197223,0.029251430183649,-0.0125161670148372,-0.0132759381085634,standing,2026-03-04_13-53-07
1772632388726844400,0.870844482421875,-0.0497181898277252,-0.0559936899006366,0.2554910108506679,0.0014669364318251,-0.0179780423641204,-0.0196872316300869,standing,2026-03-04_13-53-07
1772632388736792300,0.880792236328125,-0.0284961727745831,-0.0357452671200037,0.235412099418044,-0.0211794655770063,-0.0091605950146913,-0.0219840425997972,standing,2026-03-04_13-53-07
1772632388746741200,0.8907412109375,-0.0208052894784137,0.0272679461538791,0.1383522396355867,-0.0325381122529506,0.0072340914048254,-0.0214692540466785,standing,2026-03-04_13-53-07
1772632388756689400,0.900689453125,-0.0128489601790904,0.0602151069879531,0.0617430472075939,-0.0360018946230411,0.0077701243571937,-0.0183965116739273,standing,2026-03-04_13-53-07
1772632388766638300,0.910638427734375,0.025003069961816,0.0624273762099444,0.0136842419594526,-0.0297394730150699,0.0022557834163308,-0.0140654128044843,standing,2026-03-04_13-53-07
1772632388776586200,0.920586181640625,0.039482809680514,0.0834386000566184,-0.064340662485361,-0.0155111886560916,0.0012809804175049,-0.0101319020614027,standing,2026-03-04_13-53-07
1772632388786535200,0.93053515625,0.0110613095773383,0.1139301844321191,-0.126525608241558,0.0050228484906256,0.0052927667275071,-0.0080234771594405,standing,2026-03-04_13-53-07
1772632388796483300,0.9404833984375,-0.0083470821825787,0.0962684171438217,-0.1435819569826126,0.0220869481563568,0.0095998914912343,-0.004830396734178,standing,2026-03-04_13-53-07
1772632388806432300,0.950432373046875,0.0195425760662183,0.071519175812602,-0.1029670379996299,0.0294955968856811,0.0063399160280823,-0.0029528683517128,standing,2026-03-04_13-53-07
1772632388816380200,0.960380126953125,0.0346600291665643,0.0702991324983537,-0.0104489133000373,0.0271048322319984,0.003642383031547,0.0033024814911186,standing,2026-03-04_13-53-07
1772632388826329300,0.970329345703125,-0.002872413631156,0.0465938472621142,0.0738701228529214,0.0134617239236831,-0.0049076955765485,0.0003647487610578,standing,2026-03-04_13-53-07
1772632388836277200,0.98027734375,0.0048110900761559,0.0084255907788872,0.0914548793822526,0.0001503815874457,-0.0089962892234325,-0.0041646650061011,standing,2026-03-04_13-53-07
1772632388846226200,0.99022607421875,0.0015607830433174,0.0013208733402192,0.0604828180134296,-0.0114839049056172,-0.0020547593012452,-0.0033065944444388,standing,2026-03-04_13-53-07
1772632388856174300,1.00017431640625,-0.014691190512292,0.0326150062702596,-0.002886953613162,-0.0167144574224948,0.018338656052947,-0.0017178026027977,standing,2026-03-04_13-53-07
1772632388866123500,1.01012353515625,-0.0311659765057265,0.0445877681367099,-0.0185638306945562,-0.0173301808536052,0.0245158579200506,-0.0027329996228218,standing,2026-03-04_13-53-07
1772632388876071200,1.0200712890625,-0.0013290566466748,0.0067874681830406,-0.008060556858778,-0.0152440154924988,0.0168471448123455,-0.0006703229155391,standing,2026-03-04_13-53-07
1772632388886020400,1.030020263671875,0.0271648145729675,0.016892244220525,-0.0197580089151859,-0.0076156565919518,0.0150977158918976,0.0011598013807088,standing,2026-03-04_13-53-07
1772632388895968500,1.039968505859375,0.0071742755435407,0.0259609552085399,-0.0302402399629354,0.0006815320812165,0.0127742318436503,0.0034318033140152,standing,2026-03-04_13-53-07
1772632388905917400,1.04991748046875,-0.0010977686414495,0.0268406606525182,-0.0450660531729459,0.0117341829463839,0.0078457864001393,0.0031252733897417,standing,2026-03-04_13-53-07
1772632388915865300,1.059865234375,0.026019553527981,0.0116959907516837,-0.0414987160801887,0.021500039845705,0.0028718167450278,0.0073587829247117,standing,2026-03-04_13-53-07
1772632388925814300,1.069814208984375,0.0126626072941347,0.035269904693216,-0.0124538233816623,0.0264979936182498,0.0014888371806591,0.0055960360914468,standing,2026-03-04_13-53-07
1772632388935762400,1.079762451171875,-0.0358977542679756,0.0346118791759014,0.0307639715760946,0.0257119387388229,-0.0044815787114202,0.0030620973557233,standing,2026-03-04_13-53-07
1772632388945711400,1.08971142578125,-0.0870536487486213,0.0163968619190156,0.0661830754816532,0.0192942544817924,-0.0136100957170128,-0.0056027635000646,standing,2026-03-04_13-53-07
1772632388955659300,1.0996591796875,-0.0645647900974377,-0.0052728258363902,0.0736497581005096,0.0075468788854777,-0.0098889470100402,-0.0104363765567541,standing,2026-03-04_13-53-07
1772632388965608400,1.1096083984375,-0.0721915951814502,0.0334605171836912,0.0516489386945962,-0.0063172718510031,0.0083680879324674,-0.0082504535093903,standing,2026-03-04_13-53-07
1772632388975556400,1.119556396484375,-0.0847919874269515,0.0689653996765613,0.0308095642834901,-0.015920041128993,0.0241466257721185,-0.0085735861212015,standing,2026-03-04_13-53-07
1772632388985505300,1.12950537109375,-0.0403580216124653,0.0566717352926731,0.0429985992491245,-0.0218034964054822,0.0256228148937225,-0.0062113627791404,standing,2026-03-04_13-53-07
1772632388995453400,1.139453369140625,-0.0078603581115603,0.0476683446258306,0.0643622897952795,-0.0206116791814565,0.0175394583493471,-0.0016337631968781,standing,2026-03-04_13-53-07
1772632389005402400,1.14940234375,-0.0078355889964848,0.0606160890042781,0.058794134274125,-0.0124248564243316,-0.0001963942777365,-0.0031182090751826,standing,2026-03-04_13-53-07
1772632389015350300,1.159350341796875,-0.0233333466513082,0.062143736962974,0.0287029473930597,0.0016684876754879,-0.0093249175697565,-0.006371044088155,standing,2026-03-04_13-53-07
1772632389025299200,1.16929931640625,-0.0508972435444593,0.0557936372838914,-0.0231757084041833,0.014029549434781,-0.008551268838346,-0.0060927439481019,standing,2026-03-04_13-53-07
1772632389035247400,1.179247314453125,-0.0585517038203775,0.0889208308599889,-0.0258159937798976,0.0165968686342239,-0.0075561008416116,-0.0073784813284873,standing,2026-03-04_13-53-07
1772632389045196300,1.1891962890625,-0.0493151619847863,0.0742353029035031,0.0119411976844072,0.0149387838318943,-0.0004971262533217,-0.0047808345407247,standing,2026-03-04_13-53-07
1772632389055144200,1.199144287109375,-0.0125925011999905,0.0704858872421085,0.0454325483977794,0.0032951461616903,0.016953557729721,0.0031007546931505,standing,2026-03-04_13-53-07
1772632389065093400,1.20909326171875,-0.012033661740832,0.0891623845309019,0.0821796860367059,-0.0079732211306691,0.0289175435900688,0.0113323181867599,standing,2026-03-04_13-53-07
1772632389075041300,1.219041259765625,-0.0491401342114433,0.039544513272494,0.1470890883207321,-0.0183985885232687,0.0181124247610569,0.0060444045811891,standing,2026-03-04_13-53-07
1772632389084990200,1.228990234375,-0.0634405353078618,-0.0643771951034665,0.1870966890603304,-0.0236402228474617,-0.0002173138782382,-0.0028678635135293,standing,2026-03-04_13-53-07
1772632389094938400,1.2389384765625,-0.0480707514142617,-0.0780009390473365,0.1600122827798128,-0.019687246531248,-0.0237690825015306,-0.012319547124207,standing,2026-03-04_13-53-07
1772632389104887300,1.24888720703125,-0.064330250689201,-0.0779601686455309,0.106812607511878,-0.0158301889896392,-0.0522739589214324,-0.0233189351856708,standing,2026-03-04_13-53-07
1772632389114835200,1.258835205078125,-0.0595230696031823,-0.0515808418944478,0.05719955855906,-0.0200463235378265,-0.0656841024756431,-0.0236664935946464,standing,2026-03-04_13-53-07
1772632389124784000,1.2687841796875,-0.0140523446194827,-0.0266217572048306,-0.0482978747010231,-0.0236823372542858,-0.0554879233241081,-0.0198704227805137,standing,2026-03-04_13-53-07
1772632389134732300,1.278732177734375,-0.0349868865007534,0.0502633295550942,-0.179907654339075,-0.0241412594914436,-0.0298057198524475,-0.014617770910263,standing,2026-03-04_13-53-07
1772632389144681200,1.28868115234375,-0.0494704986769706,0.0769650201283395,-0.285856923019886,-0.0159584302455186,0.0004504539538174,-0.0071361530572175,standing,2026-03-04_13-53-07
1772632389154629000,1.298629150390625,-0.0155223441068083,0.0954687911987304,-0.3242161720305681,-0.0020438875071704,0.0265922993421554,0.0054306732490658,standing,2026-03-04_13-53-07
1772632389164578600,1.30857861328125,-0.012482464954257,0.1111442069754004,-0.2835059759795665,0.0163063574582338,0.0332632511854171,0.0159751921892166,standing,2026-03-04_13-53-07
1772632389174526200,1.318526123046875,-0.0331766587410122,0.0660065498709678,-0.2030371855139732,0.0348389036953449,0.0282018166035413,0.0145412711426615,standing,2026-03-04_13-53-07
1772632389184475400,1.328475341796875,-0.0585804549908265,0.0103315705306828,-0.0980968016147613,0.0447605103254318,0.0159709826111793,0.0078785736113786,standing,2026-03-04_13-53-07
1772632389194423600,1.338423583984375,-0.0527297927338629,-0.0327615751340985,0.0078530515879392,0.0458986014127731,0.0094964019954204,-0.0002405287232249,standing,2026-03-04_13-53-07
1772632389204372500,1.34837255859375,-0.029121720794402,-0.0190067521564662,0.115080085119605,0.0388646610081195,0.0021364903077483,-0.0024770514573901,standing,2026-03-04_13-53-07
1772632389214320400,1.3583203125,0.0237328308302909,0.0052887540578842,0.2498971363663673,0.016826506704092,-0.0113044390454888,-0.0008276243461295,standing,2026-03-04_13-53-07
1772632389224269300,1.368269287109375,0.0771719043446704,0.0084900343172252,0.2981096708714962,-0.0085193291306495,-0.0203365497291088,0.003429971402511,standing,2026-03-04_13-53-07
1772632389234217500,1.378217529296875,0.062616797834821,0.0177085290394723,0.2834761653631925,-0.0274957939982414,-0.0260145347565412,0.0027678511105477,standing,2026-03-04_13-53-07
1772632389244166400,1.38816650390625,0.0112401732755824,0.0504088755056262,0.204009245416522,-0.036028828471899,-0.0251583289355039,-0.0025041426997631,standing,2026-03-04_13-53-07
1772632389254115300,1.398115234375,0.0183585539134219,0.065442047856003,0.0843190361529588,-0.0344069562852382,-0.0159300900995731,-0.0001208714675158,standing,2026-03-04_13-53-07
1772632389264063200,1.408063232421875,0.0338644583420828,0.1319204530224204,-0.0059445876181125,-0.0249335616827011,0.0009775212965905,0.0034962338395416,standing,2026-03-04_13-53-07
1772632389274012400,1.418012451171875,0.0482046069269999,0.1771519258901476,-0.0613040712684392,-0.0155281238257884,0.0091318376362323,0.0158307813107967,standing,2026-03-04_13-53-07
1772632389283960300,1.427960205078125,0.1021140378994867,0.172651107339561,-0.0199643451422452,-0.0100127160549163,0.0014997508842498,0.0296238251030445,standing,2026-03-04_13-53-07
1772632389293909200,1.4379091796875,0.103431805967167,0.1282081545010209,0.0051934769898653,-0.0062469546683132,-0.0111791566014289,0.0366792306303978,standing,2026-03-04_13-53-07
1772632389303857400,1.447857421875,0.0510689833821728,0.0972219184763729,0.02512158177495,-0.0050498633645474,-0.0219436548650264,0.0362075828015804,standing,2026-03-04_13-53-07
1772632389313806300,1.457806396484375,0.0399612773798406,0.0663268678665161,0.0100742347687482,-0.0027344110421836,-0.0300672091543674,0.0368284098803997,standing,2026-03-04_13-53-07
1772632389323754200,1.467754150390625,0.0359861632037907,0.0509780536957085,-0.0207253926426172,0.0008802972733974,-0.025519860908389,0.0370515808463096,standing,2026-03-04_13-53-07
1772632389333703200,1.477703125,-0.0325558599615469,0.0351549000114202,-0.0711105950117111,0.0070720016956329,-0.0119259236380457,0.0334715694189071,standing,2026-03-04_13-53-07
1772632389343651300,1.4876513671875,-0.0673894555967301,0.0368489905782043,-0.0730044459342956,0.0090003963559865,-0.006219302304089,0.032169546931982,standing,2026-03-04_13-53-07
1772632389353600300,1.497600341796875,-0.0347893911672756,0.025958909381926,-0.0166349084585905,0.0024811797775328,-0.01118247769773,0.0345853939652442,standing,2026-03-04_13-53-07
1772632389363548200,1.507548095703125,-0.0404280911739915,-0.0160465871766209,0.0159328976690769,-0.0067892838269472,-0.0049394955858588,0.0358631797134876,standing,2026-03-04_13-53-07
1772632389373497300,1.517497314453125,-0.080650978632085,-0.0379996219180524,-0.0003787701845169,-0.0107089765369892,0.0110915331169962,0.0309279188513755,standing,2026-03-04_13-53-07
1772632389383445200,1.5274453125,-0.1057630253937095,-0.0578513004660606,-0.0053466217249631,-0.0119691845029592,0.0203787740319967,0.0255645774304866,standing,2026-03-04_13-53-07
1772632389393394200,1.537394287109375,-0.0809786031512543,-0.066922934063524,-0.0022486557096242,-0.0101991826668381,0.0162895992398262,0.0284092742949724,standing,2026-03-04_13-53-07
1772632389403342300,1.54734228515625,-0.0601423340126872,-0.047448418264836,0.0232651402533054,-0.0038163838908076,0.004636937752366,0.0303288828581571,standing,2026-03-04_13-53-07
1772632389413291300,1.557291259765625,-0.1097991125093773,-0.0369533277355134,0.052287236598134,0.0075988266617059,-0.0136989206075668,0.0202643126249313,standing,2026-03-04_13-53-07
1772632389423239200,1.5672392578125,-0.1363409728784114,-0.0707110743001103,0.0273468566089868,0.0144332963973283,-0.0179945994168519,0.0052613941952586,standing,2026-03-04_13-53-07
1772632389433188400,1.577188232421875,-0.1233656463732942,-0.051256870637089,0.0310766907870769,0.0131580028682947,-0.0134296417236328,-0.0040266131982207,standing,2026-03-04_13-53-07
1772632389443136300,1.58713623046875,-0.0808231568612158,-0.0164534144118428,0.0731833096325397,0.0006707068532705,-0.0034475813154131,-0.0053387526422739,standing,2026-03-04_13-53-07
1772632389453085400,1.59708544921875,-0.024965295234695,0.0173765206061303,0.1468459272146225,-0.0187897067517042,-0.008840063586831,-0.0021146885119378,standing,2026-03-04_13-53-07
1772632389463033300,1.607033447265625,0.0186268129281699,0.024365356580168,0.1551800403177738,-0.0355319343507289,-0.0174692384898662,0.0019391751848161,standing,2026-03-04_13-53-07
1772632389472982500,1.616982421875,0.0412567605504766,0.0534109799310564,0.070530749297142,-0.042251668870449,-0.0192214958369731,0.0067492350935935,standing,2026-03-04_13-53-07
1772632389482930400,1.626930419921875,0.0038266456160694,0.0795456842713057,-0.0263894097536802,-0.0369365327060222,-0.0144581664353609,0.0073646921664476,standing,2026-03-04_13-53-07
1772632389492879400,1.63687939453125,-0.0512038983408361,0.0715899029612541,-0.1442985808193683,-0.0240169838070869,-0.001125490758568,0.0014543659053742,standing,2026-03-04_13-53-07
1772632389502827500,1.64682763671875,-0.0356843672456219,0.0892941942170262,-0.2338976032018661,-0.0006655887700617,0.0143994065001606,0.0023806132376194,standing,2026-03-04_13-53-07
1772632389512776400,1.6567763671875,0.0294813478870317,0.12503463903144,-0.2385258475244045,0.0189965907484293,0.024487717077136,0.0125878769904375,standing,2026-03-04_13-53-07
1772632389522724400,1.666724365234375,0.0978232088377699,0.1507832666635513,-0.1346276661545038,0.0278404150158166,0.0223643779754638,0.0250855609774589,standing,2026-03-04_13-53-07
1772632389532673300,1.67667333984375,0.1150129381675273,0.0981347955375909,-0.0063274494558572,0.021433837711811,0.0119762243703007,0.0329438298940658,standing,2026-03-04_13-53-07
1772632389542621400,1.686621337890625,0.0492237573742866,0.0502462322898209,0.0969499696671962,0.0038037116173654,-0.0029270916711539,0.0277645140886306,standing,2026-03-04_13-53-07
1772632389552570400,1.6965703125,-0.0349478331319987,-0.0168678404316306,0.1239718321055173,-0.0110726114362478,-0.0024447315372526,0.0150918792933225,standing,2026-03-04_13-53-07
1772632389562518300,1.706518310546875,-0.0826390837093815,-0.0461772292852401,0.0811965202182531,-0.0219031553715467,0.0067250649444758,0.0079189203679561,standing,2026-03-04_13-53-07
1772632389572467200,1.71646728515625,-0.048342919419147,-0.0269197172380983,0.0234936883121728,-0.0223529636859893,0.0214101206511259,0.0125706726685166,standing,2026-03-04_13-53-07
1772632389582415400,1.726415283203125,0.0253176158037036,0.0228530523210763,-0.0192804545313119,-0.0093870973214507,0.0286725610494613,0.0256683640182018,standing,2026-03-04_13-53-07
1772632389592364300,1.7363642578125,0.0580339270239695,0.0419913219027221,-0.001068506014347,0.002179920207709,0.0175818037241697,0.036046240478754,standing,2026-03-04_13-53-07
1772632389602312400,1.7463125,0.0190478513518348,-0.0171194771051406,0.0663566784828901,0.0046494691632688,-0.0158896036446094,0.0327263437211513,standing,2026-03-04_13-53-07
1772632389612261400,1.756261474609375,-0.0591558437259867,-0.0861952052883803,0.0851163240104913,0.0061161220073699,-0.0420719236135482,0.0175906792283058,standing,2026-03-04_13-53-07
1772632389622209300,1.766209228515625,-0.1482773482572287,-0.1092675994485616,0.0616448475301265,-0.0001241969875991,-0.0480757541954517,-0.0019364149775356,standing,2026-03-04_13-53-07
1772632389632158200,1.776158203125,-0.1592005280055105,-0.0886857069298625,0.0223117850512266,-0.0117906993255019,-0.0402732528746128,-0.0094776712357997,standing,2026-03-04_13-53-07
1772632389642106400,1.7861064453125,-0.1071621516019105,-0.0420174792572855,-0.0587573093950748,-0.0245317928493022,-0.0200976766645908,-0.0038552056066691,standing,2026-03-04_13-53-07
1772632389652055300,1.79605517578125,-0.038845461625047,0.0381862305313348,-0.100913612601161,-0.0249177441000938,0.0031919456087052,0.0146056599915027,standing,2026-03-04_13-53-07
1772632389662003200,1.806003173828125,-0.0169370332103222,0.1039712466061115,-0.1843219636499881,-0.0075933481566607,0.0197408273816108,0.0324528366327285,standing,2026-03-04_13-53-07
1772632389671952100,1.8159521484375,-0.0372832903422415,0.1014719771362841,-0.2012514711409807,0.0156227024272084,0.0215951986610889,0.0351094342768192,standing,2026-03-04_13-53-07
1772632389681900300,1.825900390625,-0.1287702088305726,0.0353254342727363,-0.1833101562589406,0.0428058542311191,0.0140264946967363,0.0257098115980625,standing,2026-03-04_13-53-07
1772632389691849200,1.83584912109375,-0.1628055302275344,-0.0234209153369069,-0.0933019685536623,0.0604471340775489,0.0039997678250074,0.0098375137895345,standing,2026-03-04_13-53-07
1772632389701797000,1.845797119140625,-0.1384058695189654,-0.0449808591075241,0.0455628967791795,0.0572068691253662,-0.0097253648564219,-0.0012931681703776,standing,2026-03-04_13-53-07
1772632389711746300,1.855746337890625,-0.0929477117558941,-0.0501183681264519,0.1656745463252067,0.0403362587094306,-0.0201662611216306,-0.0061023226007819,standing,2026-03-04_13-53-07
1772632389721694200,1.865694091796875,0.0032435119658708,-0.0298470028616487,0.2392395487517118,0.0159193333238363,-0.0290327239781618,-0.0021722959354519,standing,2026-03-04_13-53-07
1772632389731643400,1.875643310546875,0.0514817289015278,0.0213873636826872,0.2376619241714477,-0.00410698633641,-0.0329209603369236,0.005309123545885,standing,2026-03-04_13-53-07
1772632389741591300,1.88559130859375,0.0397711981678381,0.070882193083316,0.1548515390157699,-0.0170736499130725,-0.0386145301163196,0.009846351109445,standing,2026-03-04_13-53-07
1772632389751540500,1.89554052734375,0.0099994890321046,0.0746593735344707,0.0242635036408901,-0.0146236168220639,-0.0303542856127023,0.0111332647502422,standing,2026-03-04_13-53-07
1772632389761488400,1.90548828125,-0.0419369613669812,0.0599444733530282,-0.109240711441636,-0.0012830439954996,-0.01244399510324,0.0056314398534595,standing,2026-03-04_13-53-07
1772632389771437300,1.915437255859375,-0.0654124929679557,0.0659928136065602,-0.1970972740709781,0.0199003368616104,0.012840018607676,0.0005433880724012,standing,2026-03-04_13-53-07
1772632389781385500,1.925385498046875,-0.0430408674882724,0.0536051873289048,-0.1732961272448301,0.0312565900385379,0.0320291593670845,-0.0006624911911785,standing,2026-03-04_13-53-07
1772632389791334400,1.93533447265625,0.0060910468840971,0.0489120610766112,-0.0474286906510591,0.030209481716156,0.0287510901689529,0.0056568067520856,standing,2026-03-04_13-53-07
1772632389801282300,1.9452822265625,0.0498812714349478,0.0346478272721171,0.1207587152779102,0.021683370694518,0.0170044191181659,0.0104715358465909,standing,2026-03-04_13-53-07
1772632389811231500,1.9552314453125,0.0398972357003018,-0.0054752165406942,0.2133954979211091,0.0062310150824487,-0.0101973693817853,0.0086505152285099,standing,2026-03-04_13-53-07
1772632389821179400,1.965179443359375,0.0219162098623812,-0.0380494524091482,0.2331348021358251,-0.0079979887232184,-0.0314965322613716,0.0058856219984591,standing,2026-03-04_13-53-07
1772632389831128300,1.97512841796875,-0.0015231179140508,-0.0362758668653666,0.1763824028223753,-0.0150063093751668,-0.0378656089305877,0.0041853520087897,standing,2026-03-04_13-53-07
1772632389841076500,1.985076416015625,-0.0472324739592149,0.0055877370044589,0.0574590862780809,-0.0164172518998384,-0.0314351432025432,-0.0017372518777847,standing,2026-03-04_13-53-07
1772632389851025400,1.995025390625,-0.0509281501393765,0.0269425135917961,-0.0685848759263753,-0.0101904645562171,-0.0243850871920585,5.57461753487e-05,standing,2026-03-04_13-53-07
1772632389860973300,2.004973388671875,-0.0111172775482758,0.0448465652033686,-0.1318728144884109,0.0040696989744901,-0.0105614177882671,0.0043032215908169,standing,2026-03-04_13-53-07
1772632389870922200,2.014922119140625,0.0355045536993071,0.0563458643391728,-0.1725952854990959,0.0168674774467945,0.0033307985868304,0.0116257090121507,standing,2026-03-04_13-53-07
1772632389880870400,2.024870361328125,0.0446456358037889,0.0540545385316014,-0.1415735397696495,0.0234449543058872,0.0111985756084322,0.0166878439486026,standing,2026-03-04_13-53-07
1772632389890819300,2.0348193359375,0.024867205155082,0.0234236918158829,-0.0916664763063192,0.0284510590136051,0.0110275950282812,0.0220143850892782,standing,2026-03-04_13-53-07
1772632389900767200,2.044767333984375,0.019637451275438,0.0170480193041265,-0.0013636895686388,0.0265098810195922,0.0017728437669575,0.0256349518895149,standing,2026-03-04_13-53-07
1772632389910716400,2.05471630859375,-0.0015151172706857,0.0082353289037942,0.0459369907885789,0.0251907873898744,-0.0109929163008928,0.021678153425455,standing,2026-03-04_13-53-07
1772632389920665300,2.064665283203125,-0.0220087835166603,0.005193038598448,0.0439110379189252,0.0246387142688035,-0.0159519873559474,0.0161947049200534,standing,2026-03-04_13-53-07
1772632389930613200,2.07461328125,-0.0424947779128327,-0.0011494622960686,0.0297720379292964,0.02676947042346,-0.0161683000624179,0.011833201162517,standing,2026-03-04_13-53-07
1772632389940562200,2.084562255859375,-0.0425194374300539,0.0219637022659182,0.0375023399204015,0.0211070589721202,-0.0111975101754069,0.0097857629880309,standing,2026-03-04_13-53-07
1772632389950510300,2.09451025390625,-0.0368393094344064,0.0353230961851775,0.0608744476795196,0.0133580677211284,-0.0028125757817178,0.0084392856806516,standing,2026-03-04_13-53-07
1772632389960459300,2.104459228515625,-0.0442145874427631,0.018793547797203,0.0733574971556663,-0.0023732241243124,-0.0007164017297327,0.004099931102246,standing,2026-03-04_13-53-07
1772632389970407200,2.1144072265625,-0.0406150285808369,0.0146375971615314,0.060181789240241,-0.010785836726427,0.0006410283967852,0.0057395230978727,standing,2026-03-04_13-53-07
1772632389980356000,2.124356201171875,-0.0033029870681464,0.0348570861086249,0.0362982248276472,-0.01286949403584,0.0075202393345534,0.0142861390486359,standing,2026-03-04_13-53-07
1772632389990304300,2.13430419921875,-0.0061767158735543,0.0627666911669075,0.0198743287712335,-0.010691549628973,0.0064267180860042,0.0181669164448976,standing,2026-03-04_13-53-07
1772632390000253400,2.14425341796875,-0.0111542850904166,0.0485496575050055,-0.0022965865045785,-0.0036373678594827,-0.0047127520665526,0.0145724471658468,standing,2026-03-04_13-53-07
1772632390010201000,2.154201171875,-0.0374665744872763,0.007784370265901,-0.0457394223898649,0.0121037978678941,1.75270251929e-05,0.0071353218518197,standing,2026-03-04_13-53-07
1772632390020150500,2.164150634765625,-0.0517056007852777,0.0359320218637585,-0.0661819064378738,0.0264265444129705,0.0110834939405322,0.0036516408436,standing,2026-03-04_13-53-07
1772632390030098400,2.174098388671875,-0.0443516578258946,0.0663740680091083,0.0085030399292707,0.0313737019896507,0.002328293165192,0.0024265921674668,standing,2026-03-04_13-53-07
1772632390040047400,2.18404736328125,-0.0043573184266686,0.0719030605636537,0.0829793119817972,0.0272191725671291,-0.0164797492325305,0.0061177336610853,standing,2026-03-04_13-53-07
1772632390049995500,2.19399560546875,0.0357636064942926,0.0843222510233521,0.1062923830300569,0.0194302909076213,-0.0132179483771324,0.0164174251258373,standing,2026-03-04_13-53-07
1772632390059944400,2.2039443359375,-0.0102733375374227,0.1033126365669071,0.0795598589271306,0.0118746347725391,0.0072926534339785,0.0170890744775533,standing,2026-03-04_13-53-07
1772632390069892400,2.213892333984375,-0.0782639373650774,0.0993969244278967,0.089977208045125,0.0030331970192492,0.0258216243237257,0.0170355290174484,standing,2026-03-04_13-53-07
1772632390079841300,2.22384130859375,-0.0624434870945289,0.0334463425278663,0.1424170048564672,-0.0085930991917848,0.0333967171609401,0.0152421556413173,standing,2026-03-04_13-53-07
1772632390089789400,2.23378955078125,-0.0596899140700697,0.0082157474204897,0.2045885066092014,-0.0168835222721099,0.030770456418395,0.0132210748270154,standing,2026-03-04_13-53-07
1772632390099738400,2.24373828125,-0.0581979584792628,0.0034499943234026,0.2542383804410696,-0.025239722803235,0.0081884488463401,0.0058521078899502,standing,2026-03-04_13-53-07
1772632390109686300,2.253686279296875,-0.0422444564135745,-0.028069179534167,0.2961491844534873,-0.0359795503318309,-0.0315352939069271,0.0002623659092932,standing,2026-03-04_13-53-07
1772632390119635500,2.263635498046875,-0.0009022095367312,-0.0557733251482248,0.2550181326419115,-0.0369649194180965,-0.0654088407754898,-0.0041052182205021,standing,2026-03-04_13-53-07
1772632390129583400,2.273583251953125,-0.0060457829702645,-0.0439447940580546,0.1329237848460674,-0.0391896590590477,-0.0692021325230598,-0.0085533196106553,standing,2026-03-04_13-53-07
1772632390139532300,2.2835322265625,-0.0487376178251579,0.0118514735743403,-0.0726151543557643,-0.0374375656247139,-0.0413678437471389,-0.0096907559782266,standing,2026-03-04_13-53-07
1772632390149480400,2.29348046875,-0.0490659729966893,0.0539046086668968,-0.1927647978246212,-0.0342420898377895,-0.0096816895529627,0.0008509429171681,standing,2026-03-04_13-53-07
1772632390159429400,2.303429443359375,0.0009896686244755,0.0869622441381216,-0.2198848599404096,-0.0293450690805912,0.0090355388820171,0.0131403664126992,standing,2026-03-04_13-53-07
1772632390169377300,2.313377197265625,0.0297454421833157,0.0741563924483954,-0.2196241631776094,-0.0242065582424402,0.016676690429449,0.0226916261017322,standing,2026-03-04_13-53-07
1772632390179326200,2.323326171875,0.0525025598492473,0.0464475706592202,-0.2153676747769117,-0.0110377594828605,0.0194833986461162,0.0281005073338747,standing,2026-03-04_13-53-07
1772632390189274400,2.3332744140625,0.0466460523733869,0.0085920333869755,-0.1858002195090055,0.006991078145802,0.0167108252644538,0.0291163679212331,standing,2026-03-04_13-53-07
1772632390199223300,2.343223388671875,0.005354878096655,-0.0182929047986865,-0.1764402704894542,0.0243913736194372,0.0130007751286029,0.022354869171977,standing,2026-03-04_13-53-07
1772632390209171200,2.353171142578125,-0.0312407222423702,-0.0445665792182087,-0.099671503585577,0.0343847535550594,0.0034472872503101,0.0109225437045097,standing,2026-03-04_13-53-07
1772632390219120400,2.363120361328125,0.0032138474799692,-0.0593912233844399,0.0224368727356195,0.0312411598861217,-0.0068857776932418,0.0053983493708074,standing,2026-03-04_13-53-07
1772632390229068300,2.373068359375,0.0175191439472138,-0.0581016219653189,0.1083984153985977,0.0163839403539896,-0.0154509358108043,0.0022226278670132,standing,2026-03-04_13-53-07
1772632390239017200,2.383017333984375,0.0167379669742658,-0.0311728446379303,0.137725047647953,-0.0043578227050602,-0.014864508062601,0.0034825694747269,standing,2026-03-04_13-53-07
1772632390248965400,2.39296533203125,0.0256486013237386,-0.0100786186829209,0.0904413184255361,-0.0209494605660438,-0.0026348182000219,0.0039268843829631,standing,2026-03-04_13-53-07
1772632390258914300,2.402914306640625,-0.0015787570914253,0.0241552209608256,-0.0166390001118183,-0.0223966222256422,0.019139451906085,0.0083131110295653,standing,2026-03-04_13-53-07
1772632390268862200,2.4128623046875,-0.0293659778790548,0.0486931576289236,-0.0915390505343675,-0.0155018093064427,0.0322324931621551,0.0073492536321282,standing,2026-03-04_13-53-07
1772632390278811100,2.42281103515625,-0.0565426290202885,0.0613939415089786,-0.0984416695296764,-0.000763077288866,0.0355313532054424,0.0032748840749263,standing,2026-03-04_13-53-07
1772632390288759300,2.43275927734375,-0.0288052021911367,0.0396313147731125,-0.0690957480579614,0.0138842221349477,0.0301565267145633,0.0040610181167721,standing,2026-03-04_13-53-07
1772632390298708500,2.44270849609375,0.0212260356411337,0.0715326198160648,-0.0034136078357696,0.0218910165131092,0.0218370780348777,0.0113149359822273,standing,2026-03-04_13-53-07
1772632390308656000,2.45265625,0.0311695201696827,0.0707502372667193,0.0843903478235006,0.0234608370810747,-0.001948804478161,0.0131197031587362,standing,2026-03-04_13-53-07
1772632390318605300,2.462605224609375,0.007910846189782,0.045637569450587,0.1409650524824857,0.0155427269637584,-0.0238232091069221,0.0092589166015386,standing,2026-03-04_13-53-07
1772632390328553500,2.472553466796875,-0.0231903945166617,0.000866115310043,0.130115741688013,0.005330809392035,-0.0186772476881742,0.0057810517027974,standing,2026-03-04_13-53-07
1772632390338502400,2.48250244140625,-0.0623329393921419,0.0316259952329099,0.0837958890616893,-0.0063101341947913,-0.0009794770739972,0.0092807114124298,standing,2026-03-04_13-53-07
1772632390348450300,2.4924501953125,-0.0608262246236205,0.0657727411150932,0.0425298126935958,-0.0130141945555806,0.0056410795077681,0.0097438199445605,standing,2026-03-04_13-53-07
1772632390358399500,2.5023994140625,-0.0691893080929294,0.0699200700528919,0.008023147457838,-0.0120195047929883,0.0083101000636816,0.0080676255747675,standing,2026-03-04_13-53-07
1772632390368347400,2.512347412109375,-0.0812825910665094,0.0747340462058782,-0.0408048885971307,-0.0067071844823658,0.0203130915760993,0.0101087316870689,standing,2026-03-04_13-53-07
1772632390378296300,2.52229638671875,-0.0660338397366926,0.0742582453876733,-0.0461152699649333,0.0048770331777632,0.0282088294625282,0.0135775003582239,standing,2026-03-04_13-53-07
1772632390388244500,2.532244384765625,-0.0220193414432927,0.0761827837094664,0.0050625440865755,0.0147504210472106,0.0182172115892171,0.0182116478681564,standing,2026-03-04_13-53-07
1772632390398193400,2.542193359375,-0.0509105779500678,0.0231925134085118,0.063870706886053,0.0138521362096071,-0.0054212724789977,0.0081550190225243,standing,2026-03-04_13-53-07
1772632390408141300,2.552141357421875,-0.0710783732425421,-0.0243419757045805,0.1026414593070745,0.0083946902304887,-0.0185489449650049,0.0017788375262171,standing,2026-03-04_13-53-07
1772632390418090200,2.56209033203125,-0.0449961297418922,-0.0363677829325199,0.0939817675113677,-0.0001769596710801,-0.0151496864855289,0.0051488019526004,standing,2026-03-04_13-53-07
1772632390428038400,2.572038330078125,-0.0318520956063643,-0.0145749071888625,0.0747965900480747,-0.0055693285539746,-0.0023084559943526,0.0083619048818945,standing,2026-03-04_13-53-07
1772632390437987300,2.5819873046875,-0.0389965970661491,-0.0186747437231242,0.0597521656513214,-0.0124581279233098,-0.011252949014306,0.0087877446785569,standing,2026-03-04_13-53-07
1772632390447935200,2.591935302734375,-0.0731789622509852,-0.0126874860070645,0.0226958159327507,-0.0143457967787981,-0.0258073341101408,0.0037735106889158,standing,2026-03-04_13-53-07
1772632390457884400,2.601884521484375,-0.0976431395631283,0.0077101359859108,-0.0920797332823276,-0.0062889344990253,-0.0167382061481475,0.000917803030461,standing,2026-03-04_13-53-07
1772632390467832300,2.611832275390625,-0.0928346433028578,0.0345199631087482,-0.1951461400032043,0.0064650084823369,0.0030096268747001,0.005645896308124,standing,2026-03-04_13-53-07
1772632390477781200,2.62178125,-0.0859989520639181,0.0304258256629109,-0.2172743851810693,0.0190321989357471,0.0140870464965701,0.0049979491159319,standing,2026-03-04_13-53-07
1772632390487730200,2.631730224609375,-0.1169356498584151,-0.017655045286566,-0.1571188994258642,0.0238568596541881,0.0144507959485054,-0.0056257471442222,standing,2026-03-04_13-53-07
1772632390497678300,2.64167822265625,-0.1130225315352901,-0.0570689179167151,-0.1154395660817623,0.0251833796501159,0.0180758889764547,-0.010984294116497,standing,2026-03-04_13-53-07
1772632390507627300,2.651627197265625,-0.0797711270576342,-0.05540916801095,-0.0211240365713834,0.02574198320508,0.0214393641799688,-0.0129119660705327,standing,2026-03-04_13-53-07
1772632390517575200,2.6615751953125,-0.0588178804758936,-0.0430177423410117,0.0724842214524745,0.0200316309928894,0.0154762817546725,-0.0120714735239744,standing,2026-03-04_13-53-07
1772632390527524400,2.6715244140625,-0.0265596517540514,-0.0376097458176314,0.1207756664127111,0.0133097693324089,0.003690977115184,-0.0106489611789584,standing,2026-03-04_13-53-07
1772632390537472300,2.68147216796875,-0.0217479406233876,-0.033142975667119,0.1360170746862888,0.0063517279922962,-0.0025988765992224,-0.0114827966317534,standing,2026-03-04_13-53-07
1772632390547421400,2.69142138671875,-0.0659763373957946,-0.0030934359706938,0.1217611703187227,0.0014301040209829,-0.006362727843225,-0.0140133816748857,standing,2026-03-04_13-53-07
1772632390557369300,2.701369384765625,-0.1034628952251747,0.007263122870773,0.0870429081588983,0.0014466154389083,0.0001218032557517,-0.022220179438591,standing,2026-03-04_13-53-07
1772632390567318500,2.711318603515625,-0.1301114673716947,-0.0056017655298113,0.0706932463824749,0.0018434175290167,0.0081764152273535,-0.0287436004728078,standing,2026-03-04_13-53-07
1772632390577266400,2.721266357421875,-0.0818265982827171,0.0092075349368155,0.0437736752748489,0.0064600072801113,0.0170929431915283,-0.027065010741353,standing,2026-03-04_13-53-07
1772632390587215400,2.73121533203125,-0.0631398353282362,0.0337973479226231,0.047661914885044,0.0136043149977922,0.0257030688226223,-0.0242585148662328,standing,2026-03-04_13-53-07
1772632390597163500,2.74116357421875,-0.0498000959575176,0.0262139070563018,0.1258580842435359,0.0115920305252075,0.0127566447481513,-0.0269064959138631,standing,2026-03-04_13-53-07
1772632390607112400,2.751112548828125,-0.0073164604932069,-0.0335001185417175,0.2418932781308889,-0.0020680879242718,-0.0248495433479547,-0.0298528838902711,standing,2026-03-04_13-53-07
1772632390617060400,2.761060302734375,-0.0133574576904997,-0.0542559063225984,0.2614174782902002,-0.0161077417433261,-0.0589896701276302,-0.0377294495701789,standing,2026-03-04_13-53-07
1772632390627009300,2.77100927734375,-0.046293293412961,-0.0454682042330503,0.1290571725457906,-0.0227934420108795,-0.0598968937993049,-0.0475664101541042,standing,2026-03-04_13-53-07
1772632390636957400,2.78095751953125,-0.0601743731187656,0.0052596740938723,-0.0718798258185386,-0.0214948840439319,-0.026917640119791,-0.0455581173300743,standing,2026-03-04_13-53-07
1772632390646906400,2.79090625,-0.024943814055249,0.0825252846039831,-0.1937321815520525,-0.0169965308159589,0.0021279791835695,-0.0367265380918979,standing,2026-03-04_13-53-07
1772632390656854300,2.800854248046875,0.0298338876517489,0.109898152437061,-0.212500594907999,-0.0139229763299226,0.0166691038757562,-0.0195203833281993,standing,2026-03-04_13-53-07
1772632390666803500,2.810803466796875,0.0703659871894866,0.1266768532805144,-0.2048398510217666,0.0008340110071003,0.0234496816992759,-0.0020272203255444,standing,2026-03-04_13-53-07
1772632390676751400,2.82075146484375,0.0906773191384971,0.1113715859904885,-0.1698293279170989,0.0197717491537332,0.0250976458191871,0.0075761387124657,standing,2026-03-04_13-53-07
1772632390686700300,2.8307001953125,0.0438044722719117,0.0560176552981138,-0.1012970589607954,0.0333854742348194,0.0143484147265553,0.0066730380058288,standing,2026-03-04_13-53-07
1772632390696648400,2.8406484375,0.0118420846914872,-0.006423018784821,-0.0396563030838966,0.0439062938094139,0.0031319796107709,0.0013296708930283,standing,2026-03-04_13-53-07
1772632390706597400,2.850597412109375,0.0012586948242038,-0.0367494757264852,0.0493587819308042,0.0402819402515888,-0.0018217550823464,-0.0045579466968774,standing,2026-03-04_13-53-07
1772632390716545300,2.860545166015625,0.0078468410428613,-0.0547194321811199,0.1276075582593679,0.0268151313066482,-0.003152270335704,-0.0081132669001817,standing,2026-03-04_13-53-07
1772632390726494200,2.870494140625,0.0442071713212877,-0.0387032401427626,0.164870244204998,0.0097810141742229,-0.0030764893162995,-0.0079617416486144,standing,2026-03-04_13-53-07
1772632390736442400,2.8804423828125,0.0631167832462117,-0.0267427532359957,0.1591886914372444,-0.0079194195568561,-0.0005448884330689,-0.0071042040362954,standing,2026-03-04_13-53-07
1772632390746391300,2.890391357421875,0.0473684118311852,-0.0306276318453252,0.1632294912606477,-0.0240649953484535,0.0017278587911278,-0.0073536923155188,standing,2026-03-04_13-53-07
1772632390756339200,2.900339111328125,0.029441600398533,-0.0171745682932436,0.1208165829449892,-0.031455535441637,-0.0033822145778685,-0.0102386940270662,standing,2026-03-04_13-53-07
1772632390766288400,2.910288330078125,0.0468459223270416,-0.0168102650254964,0.0305763400495052,-0.0275805369019508,-0.0026396918110549,-0.0071507259272038,standing,2026-03-04_13-53-07
1772632390776236300,2.920236328125,0.0442496587561443,0.0265212194398045,-0.0825099409043788,-0.0095645170658826,0.0079072248190641,0.001872862689197,standing,2026-03-04_13-53-07
1772632390786185200,2.930185302734375,0.0668438044127076,0.0718337947197258,-0.1722352200150489,0.0128845749422907,0.0219372175633907,0.0116273751482367,standing,2026-03-04_13-53-07
1772632390796133400,2.94013330078125,0.0772029205374419,0.0881888633236289,-0.1910708533883094,0.0338204838335514,0.032828215509653,0.0239327773451805,standing,2026-03-04_13-53-07
1772632390806082300,2.950082275390625,0.0588078705385327,0.0946003378011286,-0.0944154827535152,0.0460422374308109,0.0240273214876651,0.0267090871930122,standing,2026-03-04_13-53-07
1772632390816030200,2.9600302734375,0.0258496768537908,0.0310047945946454,0.0569131428331136,0.039983544498682,-0.0019616675563156,0.0207851510494947,standing,2026-03-04_13-53-07
1772632390825979400,2.9699794921875,0.0132934890761971,-0.0099662443496286,0.1605593952685594,0.0203913804143667,-0.0163082964718341,0.0142294904217123,standing,2026-03-04_13-53-07
1772632390835927300,2.97992724609375,-0.0221232767418026,-0.0145686235785484,0.1731529193818569,-0.0004550456069409,-0.0095915384590625,0.0097170304507017,standing,2026-03-04_13-53-07
1772632390845876500,2.98987646484375,-0.0566938740592449,0.0240143511854112,0.1456751298695802,-0.0203122906386852,-0.0030190618708729,0.0072514908388257,standing,2026-03-04_13-53-07
1772632390855824400,2.999824462890625,-0.0750562638975679,0.0341745106719434,0.1065519107490777,-0.0335117168724536,-0.0004131586756557,0.0021203784272074,standing,2026-03-04_13-53-07
1772632390865773300,3.009773193359375,-0.0322130378732457,0.0280538358345627,0.0050695583492517,-0.0299032665789127,0.0121455779299139,0.0090180588886141,standing,2026-03-04_13-53-07
1772632390875721500,3.019721435546875,-0.0016713672783225,0.0761504888750612,-0.1128758530735969,-0.0102427471429109,0.0388696007430553,0.0213745944201946,standing,2026-03-04_13-53-07
1772632390885670400,3.02967041015625,-0.0146430405216291,0.1103000112362205,-0.1483031402856111,0.0159283429384231,0.0441844835877418,0.0234341155737638,standing,2026-03-04_13-53-07
1772632390895618600,3.03961865234375,-0.0314039499800652,0.058307519800961,-0.0495516741544008,0.0309725403785705,0.0180618017911911,0.0206266120076179,standing,2026-03-04_13-53-07
1772632390905567500,3.0495673828125,-0.0159091514673084,-0.0262429870203137,0.0575625466525554,0.033115204423666,-0.0094875115901231,0.0162935815751552,standing,2026-03-04_13-53-07
1772632390915515400,3.059515380859375,-0.0330957389919087,-0.0477082382448017,0.0976034651398658,0.0271792821586132,-0.0100933806970715,0.010570446960628,standing,2026-03-04_13-53-07
1772632390925464300,3.06946435546875,-0.0717475046757608,-0.027378128530085,0.1158458087950944,0.0110311023890972,-0.0083085354417562,0.0050331526435911,standing,2026-03-04_13-53-07
1772632390935412500,3.07941259765625,-0.0772467962117865,-0.0066118193551898,0.1115326217710971,-0.0090637803077697,-0.0062515102326869,0.0053423452191054,standing,2026-03-04_13-53-07
1772632390945361400,3.089361328125,-0.0434008233744651,-0.0172989253252744,0.066675827434659,-0.0256160199642181,0.0059513663873076,0.0112988213077187,standing,2026-03-04_13-53-07
1772632390955309300,3.099309326171875,-0.0540313768517225,-0.0039222880102694,0.0059311436146497,-0.0302632376551628,0.0263589024543762,0.0165077000856399,standing,2026-03-04_13-53-07
1772632390965258200,3.10925830078125,-0.1042033383289352,0.0112220896296203,-0.050741176199913,-0.0214755460619926,0.0306969154626131,0.009716804139316,standing,2026-03-04_13-53-07
1772632390975206400,3.119206298828125,-0.1459773642191663,-0.0380864234186708,-0.0393529362231492,-0.0074963476508855,0.0129533382132649,-0.0010229253675788,standing,2026-03-04_13-53-07
1772632390985155300,3.1291552734375,-0.1434907715678215,-0.0596601034536957,-0.042367315608263,0.0079481694847345,-0.0015592754352837,-0.0073025096207857,standing,2026-03-04_13-53-07
1772632390995103200,3.139103271484375,-0.1225626228947192,-0.0368231254845857,-0.038385552495718,0.0147410947829484,-0.0051667932420969,-0.010891119018197,standing,2026-03-04_13-53-07
1772632391005052400,3.149052490234375,-0.1068153109256178,-0.0088597444124519,-0.0055699090868234,0.0171010792255401,-0.0089632542803883,-0.0152521040290594,standing,2026-03-04_13-53-07
1772632391015001300,3.15900146484375,-0.0831384480662643,-0.0264496155083179,0.0061304655790328,0.0159002598375082,-0.004475827794522,-0.015396979637444,standing,2026-03-04_13-53-07
1772632391024949200,3.16894921875,-0.0216956989794969,0.0129614806428551,0.0269657483369112,0.012035964988172,0.0136546893045306,-0.0091767841950058,standing,2026-03-04_13-53-07
1772632391034898200,3.178898193359375,-0.0192141478294506,0.050590077291429,0.0618617051512002,0.0042299735359847,0.0259481072425842,-0.003401453141123,standing,2026-03-04_13-53-07
1772632391044846300,3.188846435546875,-0.0334719518931582,0.0311010945759713,0.1319955640852451,-0.0087386136874556,0.0038737091235816,-0.0082874549552798,standing,2026-03-04_13-53-07
1772632391054795300,3.198795166015625,-0.028844803549163,-0.0139350018501281,0.1344932261198759,-0.0188988409936428,-0.003712571458891,-0.0114033538848161,standing,2026-03-04_13-53-07
1772632391064743200,3.2087431640625,-0.065814278701879,0.0004835457332432,0.0818114372462034,-0.0174453370273113,0.0198618602007627,-0.0133862346410751,standing,2026-03-04_13-53-07
1772632391074692400,3.2186923828125,-0.0615021511238068,0.0474900654494762,0.0719762719303369,-0.0178887527436018,0.0293078254908323,-0.0141545562073588,standing,2026-03-04_13-53-07
1772632391084640300,3.22864013671875,-0.0063513052554801,0.0242557587258517,0.1150245555400848,-0.0219117775559425,0.0128200594335794,-0.0152500728145241,standing,2026-03-04_13-53-07
1772632391094589400,3.23858935546875,0.051914676958695,-0.0046488487191498,0.1377881760120392,-0.0168043673038482,0.0035384115763008,-0.0073106572963297,standing,2026-03-04_13-53-07
1772632391104537300,3.248537353515625,0.0491564277591183,0.0123155839547514,0.1137789393931627,-0.0086749149486422,-0.0013716076500713,-0.004372474271804,standing,2026-03-04_13-53-07
1772632391114486500,3.258486572265625,0.0174133454851806,0.0268539585255086,0.1414268247753381,-0.0127375656738877,-0.0326930433511734,-0.0055224271491169,standing,2026-03-04_13-53-07
1772632391124434400,3.268434326171875,-0.0052298269448801,-0.0222546480365097,0.1671943032383918,-0.025470558553934,-0.0793767049908638,-0.0165733974426984,standing,2026-03-04_13-53-07
1772632391134383400,3.27838330078125,-0.0428738768909126,-0.0487074784152209,0.0294546425431966,-0.0350960232317447,-0.0749891474843025,-0.0244899094104766,standing,2026-03-04_13-53-07
1772632391144331500,3.28833154296875,-0.0865956393154337,0.0017453823626041,-0.1960737762421369,-0.0335551649332046,-0.024744376540184,-0.024430138990283,standing,2026-03-04_13-53-07
1772632391154280400,3.298280517578125,-0.1002599709980189,0.0845426157757639,-0.3352811714023351,-0.0291055552661418,0.0208726432174444,-0.0176172405481338,standing,2026-03-04_13-53-07
1772632391164228400,3.308228271484375,-0.0380751348396763,0.0898228942662477,-0.3370399977684021,-0.0238302014768123,0.0352640934288501,-0.0032412796281278,standing,2026-03-04_13-53-07
1772632391174177500,3.318177490234375,0.0405018870625644,0.051071138806641,-0.3355079658955335,-0.0010647024028003,0.041656743735075,0.014018933288753,standing,2026-03-04_13-53-07
1772632391184125400,3.32812548828125,0.0199657699143514,0.0679888097293675,-0.3210685216546058,0.0328106358647346,0.0498469546437263,0.0281473435461521,standing,2026-03-04_13-53-07
1772632391194074400,3.338074462890625,-0.0441806486405432,0.0386012410730123,-0.2228191598266363,0.0625517517328262,0.033664520829916,0.0245022736489772,standing,2026-03-04_13-53-07
1772632391204022500,3.3480224609375,-0.0637749548939988,-0.0577633299216628,-0.0692880557596683,0.0726621970534324,0.0022503486834466,0.0107934214174747,standing,2026-03-04_13-53-07
1772632391213971500,3.357971435546875,-0.0839834840556606,-0.1211029986709356,0.096150343722105,0.0667379945516586,-0.008386050350964,0.0004062941297888,standing,2026-03-04_13-53-07
1772632391223919400,3.36791943359375,-0.1296026045341044,-0.1140875669509172,0.2076665988802909,0.0473681911826133,-0.0040229992009699,-0.0123974354937672,standing,2026-03-04_13-53-07
1772632391233868300,3.377868408203125,-0.1459226383572444,-0.0885679257690906,0.2785048066914081,0.0162779130041599,-0.0108316373080015,-0.0257862117141485,standing,2026-03-04_13-53-07
1772632391243816400,3.38781640625,-0.0543240761879831,-0.0895490457609295,0.3113525988042354,-0.0154983820393681,-0.0098221786320209,-0.0268229711800813,standing,2026-03-04_13-53-07
1772632391253765400,3.397765380859375,-0.0065013812506571,-0.0459122947387397,0.2442348728209734,-0.0368838347494602,0.0061916750855743,-0.0204952992498874,standing,2026-03-04_13-53-07
1772632391263713300,3.40771337890625,-0.0479128939714282,0.019501257675141,0.1513490838527679,-0.0414845757186412,0.0215336624532938,-0.020414425060153,standing,2026-03-04_13-53-07
1772632391273662200,3.417662109375,-0.1003307712119072,0.0304115048766136,0.1045849945902824,-0.0428265407681465,0.0148824173957109,-0.0280566327273845,standing,2026-03-04_13-53-07
1772632391283610400,3.4276103515625,-0.0999880952540785,-0.0261684604793786,0.0594821165382862,-0.0388114377856254,0.004289791919291,-0.0387824364006519,standing,2026-03-04_13-53-07
1772632391293559300,3.437559326171875,-0.0826074829947203,-0.0472755459159612,0.0226297649592161,-0.0244934819638729,0.0053055211901664,-0.0413185618817806,standing,2026-03-04_13-53-07
1772632391303507500,3.447507568359375,-0.0524845127359032,0.050295478259027,-0.0365068991422653,-0.0047079133801162,-0.0068350085057318,-0.0367883294820785,standing,2026-03-04_13-53-07
1772632391313456400,3.457456298828125,0.0128211223240941,0.0682123893521726,-0.0914648162543773,0.0151448864489793,-0.0179592985659837,-0.0304915513843297,standing,2026-03-04_13-53-07
1772632391323404300,3.467404296875,0.0715450774388387,0.0781562757395207,-0.1156032322108745,0.032458409667015,-0.0105560794472694,-0.0165441688150167,standing,2026-03-04_13-53-07
1772632391333353200,3.477353271484375,0.0523709328262135,0.0910026055701077,-0.1175783316761255,0.0384963266551494,-0.0007937303744256,-0.0083770537748932,standing,2026-03-04_13-53-07
1772632391343301400,3.48730126953125,-0.000630772184208,0.0662875587694346,-0.0514729976058006,0.0293080527335405,0.0035654455423355,-0.0138006219640374,standing,2026-03-04_13-53-07
1772632391353250600,3.49725048828125,-0.0264889246053993,-0.0110780049838125,0.0376490549147129,0.0089804111048579,0.0004777763970196,-0.0215301811695098,standing,2026-03-04_13-53-07
1772632391363198500,3.507198486328125,0.0023573767811059,-0.0446533807188272,0.0942652606278657,-0.0168551243841648,0.0085881566628813,-0.0217305496335029,standing,2026-03-04_13-53-07
1772632391373147600,3.517147705078125,0.0140387910181656,-0.017133797891438,0.087015435630083,-0.0292092636227607,0.0117690358310937,-0.0184045284986495,standing,2026-03-04_13-53-07
1772632391383095600,3.527095458984375,0.0406801297063007,0.0182929047986865,0.030845220118761,-0.032664954662323,0.0036118649877607,-0.0162721071392297,standing,2026-03-04_13-53-07
1772632391393044700,3.537044677734375,0.0339816184483468,0.0092459672510623,-0.0682388389676809,-0.0158606730401515,0.0071802348829805,-0.0117948018014431,standing,2026-03-04_13-53-07
1772632391402992600,3.54699267578125,0.0099193364679813,0.0301930398203432,-0.1592021354407072,0.0068429578095674,0.0251122824847698,-0.0117041822522878,standing,2026-03-04_13-53-07
1772632391412941600,3.556941650390625,0.000354549058713,0.0303330328129231,-0.1840799715876579,0.0285905972123146,0.0369180776178836,-0.0117209600284695,standing,2026-03-04_13-53-07
1772632391422889700,3.5668896484375,0.0013962401313707,0.0295823605760931,-0.07818097178936,0.0396152287721633,0.0209803991019725,-0.0105083230882883,standing,2026-03-04_13-53-07
1772632391432838700,3.576838623046875,0.047972770932503,0.0148744746573269,0.0894365252971649,0.0338545441627502,-0.0025848471559584,-0.0062896097078919,standing,2026-03-04_13-53-07
1772632391442786800,3.586786865234375,0.0764090302133932,0.0028242636404931,0.1721744297385215,0.0188922863453626,-0.0075393067672848,0.0001818484161049,standing,2026-03-04_13-53-07
1772632391452735700,3.59673583984375,0.0280723944045603,0.0111170218199491,0.1966711576133966,0.0024371473118662,-0.0002691431436687,0.002923839027062,standing,2026-03-04_13-53-07
1772632391462684700,3.6066845703125,-0.0419323582570999,0.0207031808108091,0.2413075871974229,-0.0187061987817287,-0.0142494346946477,-0.0079319858923554,standing,2026-03-04_13-53-07
1772632391472632600,3.616632568359375,-0.0669584803009405,0.0053979135207831,0.1792038899838924,-0.0314646065235137,-0.0263566970825195,-0.0145888226106762,standing,2026-03-04_13-53-07
1772632391482581500,3.62658154296875,-0.0247456611346453,0.0152322020538151,0.0329226109147071,-0.0276946742087602,-0.0090877600014209,-0.0109272878617048,standing,2026-03-04_13-53-07
1772632391492529700,3.63652978515625,-0.0561869839830324,0.0850019038505852,-0.1021902084082364,-0.0100317914038896,0.0217788089066743,-0.0050254566594958,standing,2026-03-04_13-53-07
1772632391502478600,3.646478515625,-0.0829385050473734,0.1233789807789027,-0.151507489284873,0.0052578249014914,0.020193500444293,-0.011217744089663,standing,2026-03-04_13-53-07
1772632391512426500,3.656426513671875,-0.0697855934856459,0.0433148255914449,-0.0569815318942069,0.0079042082652449,0.0062758191488683,-0.0154953133314847,standing,2026-03-04_13-53-07
1772632391522375700,3.666375732421875,-0.0262780218010768,-0.003413753966242,0.0158732764363288,0.0069380444474518,0.0018703155219554,-0.0146429631859064,standing,2026-03-04_13-53-07
1772632391532323600,3.676323486328125,0.0022150822335854,0.0206038120895624,0.058508887591958,-0.0028645182028412,-0.0088172163814306,-0.0101344976574182,standing,2026-03-04_13-53-07
1772632391542272500,3.6862724609375,0.0320054960697889,0.0335955417402088,0.0140291098743677,-0.0037078438326716,-0.0079595251008868,-0.0060504991561174,standing,2026-03-04_13-53-07
1772632391552220700,3.696220703125,0.0106531671678647,0.0530989913724362,-0.093293200725317,0.0049511576071381,0.0170837752521038,0.0003964810166507,standing,2026-03-04_13-53-07
1772632391562169600,3.706169677734375,-0.0338342458669096,0.0680387863509356,-0.1378939744740724,0.0125551838427782,0.0353371948003768,-0.0012083804467692,standing,2026-03-04_13-53-07
1772632391572117500,3.716117431640625,-0.0484876981846988,0.0481577355779707,-0.0907581292897462,0.0178554058074951,0.0377103388309478,-0.0022235775832086,standing,2026-03-04_13-53-07
1772632391582066400,3.72606640625,-0.0694472649093717,-0.0349029710769653,-0.0026835399955511,0.0172642301768064,0.0358887538313865,-0.0077912993729114,standing,2026-03-04_13-53-07
1772632391592014600,3.7360146484375,-0.0544848927728831,-0.0584006049118936,0.0891945332348346,0.0122649446129798,0.0339859239757061,-0.0100845471024513,standing,2026-03-04_13-53-07
1772632391601963500,3.745963623046875,-0.0226245042622089,-0.0684263243637979,0.1800596300303936,7.80168920755e-05,0.0272410400211811,-0.0107904244214296,standing,2026-03-04_13-53-07
1772632391611911400,3.755911376953125,-0.0063037032540887,-0.0973093044988811,0.2604272982090711,-0.0122492220252752,0.0029189214110374,-0.0154267214238643,standing,2026-03-04_13-53-07
1772632391621860600,3.765860595703125,0.0014335399344563,-0.1463997908823192,0.2308072359710931,-0.0152585143223404,-0.016707420349121,-0.0178129151463508,standing,2026-03-04_13-53-07
1772632391631808500,3.77580859375,-0.0241556593522429,-0.1088366606853902,0.1523147140145301,-0.0128701915964484,-0.0228422787040472,-0.0248415302485227,standing,2026-03-04_13-53-07
1772632391641757700,3.7857578125,-0.0611503054788336,-0.0656111208125948,0.0899830532640218,-0.0132886786013841,-0.0285433419048786,-0.0366420336067676,standing,2026-03-04_13-53-07
1772632391651705600,3.79570556640625,-0.0655308221179992,-0.0577644989654421,0.0306073197096586,-0.0211090520024299,-0.0305790621787309,-0.0407334454357624,standing,2026-03-04_13-53-07
1772632391661654800,3.80565478515625,-0.0685242317803204,-0.0102500297270715,0.0047422260910272,-0.0324196554720401,-0.0212079249322414,-0.0406535007059574,standing,2026-03-04_13-53-07
1772632391671602700,3.815602783203125,-0.064410987775214,0.041606268107891,-0.0786176096409559,-0.0420778766274452,0.0006505020428448,-0.0358121395111084,standing,2026-03-04_13-53-07
1772632391681551600,3.825551513671875,-0.0389187095243483,0.0775926505073904,-0.1551689344018697,-0.0365106984972953,0.0185465365648269,-0.0250854007899761,standing,2026-03-04_13-53-07
1772632391691499800,3.835499755859375,-0.0127514911539852,0.1047353628464043,-0.246259072124958,-0.0181697756052017,0.0308655221015214,-0.0132926581427454,standing,2026-03-04_13-53-07
1772632391701448700,3.84544873046875,0.0100042748050764,0.1345433488719165,-0.2817377972632646,0.0135035803541541,0.0354107171297073,0.0002482512500137,standing,2026-03-04_13-53-07
1772632391711396600,3.855396728515625,0.0003040975131094,0.1230970950976014,-0.263045956274867,0.0477177426218986,0.0316655114293098,0.0062922951765358,standing,2026-03-04_13-53-07
1772632391721345500,3.865345458984375,-0.0296747515672817,0.0729594377487897,-0.1497778890132904,0.067239262163639,0.0212354809045791,0.0009108639787882,standing,2026-03-04_13-53-07
1772632391731293700,3.875293701171875,-0.0421089204004034,0.018747808959335,0.0072293667316436,0.0657276511192321,0.0083284704014658,-0.006127337925136,standing,2026-03-04_13-53-07
1772632391741242600,3.88524267578125,-0.0576331276707351,0.0064953533686697,0.1880319240838289,0.0435491129755973,-0.0053364755585789,-0.0141860637813806,standing,2026-03-04_13-53-07
1772632391751190800,3.895190673828125,-0.002612118727155,-0.0063769876860082,0.29487609577775,0.00800496712327,-0.0003920507151633,-0.0183384642004966,standing,2026-03-04_13-53-07
1772632391761139700,3.9051396484375,0.0104795641666278,0.0149357033252716,0.359291577064991,-0.032117486000061,0.0020057514775544,-0.0204542558640241,standing,2026-03-04_13-53-07
1772632391771087600,3.915087646484375,-0.0129469771934673,0.0216515675768256,0.3450637297481298,-0.0619582049548625,-0.0005777813494205,-0.0178187917917966,standing,2026-03-04_13-53-07
1772632391781036500,3.92503662109375,-0.0073980012968182,0.0352791109129786,0.2237514722406864,-0.0709749311208725,0.00258713029325,-0.0112990075722336,standing,2026-03-04_13-53-07
1772632391790984700,3.934984619140625,-0.0110282840905711,0.0893872793279588,0.0805301652640104,-0.059303093701601,-0.0005431491881608,-0.0029497309587895,standing,2026-03-04_13-53-07
1772632391800933600,3.94493359375,-0.0388426120808348,0.114225075725466,-0.0489911176621913,-0.0307396613061428,-0.0013068411499261,0.0014637855347245,standing,2026-03-04_13-53-07
1772632391810881500,3.954881591796875,-0.0196167372809723,0.1115315988577902,-0.0992956560105085,0.000440627336502,-0.0051220855675637,0.0054361568763852,standing,2026-03-04_13-53-07
1772632391820830500,3.96483056640625,-0.0140605279259383,0.1129214457809925,-0.056239189094305,0.0238819196820259,-0.0183204226195812,0.0075434478931128,standing,2026-03-04_13-53-07
1772632391830778600,3.974778564453125,-0.0181213841566815,0.0759529204763472,0.0420154334306716,0.0269432216882705,-0.0335670188069343,0.0042342045344412,standing,2026-03-04_13-53-07
1772632391840727600,3.9847275390625,-0.0130066349588334,0.0374535323426127,0.1551490606576204,0.0137106869369745,-0.0526081211864948,-0.0023441007360816,standing,2026-03-04_13-53-07
1772632391850675500,3.994675537109375,-0.0021982041640207,0.0042557577483356,0.1598521237820386,-0.0089339055120944,-0.0444228947162628,-0.0017302421620115,standing,2026-03-04_13-53-07
1772632391860624600,4.004624755859375,-0.0286942160973325,0.0319699863649904,0.1089034423112869,-0.0318829081952571,-0.0176420025527477,-0.0023060273379087,standing,2026-03-04_13-53-07
1772632391870573600,4.014573486328125,-0.0545387783845886,0.0211710905835032,0.0628518852323293,-0.0503037236630916,-0.0064444756135344,-0.0061577567830681,standing,2026-03-04_13-53-07
1772632391880521500,4.024521484375,-0.0389528309896588,-0.0207512577362358,0.0346130482196807,-0.0651050955057144,-0.0077282548882067,-0.0112613309174776,standing,2026-03-04_13-53-07
1772632391890470400,4.034470458984375,-0.0231849146239459,-0.0358653863683342,-0.0727338122993707,-0.0573054924607276,-0.0054200934246182,-0.013175344094634,standing,2026-03-04_13-53-07
1772632391900418600,4.04441845703125,-0.0324978826966136,-0.0259324597664177,-0.1840881548941135,-0.0382324829697608,0.0010365303605794,-0.0153951244428753,standing,2026-03-04_13-53-07
1772632391910367700,4.05436767578125,-0.0158933328436687,-0.0456052746161818,-0.2488724694937467,-0.0139519143849611,0.0029649250209331,-0.0167562644928693,standing,2026-03-04_13-53-07
1772632391920315400,4.0643154296875,0.0169034597342833,-0.0555148203425109,-0.2404442483663559,0.0038920422084629,0.0067079258151352,-0.0132117122411727,standing,2026-03-04_13-53-07
1772632391930264800,4.074264892578125,0.0227415182380005,-0.0524232840679585,-0.2019499747991562,0.0185575373470783,0.0076618702150881,-0.0070824469439685,standing,2026-03-04_13-53-07
1772632391940212700,4.084212646484375,0.0256110457923263,-0.0464414331793785,-0.1380693310409784,0.0279908645898103,0.0083860056474804,-0.0030161342583596,standing,2026-03-04_13-53-07
1772632391950161700,4.09416162109375,0.0186020438130944,-0.0726778443284332,-0.1000292309820651,0.0300763864070177,0.0089127784594893,-0.0051618432626128,standing,2026-03-04_13-53-07
1772632391960109800,4.10410986328125,-0.0394067853022366,-0.069584262227267,-0.0335574016869068,0.0261266976594924,0.0053303111344575,-0.0118385050445795,standing,2026-03-04_13-53-07
1772632391970058800,4.114058837890625,-0.1024602209886536,-0.0873152953594923,0.0095557638525962,0.0214770846068859,-0.0015166758093982,-0.0239939708262681,standing,2026-03-04_13-53-07
1772632391980006700,4.124006591796875,-0.0620696488134562,-0.0747908909596502,0.0164314948409795,0.0149382315576076,-0.0028670458123087,-0.0260432641953229,standing,2026-03-04_13-53-07
1772632391989955600,4.13395556640625,-0.0203647061040624,0.0036461014173924,0.0102156890660524,0.0125158205628395,-0.0032510736491531,-0.0175017081201076,standing,2026-03-04_13-53-07
1772632391999903700,4.14390380859375,0.0003284282367676,0.0790019327834248,-0.0079945058852434,0.0131173655390739,0.0040440154261887,-0.0041764909401535,standing,2026-03-04_13-53-07
1772632392009852700,4.153852783203125,0.0057705096928402,0.0933845322705805,0.0011392331629991,0.0147168599069118,0.0082669891417026,0.0020081677939742,standing,2026-03-04_13-53-07
1772632392019800600,4.163800537109375,-0.0560054899362847,0.0944128524050116,0.0304787248939275,0.0119326999410986,0.0077082253992557,0.0003519160673022,standing,2026-03-04_13-53-07
1772632392029749500,4.17374951171875,-0.1069832148384302,0.0531998213984072,0.0634668022602796,0.0092117479071021,0.0070464303717017,-0.00848338752985,standing,2026-03-04_13-53-07
1772632392039697700,4.18369775390625,-0.1030091601083055,0.052133361210674,0.0768646284937858,0.0095291789621114,0.0088708698749542,-0.0147176077589392,standing,2026-03-04_13-53-07
1772632392049646600,4.193646484375,-0.0761421594381332,0.065370297794044,0.0981768811136484,0.0108471773564815,0.0063680312596261,-0.0156616978347301,standing,2026-03-04_13-53-07
1772632392059594800,4.2035947265625,0.0047694428915157,0.0936104499809444,0.1340232705205679,0.0112040415406227,-0.0014669885858893,-0.0088514620438218,standing,2026-03-04_13-53-07
1772632392069543700,4.213543701171875,0.0813043279742822,0.0942920025043189,0.1624783806324005,0.0067296642810106,-0.0115113668143749,0.0013889244291931,standing,2026-03-04_13-53-07
1772632392079491600,4.22349169921875,0.0730078434677794,0.1026743386633694,0.1928992378592491,-0.0029085716232657,-0.0132536347955465,0.0034299883991479,standing,2026-03-04_13-53-07
1772632392089440500,4.2334404296875,0.0267316838527098,0.0798965435355901,0.1907084498167038,-0.0144184874370694,-0.0065523227676749,0.000390522647649,standing,2026-03-04_13-53-07
1772632392099388700,4.243388671875,-0.020226612807624,0.0213258427537977,0.2038216138899326,-0.0275061968713998,0.0006135425064712,-0.0037969541735947,standing,2026-03-04_13-53-07
1772632392109337600,4.253337646484375,-0.0390695161718875,0.0079880761444568,0.1807803455203771,-0.0396765731275081,0.0032836280297487,-0.0095435231924057,standing,2026-03-04_13-53-07
1772632392119285500,4.263285400390625,-0.0218234900776296,-0.0014079671017825,0.1395019941926002,-0.0476405546069145,0.0053656976670026,-0.0125258984044194,standing,2026-03-04_13-53-07
1772632392129234400,4.273234375,0.016036211913079,-0.0024092530988156,0.0670949296295642,-0.040995966643095,0.0126236109063029,-0.0120800854638218,standing,2026-03-04_13-53-07
1772632392139182600,4.2831826171875,0.0634525180066004,0.0034812662445008,-0.00018646248281,-0.0247953012585639,0.0158454813063144,-0.0045483307912945,standing,2026-03-04_13-53-07
1772632392149131500,4.293131591796875,0.0871152792753651,0.0039284254901111,0.0229985982716083,-0.0120925549417734,-0.0042723035439848,0.0015284703113138,standing,2026-03-04_13-53-07
1772632392159079400,4.303079345703125,0.0829191792923957,-0.0302557297930121,0.042134091374278,-0.0092144478112459,-0.0338574647903442,-0.000814706319943,standing,2026-03-04_13-53-07
1772632392169028600,4.313028564453125,0.0622389774983748,-0.0702643534459173,0.0355050286233425,-0.0115495081990957,-0.0501853041350841,-0.0054869558662176,standing,2026-03-04_13-53-07
1772632392178976500,4.3229765625,0.0123134650629013,-0.0639275516398251,0.0224830499649047,-0.02425585873425,-0.0517520643770694,-0.0126329474151134,standing,2026-03-04_13-53-07
1772632392188925400,4.332925537109375,-0.0137744409935548,-0.0420142643868923,-0.0462362659960985,-0.0467055067420005,-0.0419827923178672,-0.0171009339392185,standing,2026-03-04_13-53-07
1772632392198873600,4.34287353515625,-0.0437345853734761,0.0002953296847641,-0.1464315011948347,-0.0596142150461673,-0.0132123995572328,-0.0133065106347203,standing,2026-03-04_13-53-07
1772632392208822800,4.35282275390625,0.0175183767622336,0.0631377164363861,-0.3146756057471037,-0.054155271500349,0.0303688999265432,0.0032018919009715,standing,2026-03-04_13-53-07
1772632392218770400,4.3627705078125,0.0460353365965187,0.1455937351964414,-0.4102870202869176,-0.0260600056499242,0.0640853494405746,0.0256208945065736,standing,2026-03-04_13-53-07
1772632392228719600,4.3727197265625,0.075620144858025,0.1602509138412773,-0.393159944397211,0.0133731514215469,0.0585062876343727,0.040058959275484,standing,2026-03-04_13-53-07
1772632392238667800,4.382667724609375,0.0918068711576983,0.095209409610182,-0.2789122184485197,0.0517593696713447,0.0236499030143022,0.0442434251308441,standing,2026-03-04_13-53-07
1772632392248616700,4.39261669921875,0.067473992075026,0.036021599843353,-0.1460246739596128,0.0781174823641777,-0.0075255939736962,0.0374342538416385,standing,2026-03-04_13-53-07
1772632392258564600,4.402564697265625,0.0306418795663863,0.0106863753177225,-0.0373158774375915,0.0882724151015281,-0.0178220104426145,0.0316159203648567,standing,2026-03-04_13-53-07
1772632392268513800,4.412513671875,0.0231394315144047,0.0291530292481183,0.0865706144720315,0.0731142312288284,-0.0139340609312057,0.0253742691129446,standing,2026-03-04_13-53-07
1772632392278462700,4.422462646484375,0.0376948302851989,0.0295917129263281,0.2213531789273023,0.0382904969155788,-0.006779121235013,0.0255972016602754,standing,2026-03-04_13-53-07
1772632392288410600,4.43241064453125,0.0477928477883338,0.0250876795053482,0.278382057094574,-0.0070237219333648,0.006809392478317,0.0283628944307565,standing,2026-03-04_13-53-07
1772632392298359600,4.442359619140625,0.0328804888060316,0.0464206826522946,0.3141314158678054,-0.0455590970814228,0.0096498169004917,0.0314128883183002,standing,2026-03-04_13-53-07
1772632392308307700,4.4523076171875,0.0091375749731436,0.0632084435850381,0.2554062551766634,-0.0661357417702674,0.0070100920274853,0.0312128849327564,standing,2026-03-04_13-53-07
1772632392318256600,4.462256591796875,0.0176357925968244,0.0840634539566934,0.110119247841835,-0.0556542873382568,0.0123171089217066,0.0378725416958332,standing,2026-03-04_13-53-07
1772632392328204500,4.47220458984375,-0.0215115380516275,0.1375517369076609,-0.0448632240772247,-0.0275203883647918,0.0250627305358648,0.0407165326178073,standing,2026-03-04_13-53-07
1772632392338153700,4.48215380859375,-0.0777825105236843,0.1414506440423429,-0.0997375545591115,0.0052090692333877,0.0221927613019943,0.0354578606784343,standing,2026-03-04_13-53-07
1772632392348101400,4.492101318359375,-0.0619173077959567,0.09182824273929,-0.0370879139006137,0.0227379947900772,0.0015854877419769,0.0310213025659322,standing,2026-03-04_13-53-07
1772632392358050300,4.50205029296875,-0.0360913406113162,0.0550021946452558,0.055828854727745,0.0304857064038515,-0.0109329503029584,0.0338758267462253,standing,2026-03-04_13-53-07
1772632392367998500,4.51199853515625,-0.0202542314669117,0.0485905740372836,0.1411503459215164,0.0232299249619245,-0.0172124188393354,0.0372849404811859,standing,2026-03-04_13-53-07
1772632392377947400,4.521947509765625,-0.0084290613776072,0.0456682568497955,0.2190600995540619,0.0016910335980355,-0.0473082847893238,0.0341241508722305,standing,2026-03-04_13-53-07
1772632392387895300,4.531895263671875,-0.0206880928395316,-0.0070996028721332,0.1936550246626138,-0.0207780562341213,-0.0570317544043064,0.0254502370953559,standing,2026-03-04_13-53-07
1772632392397844500,4.541844482421875,-0.0872751825448125,-0.0096327746115624,0.0460883819580078,-0.0331889800727367,-0.0273191202431917,0.0211338829249143,standing,2026-03-04_13-53-07
1772632392407792400,4.55179248046875,-0.1314551735982299,0.0287589153639972,-0.0780067842662334,-0.041034385561943,0.0107097551226615,0.0168326124548912,standing,2026-03-04_13-53-07
1772632392417741600,4.561741455078125,-0.1318656906278804,0.0319926365882158,-0.1199789630770683,-0.0454423986375331,0.0219652075320482,0.011547727510333,standing,2026-03-04_13-53-07
1772632392427689500,4.571689453125,-0.0894235196851193,-0.0106447281330823,-0.1125876837819814,-0.0418758951127529,0.0241737682372331,0.0145600289106369,standing,2026-03-04_13-53-07
1772632392437638400,4.581638427734375,-0.0608795257134363,0.0092459672510623,-0.1513303791522979,-0.0274579711258411,0.0349972732365131,0.0211244951933622,standing,2026-03-04_13-53-07
1772632392447586600,4.591586669921875,-0.0640111017374321,0.0267984289459884,-0.138176298546791,-0.0085077174007892,0.0281620025634765,0.0248609110713005,standing,2026-03-04_13-53-07
1772632392457535500,4.601535400390625,-0.0456101334543898,-0.0086086922608315,-0.0960749403983354,0.0083938781172037,0.0016889765392988,0.0221200454980134,standing,2026-03-04_13-53-07
1772632392467483600,4.611483642578125,-0.0320341376423835,-0.0446644866347312,-0.0668617053955793,0.0256796572357416,-0.0145227499306201,0.0261784363538026,standing,2026-03-04_13-53-07
1772632392477432600,4.6214326171875,-0.0310540040312334,-0.0188464470282197,-0.0589870264977216,0.0403096415102481,-0.0180709119886159,0.0240795649588108,standing,2026-03-04_13-53-07
1772632392487380500,4.63138037109375,-0.0733743021599948,-0.0022182605713605,-0.0042412908315658,0.0397772789001464,-0.0189217925071716,0.0196014605462551,standing,2026-03-04_13-53-07
1772632392497329400,4.641329345703125,-0.0841163897203281,-0.0247286369346082,0.0804424869805574,0.0236390382051467,-0.0244409013539552,0.0114668179303407,standing,2026-03-04_13-53-07
1772632392507277600,4.651277587890625,-0.1189960895195603,-0.0475033633224666,0.117573655501008,0.0007600886747241,-0.0124175269156694,0.0013944758102297,standing,2026-03-04_13-53-07
1772632392517226500,4.6612265625,-0.158774411547929,-0.0402834950715303,0.1095394021272659,-0.0207921285182237,0.0072066383436322,-0.0078806728124618,standing,2026-03-04_13-53-07
1772632392527174400,4.67117431640625,-0.1432271887281909,-0.0102449151605367,0.1133037230968475,-0.0390262566506862,0.0083083882927894,-0.0114895226433873,standing,2026-03-04_13-53-07
1772632392537123300,4.681123291015625,-0.0719110612070187,0.0079174951262772,0.0770639504581689,-0.0413589850068092,-0.0041282684542238,-0.0024978094734251,standing,2026-03-04_13-53-07
1772632392547071500,4.691071533203125,-0.0260035157086327,0.067064680621773,-0.0082277301192283,-0.0221935473382473,-0.0045964522287249,0.0108134681358933,standing,2026-03-04_13-53-07
1772632392557020400,4.7010205078125,-0.053478053817898,0.0937691476739943,-0.0835714326560497,0.0019367393106222,-0.0090988539159297,0.0157549493014812,standing,2026-03-04_13-53-07
1772632392566968300,4.71096826171875,-0.0924231398925185,0.0639342736415565,-0.0998725791156291,0.0223810281604528,-0.020524613559246,0.0105708399787545,standing,2026-03-04_13-53-07
1772632392576917500,4.72091748046875,-0.1510874737745151,0.0080645023815333,-0.0586819060713052,0.0348439179360866,-0.0261956639587879,-0.0047404319047927,standing,2026-03-04_13-53-07
1772632392586865400,4.730865478515625,-0.2057839269388467,-0.029805501807481,-0.0124801268666982,0.0330486819148063,-0.0228299610316753,-0.0200623963028192,standing,2026-03-04_13-53-07
1772632392596814300,4.740814453125,-0.1692487150175496,-0.0465497158594429,0.083699442949891,0.0172928757965564,-0.0274861752986907,-0.031438123434782,standing,2026-03-04_13-53-07
1772632392606762500,4.750762451171875,-0.0665405471498146,-0.0317195187352597,0.1256441492319107,-0.004839589819312,-0.0283924490213394,-0.0301315765827894,standing,2026-03-04_13-53-07
1772632392616711400,4.76071142578125,-0.0133952324176207,0.0112109837137162,0.0887006122380495,-0.0188537165522575,-0.0036710484419018,-0.0207629669457674,standing,2026-03-04_13-53-07
1772632392626659300,4.770659423828125,-0.0117967477124184,0.0526822272650897,0.0389303268969059,-0.0238966792821884,0.0154139632359147,-0.0133692324161529,standing,2026-03-04_13-53-07
1772632392636608300,4.780608154296875,-0.004296455084905,0.0563788898259401,0.0318441680282354,-0.0252686087042093,0.0101830791682004,-0.0061898045241832,standing,2026-03-04_13-53-07
1772632392646556400,4.790556396484375,0.0030813436741009,0.02428220834136,0.0503191513955593,-0.0167480912059545,0.0016881281044334,-0.0053788721561431,standing,2026-03-04_13-53-07
1772632392656505300,4.80050537109375,-0.0260737679332494,0.0271637551270425,0.0469493827015161,-0.007462088484317,-0.0070559429004788,-0.011243911460042,standing,2026-03-04_13-53-07
1772632392666453200,4.810453369140625,-0.051470038463734,-0.0089295947782695,0.0672773004591465,0.0002011572942137,-0.0214079841971397,-0.0203796196728944,standing,2026-03-04_13-53-07
1772632392676402400,4.82040234375,-0.0364701107958331,-0.0407535968013107,0.0875567028999328,0.0049493070691823,-0.0304267778992652,-0.0318866036832332,standing,2026-03-04_13-53-07
1772632392686351600,4.8303515625,-0.0014527560915797,-0.0148832424856722,0.0744569828301668,0.0026374170556664,-0.0271377749741077,-0.0310311987996101,standing,2026-03-04_13-53-07
1772632392696299500,4.840299560546875,0.0496941148323938,0.0385275913149118,0.0954307972759008,-0.0069835586473345,-0.0299487579613924,-0.0255204662680625,standing,2026-03-04_13-53-07
1772632392706248400,4.85024853515625,0.0806241271577775,0.038800416906923,0.1403507199764251,-0.0246323272585868,-0.0461919121444225,-0.0194671023637056,standing,2026-03-04_13-53-07
1772632392716196600,4.860196533203125,0.1039709908777847,0.0249419874243438,0.1045516768425703,-0.042269293218851,-0.0529557727277278,-0.0157437063753604,standing,2026-03-04_13-53-07
1772632392726145500,4.8701455078125,0.0322919848609715,0.0444368153586983,-0.0203945532530546,-0.0497423894703388,-0.0363222025334835,-0.0139458067715168,standing,2026-03-04_13-53-07
1772632392736093400,4.880093505859375,-0.0542637608354911,0.0727956254892051,-0.1666834311068057,-0.0469520650804042,-0.0106465686112642,-0.0162749290466308,standing,2026-03-04_13-53-07
1772632392746042400,4.89004248046875,-0.0344831016970798,0.0820914232313632,-0.2550292385578155,-0.0318418219685554,0.0115008112043142,-0.0120322480797767,standing,2026-03-04_13-53-07
1772632392755990500,4.899990478515625,0.0489889622377231,0.1242301907807588,-0.2880073790520429,-0.0058522820472717,0.0262686442583799,0.0063308938406407,standing,2026-03-04_13-53-07
1772632392765939500,4.909939453125,0.0851236670667305,0.1518359905868768,-0.2757844418168068,0.0266398806124925,0.037070158869028,0.0202773362398147,standing,2026-03-04_13-53-07
1772632392775887600,4.9198876953125,0.0764111491052433,0.1244581543177366,-0.1778647503346204,0.0499954484403133,0.0227939113974571,0.026116706430912,standing,2026-03-04_13-53-07
1772632392785836500,4.92983642578125,0.061350759954378,0.023937340426445,0.0263239433020353,0.0557185783982276,-0.0124069508165121,0.0220633763819932,standing,2026-03-04_13-53-07
1772632392795784400,4.939784423828125,0.0592672682112082,-0.068055883616209,0.1686199521273374,0.0440168119966983,-0.0394943095743656,0.0129847293719649,standing,2026-03-04_13-53-07
1772632392805733400,4.9497333984375,0.0109691743144765,-0.0688747987836599,0.2336690551429986,0.0190717838704586,-0.0433409810066223,0.0039832442998886,standing,2026-03-04_13-53-07
1772632392815681500,4.959681640625,-0.0014789134461432,-0.0520364767074584,0.2185632559478282,-0.0123515492305159,-0.0344068668782711,-0.0034711603075265,standing,2026-03-04_13-53-07
1772632392825630500,4.96963037109375,0.0275767198421061,-0.0328773104682564,0.1725344952225685,-0.0431075990200042,-0.0201429761946201,-0.0032178936526179,standing,2026-03-04_13-53-07
1772632392835578400,4.979578369140625,0.0365708312239497,0.022223229984939,0.048090953952074,-0.0571967996656894,0.0087198577821254,0.0063364449888467,standing,2026-03-04_13-53-07
1772632392845527300,4.98952734375,0.0182733598480001,0.0877003491543233,-0.0994908863216638,-0.0503189153969287,0.0252543594688177,0.0121828829869627,standing,2026-03-04_13-53-07
1772632392855475500,4.999475341796875,0.0249013631530106,0.0706966073833405,-0.1698509552270174,-0.0274800136685371,0.0296532157808542,0.0171112865209579,standing,2026-03-04_13-53-07
1772632392865424400,5.00942431640625,0.0698641386145725,0.077512424878031,-0.1865010612547397,0.0002892999909818,0.027048110961914,0.0271484740078449,standing,2026-03-04_13-53-07
1772632392875372300,5.019372314453125,0.0869821178823709,0.1081092231936752,-0.1301812081396579,0.0302452836185693,0.0168419424444437,0.0374622084200382,standing,2026-03-04_13-53-07
1772632392885321500,5.029321533203125,0.0729633102063089,0.0963822527818381,-0.0204424840480089,0.042930718511343,-0.0049270009621977,0.0403136536478996,standing,2026-03-04_13-53-07
1772632392895269400,5.039269287109375,0.0560161939933896,0.0406659185178577,0.0990431425541639,0.0391922928392887,-0.0232927128672599,0.0373919680714607,standing,2026-03-04_13-53-07
1772632392905218300,5.04921826171875,0.0179696641936898,-0.0021789514742791,0.1707441046744585,0.0222868137061595,-0.0290965400636196,0.034709632396698,standing,2026-03-04_13-53-07
1772632392915166500,5.05916650390625,-0.0378633552525192,-8.50479349493e-05,0.1725958700209856,0.0012750402092933,-0.0189356189221143,0.0304761454463005,standing,2026-03-04_13-53-07
1772632392925115400,5.069115478515625,-0.0579250232893973,0.0267201030127704,0.1279202774703502,-0.0180983915925025,-0.0044778501614928,0.0265738144516944,standing,2026-03-04_13-53-07
1772632392935063300,5.079063232421875,-0.0602136456832289,0.038617753816396,0.1036731404423713,-0.0298881772905588,0.0047900420613586,0.0242544952780008,standing,2026-03-04_13-53-07
1772632392945012200,5.08901220703125,-0.03913001418747,0.039927813501656,0.0558954902231693,-0.0360243692994117,0.0148772969841957,0.0265560001134872,standing,2026-03-04_13-53-07
1772632392954960400,5.09896044921875,-0.0515155215732753,0.049565264288336,0.0178021986722946,-0.0324189066886901,0.0235608611255884,0.0283954571932554,standing,2026-03-04_13-53-07
1772632392964909600,5.10890966796875,-0.0769650931935757,0.0238727507576346,-0.0044043724387884,-0.0238935984671115,0.0232239700853824,0.0251370798796415,standing,2026-03-04_13-53-07
1772632392974857200,5.118857177734375,-0.0792369105830788,-0.0170366211272776,-0.0121042792916297,-0.0133489333093166,0.0161048788577318,0.0224806722253561,standing,2026-03-04_13-53-07
1772632392984806700,5.128806640625,-0.0473565387303009,-0.02174596786201,-0.0072521630853414,-0.0021024043671786,0.0043440936133265,0.0218468401581048,standing,2026-03-04_13-53-07
1772632392994754600,5.138754638671875,-0.0438726056046783,-0.0181105339691042,0.0564794275909662,0.0038876689504832,-0.0164550431072711,0.0252472050487995,standing,2026-03-04_13-53-07
1772632393004703500,5.148703369140625,-0.0277068855604156,-0.0134181383691728,0.0806330411165952,0.0038935279008001,-0.0341746509075164,0.0257731787860393,standing,2026-03-04_13-53-07
1772632393014651600,5.158651611328125,-0.0444025842955335,-0.0259773218214511,0.0349456411749124,0.0025833989493548,-0.0309785697609186,0.0234305933117866,standing,2026-03-04_13-53-07
1772632393024600600,5.1686005859375,-0.0682100877972319,-0.0235718681149184,-0.0221025262147188,-0.0003767046146094,-0.0174795389175415,0.0202824715524911,standing,2026-03-04_13-53-07
1772632393034548500,5.178548583984375,-0.1139584606785327,-0.0125273270092904,-0.0587917961865663,-0.0079509317874908,-0.0020533362403512,0.0153632573783397,standing,2026-03-04_13-53-07
1772632393044497400,5.188497314453125,-0.1319001408867537,-0.0339379254370927,-0.0545318006545305,-0.0167753174901008,0.0067388238385319,0.0062951939180493,standing,2026-03-04_13-53-07
1772632393054446300,5.1984462890625,-0.100229502794519,-0.0513844425395131,-0.0382394220232963,-0.0196582116186618,0.0112080499529838,0.0044836844317615,standing,2026-03-04_13-53-07
1772632393064394500,5.20839453125,-0.0711036903468892,-0.0139224346294999,-0.0337824426144361,-0.0157676003873348,0.0105302743613719,0.0053912894800305,standing,2026-03-04_13-53-07
1772632393074343400,5.218343505859375,-0.0476503705777227,0.02362023730129,-0.0677396572738885,-0.0068779145367443,0.0049372394569218,0.0100847361609339,standing,2026-03-04_13-53-07
1772632393084291600,5.22829150390625,-0.0199899545075371,0.038613954424113,-0.0592360328227281,0.0090198256075382,-0.0029534404166042,0.0137242125347256,standing,2026-03-04_13-53-07
1772632393094240500,5.238240478515625,-0.049090121057257,0.0396454894289374,-0.0804652833342552,0.0251685585826635,-0.0075180013664066,0.0111876279115676,standing,2026-03-04_13-53-07
1772632393104188400,5.2481884765625,-0.0555673542473465,0.0524948879994452,-0.0806885706961154,0.036126933991909,-0.0052109048701822,0.0088211428374052,standing,2026-03-04_13-53-07
1772632393114137300,5.258137451171875,-0.0488220081729814,0.0485550643324851,0.0101209965199232,0.0347533486783504,-0.0001478609628975,0.0065959822386503,standing,2026-03-04_13-53-07
1772632393124085500,5.26808544921875,-0.0555465671876445,0.0321529417164623,0.1232663141846656,0.0147410240024328,-0.0040917359292507,-0.0008416939526796,standing,2026-03-04_13-53-07
1772632393134034400,5.278034423828125,-0.065797985154204,-0.0150944010183215,0.1984036804944276,-0.0141543131321668,-0.0060851760208606,-0.0063744559884071,standing,2026-03-04_13-53-07
1772632393143982300,5.287982421875,-0.022543803708814,0.0098730131082236,0.1999474028050899,-0.0368564277887344,-0.0034867299254983,-0.0009360150434076,standing,2026-03-04_13-53-07
1772632393153931300,5.29793115234375,-0.0150419401787221,0.0529477463334798,0.1105874498754739,-0.0453784763813018,0.0111963031813502,0.0035302902106195,standing,2026-03-04_13-53-07
1772632393163879400,5.30787939453125,-0.0404134781267493,0.0901198313862085,0.0391641356527805,-0.0422247610986232,0.0182861723005771,0.0077993376180529,standing,2026-03-04_13-53-07
1772632393173828400,5.317828369140625,-0.0698112393835559,0.0731890087209641,-0.010682722055912,-0.0321570597589015,0.0144192827865481,0.0061523709446191,standing,2026-03-04_13-53-07
1772632393185642500,5.329642578125,-0.0746306223640218,0.0376484703928232,-0.0153261639475822,-0.0040718987584114,0.0125686535611748,0.0015363141428679,standing,2026-03-04_13-53-07
1772632393195591400,5.33959130859375,-0.0474602548331022,0.0145173317827284,-0.0308913973480463,0.0160650759935379,0.0015868139453232,0.0006966376677155,standing,2026-03-04_13-53-07
1772632393205539600,5.34953955078125,-0.0148159128705039,0.0265079215668141,0.0533387914776802,0.0226934179663658,-0.0180473402142524,-0.0005883376579731,standing,2026-03-04_13-53-07
1772632393215488500,5.359488525390625,-0.0065884019469842,-0.0001683423042297,0.169870244449377,0.0128408595919609,-0.0460756719112396,-0.0048766490072011,standing,2026-03-04_13-53-07
1772632393225436400,5.3694365234375,-0.0164651413822546,-0.0383674323171377,0.2254845796436071,-0.0114106833934783,-0.0672595202922821,-0.0128885032609105,standing,2026-03-04_13-53-07
1772632393235385300,5.37938525390625,-0.0529702138936147,-0.0321570333696901,0.1712999849915504,-0.0366504974663257,-0.0570711679756641,-0.0210384353995323,standing,2026-03-04_13-53-07
1772632393245333500,5.38933349609375,-0.0823303830863907,0.0128892921894788,-0.0226975694984197,-0.0511492788791656,-0.0243001729249954,-0.0183494426310062,standing,2026-03-04_13-53-07
1772632393255282400,5.399282470703125,-0.0946802346369251,0.0621671178385615,-0.2081225259542465,-0.0460305772721767,0.0207557249814271,-0.0105079812929034,standing,2026-03-04_13-53-07
1772632393265230300,5.409230224609375,-0.0176744075741618,0.1155447800219059,-0.3086749040275812,-0.0247716307640075,0.048342078924179,0.0012165857478976,standing,2026-03-04_13-53-07
1772632393275179300,5.41917919921875,0.0357356590414419,0.1074466676317155,-0.3192015587389469,0.0036924080923199,0.0556256733834743,0.0127440383657813,standing,2026-03-04_13-53-07
1772632393285127400,5.42912744140625,0.0428996323866769,0.08005524122864,-0.2245873385429382,0.0334899835288524,0.0358887203037738,0.0158335715532302,standing,2026-03-04_13-53-07
1772632393295076400,5.439076416015625,0.038771665736474,0.0346739846266806,-0.0737111328989267,0.0532202795147895,0.0058701001107692,0.0138860009610652,standing,2026-03-04_13-53-07
1772632393305024500,5.4490244140625,0.0221567406199872,-0.0273934722296893,0.0552571923196315,0.0530184134840965,-0.0131877465173602,0.0051875850185751,standing,2026-03-04_13-53-07
1772632393314973400,5.458973388671875,0.0002245660034939,-0.0554848635956645,0.1730658256202936,0.035964909940958,-0.020279873162508,-0.0037732615601271,standing,2026-03-04_13-53-07
1772632393324921300,5.46892138671875,-0.0209051331236958,-0.0705900782689452,0.2561713943302631,0.0049811629578471,-0.0250607803463935,-0.0114101413637399,standing,2026-03-04_13-53-07
1772632393334870300,5.478870361328125,0.0083127780541777,-0.0435451272159814,0.275047359713912,-0.0281904749572277,-0.0175346937030553,-0.0109020601958036,standing,2026-03-04_13-53-07
1772632393344818400,5.488818359375,-0.0393082568312063,-0.0068662325076758,0.2134434287160634,-0.0533988922834396,-0.0064524812623858,-0.0183240249752998,standing,2026-03-04_13-53-07
1772632393354767000,5.49876708984375,-0.0881779035381972,0.003506985207647,0.1014805988341569,-0.0614306963980197,0.0098916757851839,-0.0181633215397596,standing,2026-03-04_13-53-07
1772632393364715000,5.508715087890625,-0.0609825476964935,0.0255140882238745,-0.0444289243131875,-0.0495561957359313,0.0291657708585262,-0.0140268998220562,standing,2026-03-04_13-53-07
1772632393374664200,5.518664306640625,-0.0328383666973561,0.059546852337569,-0.1334603759407997,-0.0227039121091365,0.0391984283924102,-0.00853231549263,standing,2026-03-04_13-53-07
1772632393384612000,5.528612060546875,-0.0318853402888402,0.0891265825651586,-0.1578711790978908,0.006679275073111,0.0249158944934606,-0.0055541028268635,standing,2026-03-04_13-53-07
1772632393394561000,5.53856103515625,0.0206339514994993,0.0690589231789112,-0.1202484276682138,0.0304059535264968,0.0031948031391948,0.0039702141657471,standing,2026-03-04_13-53-07
1772632393404509200,5.54850927734375,0.05802716848962,0.0639461102098226,-0.0564046087890863,0.0436826087534427,-0.0083420109003782,0.0105828428640961,standing,2026-03-04_13-53-07
1772632393414458000,5.5584580078125,0.0365138768723234,0.0410875049307942,0.0447176781266927,0.0379148088395595,-0.0287658795714378,0.0068102302029728,standing,2026-03-04_13-53-07
1772632393424406000,5.568406005859375,-0.0262425486288964,-0.0230273859746754,0.1046931311398744,0.0182510949671268,-0.036214206367731,-0.0036914127413183,standing,2026-03-04_13-53-07
1772632393434355000,5.57835498046875,-0.0500238947760313,-0.0519692566901445,0.0908072291284799,-0.0048777712509036,-0.0148485898971557,-0.0062236050143837,standing,2026-03-04_13-53-07
1772632393444304000,5.588303955078125,-0.0356578080322593,-0.006329787543416,0.0581821398556232,-0.0269662924110889,0.0111475903540849,-0.0027875944506376,standing,2026-03-04_13-53-07
1772632393454252000,5.598251953125,-0.05253606026005,0.0144568337671458,0.0167822079747915,-0.0380771122872829,0.0263139009475708,-0.0012334318598732,standing,2026-03-04_13-53-07
1772632393464201000,5.608200927734375,-0.0322462460231035,0.0120551794528961,-0.0520084196567535,-0.0333481393754482,0.0374539047479629,0.0001583362463861,standing,2026-03-04_13-53-07
1772632393474148900,5.61814892578125,0.0026090499872341,0.0339621830955147,-0.094399116140604,-0.015548562631011,0.0392829254269599,0.0070723537355661,standing,2026-03-04_13-53-07
1772632393484098000,5.62809814453125,9.1514208354e-05,0.0233538414500653,-0.0884942760109901,0.0061567332595586,0.0266733895987272,0.0073360064998269,standing,2026-03-04_13-53-07
1772632393494046000,5.6380458984375,-0.0129315969612449,-0.0199314657859504,-0.0517816251635551,0.0289756394922733,0.0083757769316434,4.2472966015e-06,standing,2026-03-04_13-53-07
1772632393503995000,5.647994873046875,-0.0175236374592408,-0.0274459330692887,0.0319108035236597,0.0348369888961315,-0.009292964823544,-0.0046379086561501,standing,2026-03-04_13-53-07
1772632393513943000,5.657943115234375,-0.0211099349807947,-0.0393807010129094,0.1059293949365615,0.0279404111206531,-0.0209951493889093,-0.0093670506030321,standing,2026-03-04_13-53-07
1772632393523892000,5.66789208984375,-0.0504179355949163,-0.0380263637945055,0.1458002175539731,0.0114013813436031,-0.0176872368901968,-0.0157682243734598,standing,2026-03-04_13-53-07
1772632393534462000,5.6784619140625,-0.0175289346888661,-0.012197948924452,0.1082955395460128,-0.0081739798188209,-0.0031465855427086,-0.0120403356850147,standing,2026-03-04_13-53-07
1772632393544410000,5.68841015625,-0.0020842589281499,0.0348167540982365,0.0546533812075853,-0.0231659784913063,0.0129413045942783,-0.0052934829145669,standing,2026-03-04_13-53-07
1772632393554359000,5.698359130859375,0.0046942222308367,0.0710832686133682,0.0066781625896692,-0.0269479788839817,0.0209902580827474,-0.0023669898509979,standing,2026-03-04_13-53-07
1772632393564307000,5.708306884765625,-0.0323038214292377,0.0458209631934762,-0.0242535667687654,-0.0234765503555536,0.0201345849782228,-0.0046727545559406,standing,2026-03-04_13-53-07
1772632393574255900,5.718255859375,-0.0420249319113791,0.0210671918176114,-0.0394102193683385,-0.0136064430698752,0.0066015790216624,-0.006736746057868,standing,2026-03-04_13-53-07
1772632393584204000,5.7282041015625,-0.0507047531796619,0.0335249607220292,-0.0600982026100158,-0.0020448621362447,-0.0031205564737319,-0.0095682181417942,standing,2026-03-04_13-53-07
1772632393594153000,5.738153076171875,-0.0381610230248421,0.0386325129941105,-0.0755541304171085,0.0092123299837112,-0.0041873706504702,-0.0067557552829384,standing,2026-03-04_13-53-07
1772632393604100900,5.748100830078125,-0.0236144651476293,0.0534679708153009,-0.0883393777102232,0.0161037929356098,0.0019924947991967,-0.0052452106028795,standing,2026-03-04_13-53-07
1772632393614049800,5.7580498046875,-0.0133594304518774,0.0540527849659323,-0.0743196201860904,0.0205944683402776,0.0089572537690401,-0.0005007786676287,standing,2026-03-04_13-53-07
1772632393623998000,5.767998046875,0.0173531397305428,0.0547729159340262,-0.0371475351333618,0.0202525183558464,0.0107831172645092,0.005356844048947,standing,2026-03-04_13-53-07
1772632393633947000,5.77794677734375,0.0054505935560911,0.0515159599646925,0.010507365489006,0.0168347507715225,0.0106276860460639,0.0055151134729385,standing,2026-03-04_13-53-07
1772632393643894800,5.787894775390625,-0.0212327576428651,0.0232177939802408,0.0631990912348031,0.0107536893337965,0.0058534368872642,-0.0006237388588488,standing,2026-03-04_13-53-07
1772632393653844000,5.797843994140625,-0.0704812841322273,-0.0019254151046276,0.0837380213946104,0.0001407763920724,0.002898528939113,-0.0099188117310404,standing,2026-03-04_13-53-07
1772632393663791900,5.8077919921875,-0.0711219201233238,-0.0075439856387674,0.0812368522286415,-0.0066404300741851,0.0056863259524106,-0.0131433680653572,standing,2026-03-04_13-53-07
1772632393673741000,5.817740966796875,-0.0502526985632255,0.0129522744230926,0.0759539433896541,-0.0089240409433841,0.0154133923351764,-0.0103223891928792,standing,2026-03-04_13-53-07
1772632393683689000,5.82768896484375,-0.0170888262385502,0.03545841300264,0.0488818120688199,-0.0052560688927769,0.0279491562396287,-0.0010711003560572,standing,2026-03-04_13-53-07
1772632393693638100,5.83763818359375,0.0023803923305124,0.0169764153726398,0.0555243188232183,0.0024695978499948,0.0244825258851051,0.0022432531695812,standing,2026-03-04_13-53-07
1772632393703586000,5.8475859375,0.0016611746778711,-0.0130656716696918,0.1223982991784811,0.006682185921818,0.0041652699001133,-0.0016383042093366,standing,2026-03-04_13-53-07
1772632393713535000,5.857534912109375,-0.0123824751785025,-0.0398714071393013,0.1842740328550338,0.0065326695330441,-0.0294972099363803,-0.0104739321395754,standing,2026-03-04_13-53-07
1772632393723484200,5.867484130859375,-0.0617426453487947,-0.0875574335522949,0.1869856299012899,-0.0008922233246266,-0.0580734610557556,-0.028356259688735,standing,2026-03-04_13-53-07
1772632393733432000,5.87743212890625,-0.1000888887474313,-0.0860267168536782,0.1492658478379249,-0.0145713966339826,-0.0668337866663932,-0.0425349883735179,standing,2026-03-04_13-53-07
1772632393743381000,5.887381103515625,-0.1060106800118461,-0.0509111259393394,0.0321785145491361,-0.0300440955907106,-0.0437849313020706,-0.0459736622869968,standing,2026-03-04_13-53-07
1772632393753329200,5.8973291015625,-0.0782934922531247,0.0502666905559599,-0.1108919857800006,-0.0391797013580799,-0.0064393393695354,-0.0332669913768768,standing,2026-03-04_13-53-07
1772632393763278000,5.907278076171875,-0.0147097125496715,0.1225602117419242,-0.2202531087309122,-0.0360986925661563,0.0242586508393287,-0.0163015909492969,standing,2026-03-04_13-53-07
1772632393773226000,5.91722607421875,0.0398997564509511,0.1379427820518612,-0.2733633521497249,-0.0179102681577205,0.0436115823686122,0.004493752028793,standing,2026-03-04_13-53-07
1772632393783175000,5.9271748046875,0.0569089781146496,0.1285728961601853,-0.2904389901131391,0.0103485351428389,0.0430754870176315,0.0159445460885763,standing,2026-03-04_13-53-07
1772632393793123000,5.937123046875,0.0185723793271929,0.0772540662027895,-0.1989958011686801,0.0368423722684383,0.0239460412412881,0.0148359518498182,standing,2026-03-04_13-53-07
1772632393803072000,5.947072021484375,-0.0107630938157439,0.015539222176373,-0.0689607235014438,0.0577018484473228,0.0011384624522179,0.0074059981852769,standing,2026-03-04_13-53-07
1772632393813020000,5.95702001953125,-0.025093524724245,-0.0237250128500163,0.0430219801247119,0.0595006868243217,-0.0152681097388267,-0.0029885070398449,standing,2026-03-04_13-53-07
1772632393822968800,5.96696875,-0.0251949027394875,-0.0228477916240692,0.1445855810672044,0.0409959778189659,-0.023951880633831,-0.0094083230942487,standing,2026-03-04_13-53-07
1772632393832917000,5.9769169921875,5.45431988313e-05,-0.0239674433037638,0.2473620649307966,0.0117759890854358,-0.0287989694625139,-0.0119376853108406,standing,2026-03-04_13-53-07
1772632393842866000,5.986865966796875,0.0218839515605941,-0.0136696289122104,0.2588268772751093,-0.0183246545493602,-0.0268157124519348,-0.0130908340215682,standing,2026-03-04_13-53-07
1772632393852814000,5.99681396484375,0.0251333087453618,0.0233418587513268,0.1585825422376394,-0.03530003875494,-0.0098135378211736,-0.010122544132173,standing,2026-03-04_13-53-07
1772632393862763000,6.006762939453125,-3.28428236767e-05,0.0603292348869144,0.0531739563047885,-0.0395174212753772,0.0083654662594199,-0.0084639275446534,standing,2026-03-04_13-53-07
1772632393872711000,6.0167109375,-0.0142550275847315,0.056158086682111,-0.04683014023602,-0.0290696993470191,0.0114129427820444,-0.0125130657106637,standing,2026-03-04_13-53-07
1772632393882659800,6.026659912109375,-0.0103533805036917,0.0385502415381371,-0.1108843869954347,-0.0106672551482915,0.0149962259456515,-0.0145274810492992,standing,2026-03-04_13-53-07
1772632393892608000,6.03660791015625,-0.0098994992563501,0.0617358868144452,-0.1480769303143024,0.0111830197274684,0.0166463255882263,-0.0056591047905385,standing,2026-03-04_13-53-07
1772632393902557000,6.046556884765625,0.0184178828852251,0.0790514710135757,-0.1356657770305872,0.0301114358007907,0.0180932208895683,0.0017732449341565,standing,2026-03-04_13-53-07
1772632393912504800,6.0565048828125,0.0196736185673624,0.0637131782367825,-0.0521089574217796,0.0394547171890735,0.0062286974862217,0.002018048427999,standing,2026-03-04_13-53-07
1772632393922453800,6.066453857421875,0.0071439900031313,0.0137590607613325,0.0445581036508083,0.031352050602436,-0.0150283873081207,0.0018031313084065,standing,2026-03-04_13-53-07
1772632393932402000,6.07640185546875,-0.0302911664325743,-0.0417925844602286,0.1184685585141182,0.0176101624965667,-0.0291956327855587,-0.0067125735804438,standing,2026-03-04_13-53-07
1772632393942351000,6.08635107421875,-0.0528363949134945,-0.0427956240229308,0.0905839417666196,0.0041819713078439,-0.0202412866055965,-0.011686292476952,standing,2026-03-04_13-53-07
1772632393952300000,6.096300048828125,-0.0359931044012308,-0.0189848325856029,0.0523702387064695,-0.0081940796226263,0.0008178178686648,-0.010824404656887,standing,2026-03-04_13-53-07
1772632393962248200,6.106248291015625,-0.0584109801754355,-0.0046323359757661,0.0230950443834066,-0.0217378512024879,0.0235958360135555,-0.0114997820928692,standing,2026-03-04_13-53-07
1772632393972197000,6.116197021484375,-0.076392663600482,-0.0214602827884256,0.0164040223121643,-0.0316847972571849,0.0327315255999565,-0.0154683077707886,standing,2026-03-04_13-53-07
1772632393982145000,6.12614501953125,-0.0384872227719053,-0.0390378789246082,0.0210293440252542,-0.0329343527555465,0.0281125381588935,-0.0178355909883976,standing,2026-03-04_13-53-07
1772632393992094000,6.136093994140625,-0.0167938984125852,-0.0219778769217431,0.0154471599787473,-0.0236127786338329,0.017793882638216,-0.0163583550602197,standing,2026-03-04_13-53-07
1772632394002042000,6.1460419921875,0.0135933488056063,-0.0067262395150959,-0.0183206695884466,-0.0072798766195774,0.0035060234367847,-0.0141050536185503,standing,2026-03-04_13-53-07
1772632394011991000,6.155990966796875,0.0403426779128611,0.0188898477785289,-0.0291395852446556,0.0133396480232477,-0.0140463383868336,-0.0066577903926372,standing,2026-03-04_13-53-07
1772632394021939000,6.16593896484375,0.0633311931818723,0.0498750608898699,-0.0127805711179971,0.026816040277481,-0.0256009958684444,-0.0024545229971408,standing,2026-03-04_13-53-07
1772632394031888100,6.17588818359375,0.036551505468972,0.0667544456288218,-0.0058475569844245,0.032635647803545,-0.0265708528459072,-0.0028179951477795,standing,2026-03-04_13-53-07
1772632394041836000,6.1858359375,0.015661569914408,0.063506111357361,0.0109545247346162,0.0273540653288364,-0.0159048940986394,-0.0016454053111374,standing,2026-03-04_13-53-07
1772632394051785000,6.195784912109375,-0.018337438060157,0.0537896039851009,0.0365267728865146,0.0121049899607896,0.0008974133525043,-0.003743888111785,standing,2026-03-04_13-53-07
1772632394061733000,6.205733154296875,-0.0316010434547439,0.0576698064193129,0.0636655397027731,-0.0090200016275048,0.0136483628302812,-0.0047998316586017,standing,2026-03-04_13-53-07
1772632394071682000,6.21568212890625,-0.0174583902033045,0.0501429180458188,0.1019154831200838,-0.0269389431923627,0.0196823086589574,-0.0047801933251321,standing,2026-03-04_13-53-07
1772632394081630000,6.2256298828125,0.0197995099693536,0.0351081382602453,0.0770335553199052,-0.0321123972535133,0.0253340695053339,0.0006955321878194,standing,2026-03-04_13-53-07
1772632394091579000,6.235578857421875,0.0223662186522036,0.0468172807544469,0.0376017086416482,-0.0242684260010719,0.0233683846890926,0.0037578514311462,standing,2026-03-04_13-53-07
1772632394101527000,6.245527099609375,-0.018856603096053,0.0386342665597796,0.034571547165513,-0.0109353102743625,-0.0039599095471203,7.33681954443e-05,standing,2026-03-04_13-53-07
1772632394111476000,6.25547607421875,-0.034730975510925,0.0046856735982,-0.0114127898961305,0.0063014165498316,-0.0154883367940783,-0.0056706955656409,standing,2026-03-04_13-53-07
1772632394121424000,6.265423828125,-0.048839909155853,0.0063318333700299,-0.0524444729864597,0.0232529677450656,-0.0099388426169753,-0.0103349555283784,standing,2026-03-04_13-53-07
1772632394131373000,6.275373046875,-0.030025245505385,0.034025019198656,-0.0479582674831151,0.0290713552385568,0.0031960539054125,-0.0091804042458534,standing,2026-03-04_13-53-07
1772632394141321000,6.285321044921875,-0.0304364566547796,0.0375157839238643,0.0394961440861225,0.015518793836236,-0.0100896572694182,-0.0130377262830734,standing,2026-03-04_13-53-07
1772632394151270000,6.295269775390625,-0.0289704392228275,0.0014778174676001,0.0984369933545589,-0.0035452535375952,-0.0199829488992691,-0.0154164833948016,standing,2026-03-04_13-53-07
1772632394161218000,6.305218017578125,-0.0102283293519169,0.0133583710059523,0.0232224701553583,-0.0147539656609296,0.008019657805562,-0.0086102429777383,standing,2026-03-04_13-53-07
1772632394171167000,6.3151669921875,-0.0277855037545785,0.0690187372989952,-0.0635901363790035,-0.0141832781955599,0.0460742749273777,-0.0001171843614429,standing,2026-03-04_13-53-07
1772632394181115000,6.325114990234375,-0.0443859984869137,0.0734507283970713,-0.067664253950119,-0.0098652290180325,0.0530291199684143,0.0016042832285165,standing,2026-03-04_13-53-07
1772632394191063800,6.335063720703125,-0.0365916913488879,0.0132841367259621,-0.0024994156002998,-0.0055458708666265,0.0295197553932666,-0.0054209996014833,standing,2026-03-04_13-53-07
1772632394201012000,6.345011962890625,-0.0516948967281728,-0.0558444906882941,0.0303010302394628,0.0077278562821447,0.0172468423843383,-0.0105877984315156,standing,2026-03-04_13-53-07
1772632394210961200,6.354961181640625,-0.0548192027611657,-0.0705855482243001,0.0632218875885009,0.0199085585772991,0.0054240156896412,-0.0148663334548473,standing,2026-03-04_13-53-07
1772632394220910000,6.36491015625,-0.0241441515775397,-0.0647274698458612,0.1235153205096721,0.018404671922326,-0.0192171484231948,-0.0189518891274929,standing,2026-03-04_13-53-07
1772632394230858000,6.37485791015625,0.010608560841158,-0.0645316550128161,0.1954723032176494,0.005557544529438,-0.055568516254425,-0.0216234531253576,standing,2026-03-04_13-53-07
1772632394240807200,6.38480712890625,-0.0274955078320577,-0.0695217183850705,0.1687654980778694,-0.0117303654551506,-0.06240751221776,-0.0335051491856575,standing,2026-03-04_13-53-07
1772632394250755000,6.394755126953125,-0.0829646624019369,-0.0284705999419093,0.0185188225090503,-0.0262201428413391,-0.0336082242429256,-0.0339465923607349,standing,2026-03-04_13-53-07
1772632394260704000,6.4047041015625,-0.0825504555778577,0.0448779832549393,-0.1282785893887281,-0.0330250523984432,0.0068268170580267,-0.0265009254217147,standing,2026-03-04_13-53-07
1772632394270652200,6.414652099609375,-0.0403973672421649,0.100646778358519,-0.1987140616178512,-0.0322538875043392,0.0263644121587276,-0.0168075896799564,standing,2026-03-04_13-53-07
1772632394280601000,6.42460107421875,-0.0070267933642491,0.0955897872298955,-0.2188233681887388,-0.0148874130100011,0.0406205803155899,-0.0021897656843066,standing,2026-03-04_13-53-07
1772632394290549000,6.434549072265625,0.0227970478175207,0.11041764626652,-0.2148117944598198,0.0095108207315206,0.040478765964508,0.0120052583515644,standing,2026-03-04_13-53-07
1772632394300498000,6.444497802734375,0.0078543302295729,0.0971384779766201,-0.1508680223375558,0.0352984741330146,0.0165641121566295,0.0138686709105968,standing,2026-03-04_13-53-07
1772632394310446000,6.454446044921875,-0.030689956491813,0.0307882292345166,-0.0595060819357633,0.0567894577980041,-0.0142185371369123,0.001633339561522,standing,2026-03-04_13-53-07
1772632394320395000,6.46439501953125,-0.0882705867903307,-0.0460471731647849,-0.0048316579401493,0.0670713931322097,-0.0228809993714094,-0.0112694092094898,standing,2026-03-04_13-53-07
1772632394330343000,6.474343017578125,-0.0912599047994241,-0.0335217458516359,0.0180658180445432,0.0620310232043266,-0.0120308585464954,-0.0186681151390075,standing,2026-03-04_13-53-07
1772632394340292000,6.4842919921875,-0.0563956948302686,-0.0091607731856405,0.1035439611047506,0.0401648730039596,-0.0044064940884709,-0.0162427723407745,standing,2026-03-04_13-53-07
1772632394350240000,6.494239990234375,0.0039592224871739,-0.0029645488940179,0.2044610808372497,0.006507861893624,-0.0026855869218707,-0.0167085416615009,standing,2026-03-04_13-53-07
1772632394360189400,6.504189453125,-0.005151464479044,-0.0115852238535881,0.2425298224687576,-0.0264980252832174,0.0065305484458804,-0.0173876471817493,standing,2026-03-04_13-53-07
1772632394370137000,6.51413720703125,-0.0240895718460902,-0.0109857966557145,0.2198059494853019,-0.0491991490125656,0.0175724364817142,-0.0195971839129924,standing,2026-03-04_13-53-07
1772632394380086500,6.52408642578125,-0.0322180428419262,-0.0159860891610383,0.1627612892270088,-0.0543680787086486,0.006436163559556,-0.0256036762148141,standing,2026-03-04_13-53-07
1772632394390034400,6.534034423828125,-0.0495016610002145,-0.0222546480365097,0.039541736793518,-0.0392006263136863,-0.0016668299213051,-0.0327699854969978,standing,2026-03-04_13-53-07
1772632394399983400,6.5439833984375,-0.0344787908481434,0.0101911391466856,-0.1459457635045051,-0.0037888400256633,0.0106521537527441,-0.0266825314611196,standing,2026-03-04_13-53-07
1772632394409931500,6.553931640625,0.0304294423921033,0.0924678558170795,-0.2164262439191341,0.029036620631814,0.0156663749366998,-0.0129952859133481,standing,2026-03-04_13-53-07
1772632394419880400,6.56388037109375,0.075847852666676,0.1178426817007362,-0.1528051278799772,0.0493573397397995,-0.0041067963466048,-0.0023088194429874,standing,2026-03-04_13-53-07
1772632394429828400,6.573828369140625,0.0901303527802228,0.0714833738468587,-0.0445540119975805,0.0515028983354568,-0.0179500486701726,-0.0027196859009563,standing,2026-03-04_13-53-07
1772632394439777300,6.58377734375,0.0319581863293424,0.0376198288202285,0.0259258838951587,0.0416971370577812,-0.0135952476412057,-0.0042906845919787,standing,2026-03-04_13-53-07
1772632394449725400,6.593725341796875,-0.0232396404858678,0.0214200969085097,0.0908668503612279,0.0169033966958522,-0.0110206073150038,-0.0104317953810095,standing,2026-03-04_13-53-07
