time,seconds_elapsed,acc_x,acc_y,acc_z,gyr_x,gyr_y,gyr_z,activity,session
1772632354488143000,0.06814306640625,-0.0754522774778306,-0.0632300708949565,0.5428028088539838,-0.1667934358119964,-0.0487201586365699,-0.1188452839851379,standing,2026-03-04_13-52-34
1772632354498091300,0.07809130859375,0.1158607871685177,0.1227427287019789,0.7717652937412262,-0.3155277669429779,-0.0642469152808189,-0.0149529753252863,standing,2026-03-04_13-52-34
1772632354508040200,0.088040283203125,1.168910362251848,0.7492289061538875,1.2124936295211317,-0.4733319282531738,-0.1710738837718963,0.0446480810642242,standing,2026-03-04_13-52-34
1772632354517988000,0.097988037109375,0.4906055886268615,0.7836078533567488,0.8307990819901228,-0.5293973088264465,-0.2119163870811462,-0.0554766543209552,standing,2026-03-04_13-52-34
1772632354527937300,0.107937255859375,-1.3868494949519634,1.2680096189074217,0.0926812063068151,-0.4629941880702972,-0.0809113830327987,-0.1507986932992935,standing,2026-03-04_13-52-34
1772632354537885200,0.11788525390625,-1.2360701738111677,0.5591458947591483,-0.489397966402769,-0.3650708198547363,0.1165694668889045,-0.249683991074562,standing,2026-03-04_13-52-34
1772632354547834000,0.127834228515625,-0.7830628597598522,-0.1256802434585988,-0.7292682142734527,-0.2944473922252655,0.1879834681749344,-0.3207245469093323,standing,2026-03-04_13-52-34
1772632354557782300,0.1377822265625,-0.3781730223413556,-0.5671528217345476,-0.7445359260320663,-0.2299368679523468,0.1682257354259491,-0.344317227602005,standing,2026-03-04_13-52-34
1772632354567731200,0.147731201171875,-0.102364030605182,-0.6102484516173601,-0.6479512825459242,-0.1591648459434509,0.1885637789964676,-0.3507305979728699,standing,2026-03-04_13-52-34
1772632354577679000,0.15767919921875,-0.014153978363052,-0.6164788704395294,-0.5337473957389592,-0.0906952321529388,0.2122544646263122,-0.3369064033031463,standing,2026-03-04_13-52-34
1772632354587628000,0.1676279296875,0.1222425240948796,-0.6236347335435449,-0.3664852879613637,-0.0352332554757595,0.1913221478462219,-0.2831141352653503,standing,2026-03-04_13-52-34
1772632354597576200,0.177576171875,0.4526091085139662,-0.5987495908729732,-0.1419645849138498,-0.00587536720559,0.1400866657495498,-0.2055117487907409,standing,2026-03-04_13-52-34
1772632354607525000,0.187525146484375,0.6095328506939113,-0.2059486890465021,0.1391197168767452,-0.0156095586717128,0.0458804368972778,-0.1323848813772201,standing,2026-03-04_13-52-34
1772632354617473000,0.19747314453125,0.638049335604161,0.1913131377115845,0.3516220653504133,-0.0469973050057888,-0.0308076832443475,-0.049117412418127,standing,2026-03-04_13-52-34
1772632354627422200,0.207422119140625,0.8032590408965945,0.329074717977643,0.3506418221414089,-0.0792943760752677,-0.0423879846930503,0.0669592693448066,standing,2026-03-04_13-52-34
1772632354637370000,0.2173701171875,0.8857407055545597,0.2797844712384045,0.2294511451870202,-0.1093617305159568,-0.011588791385293,0.1769752502441406,standing,2026-03-04_13-52-34
1772632354647319000,0.227319091796875,0.6288639394339174,0.1346783734284341,0.1401835467159748,-0.1417802721261978,0.0166445709764957,0.232183963060379,standing,2026-03-04_13-52-34
1772632354657267200,0.23726708984375,0.1226383915446698,-0.0693649203881621,0.1951929017543792,-0.1739699095487594,0.028630394488573,0.2130813747644424,standing,2026-03-04_13-52-34
1772632354667216400,0.24721630859375,-0.3716217010017484,-0.2801628030315041,0.2228098074764013,-0.1890099495649337,-0.007013333030045,0.1277328580617904,standing,2026-03-04_13-52-34
1772632354677164000,0.2571640625,-0.5464946491092443,-0.4616185635954141,0.1702858395129442,-0.1883145868778228,-0.0539781786501407,0.0346191599965095,standing,2026-03-04_13-52-34
1772632354687112200,0.2671123046875,-0.3517419654030352,-0.5845956855751574,0.0308387903779745,-0.1748882979154586,-0.1166824102401733,-0.0270180087536573,standing,2026-03-04_13-52-34
1772632354697061400,0.277061279296875,-0.2145624228086322,-0.384445745935291,-0.1998509566932916,-0.1313567906618118,-0.153578370809555,-0.0595578402280807,standing,2026-03-04_13-52-34
1772632354707009000,0.287009033203125,-0.1396308812692761,-0.0944198666676878,-0.4899088385343551,-0.0571538023650646,-0.1407309919595718,-0.0591199770569801,standing,2026-03-04_13-52-34
1772632354716958200,0.296958251953125,0.0017144757676869,0.0851231921426951,-0.6314665962129831,0.0313606150448322,-0.1120471432805061,-0.0191033203154802,standing,2026-03-04_13-52-34
1772632354726906400,0.30690625,0.1219870880290865,0.181689715450257,-0.6347860960245132,0.1009255424141883,-0.0956258177757263,0.0358548387885093,standing,2026-03-04_13-52-34
1772632354736855300,0.316855224609375,0.1110648581288754,0.2548236329831183,-0.4598293420910835,0.1403733491897583,-0.115296721458435,0.0751455202698707,standing,2026-03-04_13-52-34
1772632354746803200,0.32680322265625,0.0770483144976198,0.2272040969125926,-0.1798152998805046,0.1347091495990753,-0.1837473660707473,0.0826217904686927,standing,2026-03-04_13-52-34
1772632354756752100,0.336752197265625,-0.0415904129516333,0.1046320486024022,0.0355360082834959,0.105817325413227,-0.2311566919088363,0.0690601766109466,standing,2026-03-04_13-52-34
1772632354766700300,0.3467001953125,-0.097612890555337,0.057549248779565,0.0641805034875869,0.0700972974300384,-0.1421908140182495,0.0699808597564697,standing,2026-03-04_13-52-34
1772632354776649200,0.356649169921875,0.0053470601163804,0.1420049169242382,-0.1576572440862655,0.0487901493906974,0.0472901761531829,0.0922523364424705,standing,2026-03-04_13-52-34
1772632354786597400,0.366597412109375,0.065130132362619,0.1100096499875187,-0.0984510218799114,0.0248604267835617,0.1721687465906143,0.1400971412658691,standing,2026-03-04_13-52-34
1772632354796546300,0.37654638671875,0.1244324353545904,0.123354138598591,0.1443891817122697,-0.0142869744449853,0.2027375698089599,0.1697434484958648,standing,2026-03-04_13-52-34
1772632354806494200,0.386494140625,0.1694024808071553,0.1185785947598516,0.202580673918128,-0.0447781831026077,0.1785488277673721,0.1827646791934967,standing,2026-03-04_13-52-34
1772632354816443100,0.396443115234375,0.1085402350220829,0.0865621389046311,0.1707271535396576,-0.0465883314609527,0.1695958226919174,0.1887301653623581,standing,2026-03-04_13-52-34
1772632354826391300,0.406391357421875,0.0114513683408498,0.0778632841423153,0.0179588505387306,-0.0255689211189746,0.1945987492799759,0.1938404440879821,standing,2026-03-04_13-52-34
1772632354836340200,0.41634033203125,-0.0339576530508697,0.062579351901263,-0.1794476356118917,0.0108087947592139,0.241025373339653,0.2003787755966186,standing,2026-03-04_13-52-34
1772632354846288100,0.4262880859375,-0.0406725674543529,0.1026240697808563,-0.2625193020522594,0.0460598021745681,0.2784429490566253,0.2090107649564743,standing,2026-03-04_13-52-34
1772632354856237000,0.436237060546875,0.0335609088182449,0.1270611764229834,-0.2248924589693546,0.0699062794446945,0.2695653140544891,0.2143157869577407,standing,2026-03-04_13-52-34
1772632354866185200,0.446185302734375,0.0236477098301053,0.1319860656045377,-0.1236754795074462,0.0858076140284538,0.2412406951189041,0.2069763392210006,standing,2026-03-04_13-52-34
1772632354876134100,0.456134033203125,-0.0669471917219459,0.1336940385662019,0.0186094234019517,0.0991987884044647,0.2114215344190597,0.1985559612512588,standing,2026-03-04_13-52-34
1772632354886082000,0.46608203125,-0.100578827688843,0.0744074446000158,0.1779378155708313,0.0995073318481445,0.160988375544548,0.2015642970800399,standing,2026-03-04_13-52-34
1772632354896031200,0.47603125,0.0550329551097005,0.2177455098241567,0.3592518295764922,0.0652505606412887,0.1030992418527603,0.2353142648935318,standing,2026-03-04_13-52-34
1772632354905979100,0.485979248046875,0.0048500703796744,-0.0597762771792709,0.4111211330235004,0.0468231551349163,0.0827123075723648,0.2371673583984375,standing,2026-03-04_13-52-34
1772632354915928000,0.495927978515625,-0.187000900535658,-0.3389120752505958,0.3147814042091369,0.0273282825946807,0.0693789273500442,0.1590920090675354,standing,2026-03-04_13-52-34
1772632354925876200,0.505876220703125,-0.3683212712168693,-0.3920781405098736,0.3678536537051201,-0.0039087776094675,0.0106530413031578,0.079378105700016,standing,2026-03-04_13-52-34
1772632354935825200,0.5158251953125,-0.3794309134479612,-0.3731972066901624,0.4098392765194177,-0.0483374968171119,0.0019479668699204,0.0395329482853412,standing,2026-03-04_13-52-34
1772632354945773000,0.52577294921875,-0.2303187218017876,-0.2747328869372606,0.4443839356780052,-0.1029281169176101,0.0192998945713043,0.0319997817277908,standing,2026-03-04_13-52-34
1772632354955722000,0.535721923828125,-0.5659124662846327,-0.1051478891700506,0.5631733967095613,-0.1743266582489013,0.0136904790997505,-0.0438678152859211,standing,2026-03-04_13-52-34
1772632354965670100,0.545670166015625,-0.7904599112085997,0.0170972652733325,0.4673094687134027,-0.2058632969856262,0.037910833954811,-0.1087485253810882,standing,2026-03-04_13-52-34
1772632354975619000,0.555619140625,0.0004538812473416,-0.1073128121189773,0.1343593706071376,-0.1973321288824081,0.0674721896648407,-0.0643594935536384,standing,2026-03-04_13-52-34
1772632354985567000,0.56556689453125,0.5081233443345874,-0.4215674159750342,-0.0335597397744655,-0.1701865196228027,0.0354092083871364,0.0479286909103393,standing,2026-03-04_13-52-34
1772632354995516400,0.575516357421875,0.332259047102183,-0.3252633429959416,-0.1065221001327037,-0.1424712687730789,-0.0607290416955947,0.078313760459423,standing,2026-03-04_13-52-34
1772632355005464000,0.585464111328125,-0.3645095309089869,0.2520006845168769,-0.1773568008124828,-0.0617702528834342,-0.1257045120000839,0.0266651883721351,standing,2026-03-04_13-52-34
1772632355015413200,0.595413330078125,-0.0654741965599358,0.2036582400217652,-0.52490591763556,0.0565028563141822,-0.0656829923391342,0.0475744642317295,standing,2026-03-04_13-52-34
1772632355025361400,0.605361328125,0.1674949666853994,-0.2472939681306481,-0.491218167567253,0.1281834691762924,-0.107719101011753,0.0985734537243843,standing,2026-03-04_13-52-34
1772632355035310300,0.615310302734375,-0.1149569701965898,-0.2093910845853388,-0.2528963181823492,0.1410401463508606,-0.2541346549987793,0.0360893048346042,standing,2026-03-04_13-52-34
1772632355045258200,0.62525830078125,-0.4870390552517026,0.012825579303503,-0.2186801603257656,0.1830948889255523,-0.2098674774169922,-0.0357933901250362,standing,2026-03-04_13-52-34
1772632355055207200,0.635207275390625,-0.0892094385430216,-0.2610471836730837,-0.2608136671781539,0.2051144242286682,-0.132129281759262,-0.0177608598023653,standing,2026-03-04_13-52-34
1772632355065155300,0.6451552734375,-0.0137087918788194,-0.3991415030248463,-0.0032137013494968,0.1557463109493255,-0.1490343362092971,-0.013780403882265,standing,2026-03-04_13-52-34
1772632355075104300,0.655104248046875,-0.2386666442345827,-0.1794593260496854,0.2477221304148435,0.0899475887417793,-0.2092281728982925,-0.0867874994874,standing,2026-03-04_13-52-34
1772632355085052200,0.66505224609375,-0.2414689883042126,-0.065520373789221,0.1881745474249124,0.0689635649323463,-0.1041108220815658,-0.0946658626198768,standing,2026-03-04_13-52-34
1772632355095001300,0.67500146484375,0.0698075495891273,-0.2271776472970843,0.186021168783307,0.0269058607518672,-0.126545563340187,-0.0895752310752868,standing,2026-03-04_13-52-34
1772632355104949200,0.68494921875,-0.1823907763916999,0.0641233664728701,0.2541279058039188,-0.0050201434642076,-0.1209804639220237,-0.1074028760194778,standing,2026-03-04_13-52-34
1772632355114898200,0.694898193359375,0.060058747382462,-0.0657518444575369,0.045761634221673,-0.011989370919764,-0.0529071316123008,-0.0838203206658363,standing,2026-03-04_13-52-34
1772632355124846300,0.704846435546875,-0.1320296855505555,0.1241461657591164,0.0970610288262367,-0.0282813552767038,-0.0559366047382354,-0.0917406156659126,standing,2026-03-04_13-52-34
1772632355134795300,0.714795166015625,0.001981383075565,0.0897154883690178,0.0870516759872436,-0.0215715188533067,0.0221808366477489,-0.0598359443247318,standing,2026-03-04_13-52-34
1772632355144743200,0.7247431640625,0.1356139737781137,0.100270054000616,0.1763040768891572,-0.0312141999602317,0.0119512248784303,-0.0206791628152132,standing,2026-03-04_13-52-34
1772632355154692000,0.734692138671875,0.0787997612748295,0.2062532249510288,0.2752653863787651,-0.0453425347805023,-0.0585770010948181,-0.0144865158945322,standing,2026-03-04_13-52-34
1772632355164640300,0.74464013671875,-0.0242339122202247,0.1579766852989792,0.2346031211227178,-0.0315931476652622,-0.0825258642435073,-0.0151922581717371,standing,2026-03-04_13-52-34
1772632355174589200,0.754589111328125,0.1894585228208452,-0.1088651561275124,0.0846785171151161,-0.0188994575291872,-0.0989104285836219,0.0062539111822843,standing,2026-03-04_13-52-34
1772632355184537000,0.764537109375,0.0068178633213043,0.039348698439449,0.1273252341866493,-0.0325912423431873,-0.1387465894222259,-0.0081281494349241,standing,2026-03-04_13-52-34
1772632355194486000,0.774486083984375,-0.0834059398960322,0.0825923584908246,0.1103138936311006,-0.0420052520930767,-0.1548621654510498,-0.0273495130240917,standing,2026-03-04_13-52-34
1772632355204434200,0.78443408203125,-0.0287524125579744,0.0413680754378438,-0.031195933252573,-0.0489217489957809,-0.143755704164505,-0.031506709754467,standing,2026-03-04_13-52-34
1772632355214383000,0.794383056640625,0.009922697468847,0.0743523534119129,-0.0699473964512348,-0.0556321144104003,-0.1168306246399879,-0.0307293310761451,standing,2026-03-04_13-52-34
1772632355224331300,0.804331298828125,-0.0256432675614953,0.1360730426572263,-0.0815185917794704,-0.057118222117424,-0.1076443418860435,-0.0220720805227756,standing,2026-03-04_13-52-34
1772632355234280200,0.8142802734375,-0.0263918209064751,0.145730513318628,-0.1678308475762605,-0.0427451431751251,-0.0874775499105453,-0.0082239089533686,standing,2026-03-04_13-52-34
1772632355244228000,0.82422802734375,-0.0076619859952479,0.1169571310378611,-0.2491512864351272,-0.0135209932923316,-0.0530389472842216,0.0069256676360964,standing,2026-03-04_13-52-34
1772632355254177000,0.834177001953125,-0.0415962581705302,0.0932714272849261,-0.2807598921418189,0.0225264877080917,-0.0076200664043426,0.0162757616490125,standing,2026-03-04_13-52-34
1772632355264125200,0.844125244140625,-0.0969840180672705,0.0532869151599705,-0.2618102770000696,0.0519851818680763,0.0080570094287395,0.0095400474965572,standing,2026-03-04_13-52-34
1772632355274074000,0.85407421875,-0.1335344640903174,-0.030065760178864,-0.1883896514803171,0.0708709880709648,0.0145559208467602,-0.0087758433073759,standing,2026-03-04_13-52-34
1772632355284022000,0.86402197265625,-0.0795348706163465,-0.1098984446980059,-0.0750882664710283,0.0698940902948379,0.0173710137605667,-0.0225067269057035,standing,2026-03-04_13-52-34
1772632355293971200,0.87397119140625,-0.0482179413326084,-0.1102061954729259,0.0689794282019138,0.0510500930249691,0.0034996722824871,-0.0269813705235719,standing,2026-03-04_13-52-34
1772632355303919000,0.883919189453125,-0.0204647689450532,-0.0850539262987673,0.1423947930246591,0.0301709771156311,-0.0135925468057394,-0.0305512603372335,standing,2026-03-04_13-52-34
1772632355313866800,0.89386669921875,0.049089755731076,-0.0491544915303587,0.1471674142539501,0.0127986446022987,-0.0202975869178771,-0.0258278790861368,standing,2026-03-04_13-52-34
1772632355323816000,0.90381591796875,0.0797997320976108,0.0042388066135346,0.1376402919739484,0.000111152883619,-0.0262309461832046,-0.0153157040476799,standing,2026-03-04_13-52-34
1772632355333763800,0.913763916015625,0.0297505567498505,-0.0013759645283222,0.079717679837346,-0.0050596403889358,-0.0244876407086849,-0.0143716130405664,standing,2026-03-04_13-52-34
1772632355343712800,0.923712646484375,-0.0279332051295787,-0.0111952016226947,-0.0234358206450939,0.0059318961575627,-0.0027608084492385,-0.014747423119843,standing,2026-03-04_13-52-34
1772632355353661000,0.933660888671875,-0.0765532975222915,-0.0086515084892511,-0.0383569109231233,0.0140484124422073,0.0100641762837767,-0.021827969700098,standing,2026-03-04_13-52-34
1772632355363609900,0.94360986328125,-0.1301103348605334,-0.0035655835270881,-0.0154629420697689,0.0193469244986772,0.0180990453809499,-0.0311610605567693,standing,2026-03-04_13-52-34
1772632355373557800,0.953557861328125,-0.1293845778692513,-0.0045306291669607,0.0081955814152956,0.0261526312679052,0.0076338881626725,-0.0428033359348773,standing,2026-03-04_13-52-34
1772632355383507000,0.9635068359375,-0.1069737163577228,0.0193168410189449,0.0466547836691141,0.0278712455183267,-0.0044845133088529,-0.04855802282691,standing,2026-03-04_13-52-34
1772632355393454800,0.973454833984375,-0.0556633619677275,0.0429027376592159,0.0777495946347713,0.0207084082067012,-0.0096438555046916,-0.0461087115108966,standing,2026-03-04_13-52-34
1772632355403404000,0.983404052734375,-0.0150282769795507,0.0470624876871705,0.1226174948871135,0.0056868256069719,-0.0236812867224216,-0.0390555784106254,standing,2026-03-04_13-52-34
1772632355413352000,0.99335205078125,-0.0037315877437591,0.0255653800196945,0.1194657528579235,-0.0142181739211082,-0.026996124535799,-0.0357412733137607,standing,2026-03-04_13-52-34
1772632355423300900,1.00330078125,0.0170071758370846,0.0532103427924215,0.075931731557846,-0.0297044515609741,-0.0136662535369396,-0.0294111352413892,standing,2026-03-04_13-52-34
1772632355433249000,1.0132490234375,0.0582902764052152,0.0998018519669771,0.053579614496231,-0.042971521615982,-0.0029776562005281,-0.0156497843563556,standing,2026-03-04_13-52-34
1772632355443198000,1.023197998046875,0.0869967309296131,0.1279717153966426,0.043514147555828,-0.0510266795754432,0.0046161357313394,0.0046440167352557,standing,2026-03-04_13-52-34
1772632355453145900,1.033145751953125,0.1180346971414983,0.1246796881139278,0.0251473007380962,-0.0528440177440643,0.0035298326984047,0.0221596267074346,standing,2026-03-04_13-52-34
1772632355463095000,1.043094970703125,0.13277429337278,0.1158208204843103,0.0124199211120605,-0.0449415296316146,-0.0028724786825478,0.0311633739620447,standing,2026-03-04_13-52-34
1772632355473043000,1.05304296875,0.0528571454405784,0.0638984716758132,-0.0269908827781677,-0.0293782837688922,-0.0142590897157788,0.0305098351091146,standing,2026-03-04_13-52-34
1772632355482991900,1.062991943359375,0.031667277091369,0.0255747323699295,-0.073016720893979,-0.0075544896535575,-0.0199908930808305,0.024805350229144,standing,2026-03-04_13-52-34
1772632355492940000,1.07293994140625,0.0295515270464122,0.0363936480261385,-0.0332101956844329,0.006379434838891,-0.0228183716535568,0.0242258459329605,standing,2026-03-04_13-52-34
1772632355502889000,1.082888916015625,0.0633770050849765,0.0479550526127219,0.0471720855414867,0.0123039297759532,-0.0396316796541214,0.0314174368977546,standing,2026-03-04_13-52-34
1772632355512836900,1.0928369140625,0.0581708878092467,0.0475984942600131,0.0722831459224224,0.0128962164744734,-0.0660267993807792,0.0326313041150569,standing,2026-03-04_13-52-34
1772632355522785800,1.102785888671875,0.0267083395097404,-0.0027953298069536,0.0331558351486921,0.0127141680568456,-0.0644593238830566,0.0252199657261371,standing,2026-03-04_13-52-34
1772632355532734000,1.11273388671875,0.0194609256647527,0.0254281635060906,0.0356277782201766,0.0035257302224636,-0.0464113503694534,0.0304040759801864,standing,2026-03-04_13-52-34
1772632355542683000,1.122682861328125,0.0197436150636523,0.0701917266011238,0.1029670379996299,-0.0175266973674297,-0.0459500551223754,0.0356934182345867,standing,2026-03-04_13-52-34
1772632355552630800,1.132630859375,0.003867050691694,0.0380364467971026,0.0845972685724496,-0.0344058088958263,-0.0527352578938007,0.0334046967327594,standing,2026-03-04_13-52-34
1772632355562580000,1.142580078125,0.0350159299321472,-0.0046112931877374,-0.0950455973505973,-0.0298813544213771,-0.0172857716679573,0.0294736009091138,standing,2026-03-04_13-52-34
1772632355572527900,1.15252783203125,-0.0090665190309286,0.055753305273503,-0.2038075853645801,-0.0209951847791671,0.0312181152403354,0.0305535104125738,standing,2026-03-04_13-52-34
1772632355582476800,1.162476806640625,-0.0381926602721214,0.1372365334786474,-0.1255588090360164,-0.0223622974008321,0.0451815947890281,0.0366949737071991,standing,2026-03-04_13-52-34
1772632355592425000,1.172425048828125,-0.012492182630673,0.0918941475823521,0.0169324301004409,-0.0294819921255111,0.0116457380354404,0.0361223965883255,standing,2026-03-04_13-52-34
1772632355602374000,1.182373779296875,-0.0021557167291641,-0.0237238438062369,0.0565612606555223,-0.0332503318786621,-0.0254495926201343,0.0262800566852092,standing,2026-03-04_13-52-34
1772632355612321800,1.19232177734375,-0.0527112341638654,-0.0381358155183494,-0.0275374107450246,-0.0182937532663345,-0.0304366275668144,0.0131804998964071,standing,2026-03-04_13-52-34
1772632355622270700,1.202270751953125,-0.0937449630808085,-7.10194095969e-05,-0.0724655167520046,-0.0043386933393776,-0.0220634043216705,0.007726676762104,standing,2026-03-04_13-52-34
1772632355632219000,1.212218994140625,0.0003317161723971,0.0319774390190839,-0.1130553012937307,0.0056774551048874,-0.0137628652155399,0.0187628157436847,standing,2026-03-04_13-52-34
1772632355642167800,1.222167724609375,0.0922073782499879,0.0835192640773952,-0.1111824931591749,0.0140460636466741,0.0117819039151072,0.0450921058654785,standing,2026-03-04_13-52-34
1772632355652115700,1.23211572265625,0.0710512660399079,0.1313046592116356,-0.0420417369157075,0.0127986390143632,0.0295023135840892,0.0627645775675773,standing,2026-03-04_13-52-34
1772632355662065000,1.24206494140625,-0.0314952084600925,0.0746305858314037,0.1138730474174022,-0.0040369308553636,0.0248941592872142,0.0615731105208396,standing,2026-03-04_13-52-34
1772632355672012800,1.2520126953125,-0.0758907419603318,-0.0254585586443543,0.2177893489658832,-0.026117730885744,-0.0003542052581906,0.0465869717299938,standing,2026-03-04_13-52-34
1772632355681962000,1.2619619140625,-0.1294927874840795,-0.0903932415001094,0.2359948677420616,-0.0446861460804939,-0.030703991651535,0.0209466964006423,standing,2026-03-04_13-52-34
1772632355691910000,1.271909912109375,-0.1664907580789178,-0.0942969709403812,0.1657639781743288,-0.0531203746795654,-0.0428972728550434,-0.001168726128526,standing,2026-03-04_13-52-34
1772632355701859000,1.281859130859375,-0.107136651834473,0.001915185971558,0.0843798264294862,-0.054643340408802,-0.0310708507895469,-0.0002200510352849,standing,2026-03-04_13-52-34
1772632355711807000,1.291806884765625,-0.0329476722907274,0.1154150161623954,0.1089519576281309,-0.0627731755375862,-0.0250169523060321,0.016582366079092,standing,2026-03-04_13-52-34
1772632355721756000,1.301755859375,-0.0126900432903319,0.147443600846827,0.1529635333120823,-0.0742977634072303,-0.0459601581096649,0.0303720403462648,standing,2026-03-04_13-52-34
1772632355731704000,1.3117041015625,0.0018510346941649,0.1049374612897634,0.0084159461677074,-0.0647990703582763,-0.0439449436962604,0.0340522639453411,standing,2026-03-04_13-52-34
1772632355741653000,1.321653076171875,-0.0452740699004381,0.0785655871927738,-0.1718652176588773,-0.0369010381400585,-0.0049256635829806,0.0362419784069061,standing,2026-03-04_13-52-34
1772632355751601000,1.331600830078125,-0.0811442785743623,0.1319207452833652,-0.211394679492712,-0.0118193868547678,0.0186987053602933,0.0353823117911815,standing,2026-03-04_13-52-34
1772632355761549800,1.3415498046875,-0.0620499942649155,0.1054223221972584,-0.1354009886145591,0.0042537683621048,0.0016600906383246,0.032645046710968,standing,2026-03-04_13-52-34
1772632355771498000,1.351498046875,0.0174085962448269,0.0191319859713315,-0.0518622891843318,0.010329769924283,-0.0147242080420255,0.0320988334715366,standing,2026-03-04_13-52-34
1772632355781447000,1.361447021484375,0.0322336788024753,-0.0195465581215918,-0.0014747487276792,0.0044405749067664,-0.022986464202404,0.025694441050291,standing,2026-03-04_13-52-34
1772632355791395000,1.37139501953125,0.0109534287560731,-0.0093123104855418,0.0345154330641031,-0.0107018919661641,-0.0271101035177707,0.0212320480495691,standing,2026-03-04_13-52-34
1772632355801343000,1.381343017578125,-0.0143710551798343,-0.0220708159022033,-0.0161439100712537,-0.0271631497889757,-0.0117416512221097,0.0130366953089833,standing,2026-03-04_13-52-34
1772632355811292000,1.3912919921875,-0.0012524842791259,-0.0068842065557837,-0.0645709641098976,-0.0362663716077804,0.0097455326467752,0.0163747034966945,standing,2026-03-04_13-52-34
1772632355821240000,1.401239990234375,0.0505930729661136,0.0286269595474004,-0.0671504592090845,-0.0436788722872734,0.0240506175905466,0.0278300549834966,standing,2026-03-04_13-52-34
1772632355831189000,1.41118896484375,0.0965542483478784,0.038916152241081,-0.0424181690126657,-0.0494161173701286,0.0213174149394035,0.0373167656362056,standing,2026-03-04_13-52-34
1772632355841137000,1.421136962890625,0.09023125587143,0.0153257255561649,-0.0512958874732255,-0.0395868048071861,0.0099025107920169,0.0428720973432064,standing,2026-03-04_13-52-34
1772632355851085800,1.4310859375,0.0151168320458382,-0.0176958156883716,-0.2381196048110723,-0.0078863985836505,0.0309590622782707,0.0415274649858474,standing,2026-03-04_13-52-34
1772632355861034000,1.441033935546875,-0.1098380197476595,0.0320420286878943,-0.3738257138520479,0.0354225225746631,0.0589399114251136,0.031384777277708,standing,2026-03-04_13-52-34
1772632355870983000,1.45098291015625,-0.1628347197894007,0.0560512653067708,-0.3152934453845024,0.0659159868955612,0.0598903968930244,0.0195275861769914,standing,2026-03-04_13-52-34
1772632355880930800,1.460930908203125,-0.101729459028691,0.0206057117857038,-0.1995031661689281,0.0778278857469558,0.0399186387658119,0.0129500795155763,standing,2026-03-04_13-52-34
1772632355890879700,1.470879638671875,-0.0008124854266643,0.0076809098914265,-0.0567477231383323,0.075154073536396,0.0275919307023286,0.0153679633513093,standing,2026-03-04_13-52-34
1772632355900828000,1.480827880859375,0.007316825819388,0.0513651533171534,0.0608954904675483,0.060611817985773,0.0317701436579227,0.0247197672724723,standing,2026-03-04_13-52-34
1772632355910776800,1.49077685546875,-0.0310907193124294,0.0790900494582951,0.2200298213690519,0.0295593589544296,0.0198056288063526,0.0273730754852294,standing,2026-03-04_13-52-34
1772632355920725000,1.50072509765625,-0.1033244731351733,0.0162941321969032,0.2566577165424824,-0.0042570503428578,0.0100027155131101,0.0146085750311613,standing,2026-03-04_13-52-34
1772632355930674000,1.510673828125,-0.146956328786537,-0.0705436087787151,0.099800098401308,-0.0172000136226415,0.0343227013945579,-0.0018478954443708,standing,2026-03-04_13-52-34
1772632355940621800,1.520621826171875,-0.2258052629653364,-0.0098008246548473,-0.0358592488884925,-0.0125348921865224,0.0802907943725586,-0.0136892916634678,standing,2026-03-04_13-52-34
1772632355950570800,1.53057080078125,-0.2197596991907805,0.0553960162684321,-0.0415063148647546,-0.011091724038124,0.1049636527895927,-0.0134597271680831,standing,2026-03-04_13-52-34
1772632355960519000,1.540518798828125,-0.1060555785994976,0.0522092029258608,0.0326607451081275,-0.010713743045926,0.091279312968254,-0.0047694277018308,standing,2026-03-04_13-52-34
1772632355970467800,1.5504677734375,-0.0087805416963994,0.0351708282329142,0.1312298404097557,-0.0064359060488641,0.0617688223719596,0.0082728713750839,standing,2026-03-04_13-52-34
1772632355980415700,1.560415771484375,0.0054828153252601,0.0686658322080969,0.2202566158622503,-0.0104808500036597,0.0209477059543132,0.0157011952251195,standing,2026-03-04_13-52-34
1772632355990364700,1.57036474609375,-0.0808764214184135,-0.0007208616204559,0.2337497191637754,-0.0177962891757488,-0.0239425376057624,0.0009419568814337,standing,2026-03-04_13-52-34
1772632356000312800,1.580312744140625,-0.1344066438149661,-0.0584589109703898,0.1236520986318588,-0.019662607461214,-0.0375107116997242,-0.017794381827116,standing,2026-03-04_13-52-34
1772632356010262000,1.590261962890625,-0.1800559037033468,-0.0335714302122592,-0.0295323839545249,-0.0206248052418231,-0.0154573414474725,-0.0340583063662052,standing,2026-03-04_13-52-34
1772632356020209700,1.600209716796875,-0.1674743622887879,0.0380818933740258,-0.0796779323488473,-0.0232949927449226,0.0136429723352193,-0.0389011390507221,standing,2026-03-04_13-52-34
1772632356030159000,1.6101591796875,-0.0693293376181274,0.0748855835057795,-0.0201525611907243,-0.0303686130791902,0.0221922509372234,-0.0296687595546245,standing,2026-03-04_13-52-34
1772632356040107000,1.62010693359375,0.0265878549352288,0.0863883897729217,0.0176239194959402,-0.0354294925928115,0.0197395831346511,-0.0221148487180471,standing,2026-03-04_13-52-34
1772632356050056000,1.630055908203125,-0.0133108055371791,0.0716629681974649,0.0069184010863304,-0.0310299508273601,0.0288057830184698,-0.0207489132881164,standing,2026-03-04_13-52-34
1772632356060004000,1.640004150390625,-0.0655153322879225,0.0622112492412328,0.0170990188390016,-0.0254528746008873,0.0454056449234485,-0.021683994680643,standing,2026-03-04_13-52-34
1772632356069953000,1.649953125,-0.0413626686103641,0.0562989564575254,0.0808574975222349,-0.0247364826500415,0.0420450009405612,-0.0199188515543937,standing,2026-03-04_13-52-34
1772632356079901000,1.65990087890625,-0.0286374078761786,0.0604153057351708,0.191047472512722,-0.033374048769474,0.0121061913669109,-0.0280824732035398,standing,2026-03-04_13-52-34
1772632356089849900,1.669849853515625,-0.0075145403485745,0.0550780363604426,0.2630845347195863,-0.0427971109747886,-0.05180674046278,-0.0185052137821912,standing,2026-03-04_13-52-34
1772632356099798000,1.679798095703125,-0.0177620127923786,-0.0234951496168971,0.1677981143504381,-0.0351590625941753,-0.0576754286885261,-0.0247012674808502,standing,2026-03-04_13-52-34
1772632356109747000,1.689746826171875,-0.0666662558887153,0.0022452947087585,-0.0659966129988431,-0.016393631696701,-0.0276898313313722,-0.0379619449377059,standing,2026-03-04_13-52-34
1772632356119694800,1.69969482421875,-0.1448183669097721,0.0418299938611686,-0.1818704788446426,-0.0002046423032879,0.0091740526258945,-0.0459964908659458,standing,2026-03-04_13-52-34
1772632356129644000,1.70964404296875,-0.1106226673193275,0.0582582738317549,-0.139271108046174,0.0158536862581968,0.0403458215296268,-0.0421466268599033,standing,2026-03-04_13-52-34
1772632356139592000,1.719592041015625,0.0308982654802501,0.0392307711482048,-0.0019125556230545,0.0168447606265544,0.026822293177247,-0.0298491641879081,standing,2026-03-04_13-52-34
1772632356149540900,1.729540771484375,0.1137646186068654,0.0224473941296339,0.1860340282648801,0.0092321140691638,-0.0282441545277833,-0.0219318531453609,standing,2026-03-04_13-52-34
1772632356159489000,1.739489013671875,0.1240907823100686,-0.0031980653889477,0.2609042680710554,-0.0045915124937891,-0.0788913667201995,-0.0190317705273628,standing,2026-03-04_13-52-34
1772632356169438000,1.74943798828125,0.0984933997169136,-0.0132036188356578,0.2147340530484914,-0.024760965257883,-0.1028915047645568,-0.0218185018748044,standing,2026-03-04_13-52-34
1772632356179385900,1.7593857421875,0.0136908178307116,-0.0481178419589996,0.0648503655731678,-0.0421672314405441,-0.0865183919668197,-0.0334752090275287,standing,2026-03-04_13-52-34
1772632356189334800,1.769334716796875,-0.0843904208887368,-0.0149602532446384,-0.149866151818633,-0.0453755408525466,-0.0361180715262889,-0.0406878478825092,standing,2026-03-04_13-52-34
1772632356199283000,1.779282958984375,-0.1236784021168947,0.0498586942769587,-0.3146533939152955,-0.0351962484419345,0.0218078047037124,-0.03861515969038,standing,2026-03-04_13-52-34
1772632356209232000,1.78923193359375,-0.0754024469867348,0.0999694636188447,-0.3474707908898591,-0.0152667481452226,0.0480157062411308,-0.0275465324521064,standing,2026-03-04_13-52-34
1772632356219179800,1.7991796875,0.0495432716522365,0.1098332705073058,-0.3025438539266586,0.0091267339885234,0.0432732701301574,-0.0090801659971475,standing,2026-03-04_13-52-34
1772632356229129000,1.80912890625,0.1029096087239682,0.1122813943117856,-0.2236860057890415,0.0382721051573753,0.0306480191648006,0.0128251332789659,standing,2026-03-04_13-52-34
1772632356239076900,1.819076904296875,0.0921118089210242,0.0850273305527865,-0.1171422783464193,0.063863880932331,0.0115689020603895,0.0248083304613828,standing,2026-03-04_13-52-34
1772632356249024800,1.829024658203125,0.0520008208721876,0.0313419175945222,-0.0040045594662427,0.077268898487091,-0.00409687589854,0.0286424830555915,standing,2026-03-04_13-52-34
1772632356258974000,1.838973876953125,-0.0156325264830142,-0.0616381255283951,0.1113894139081239,0.0766190737485885,-0.0214461870491504,0.0142901828512549,standing,2026-03-04_13-52-34
1772632356268921900,1.848921875,-0.0868509657833725,-0.1140672548152506,0.2020604494363069,0.0624241605401039,-0.0364669449627399,-0.0062678232789039,standing,2026-03-04_13-52-34
1772632356278870800,1.858870849609375,-0.1015359822832047,-0.1188245323449373,0.2721422859221696,0.0331183597445488,-0.0444314032793045,-0.0254370421171188,standing,2026-03-04_13-52-34
1772632356288819000,1.86881884765625,-0.0894480696044862,-0.0958620283000171,0.2991056961715221,-0.0033879843540489,-0.0418052598834037,-0.0367397628724575,standing,2026-03-04_13-52-34
1772632356298768000,1.878767822265625,-0.042371480326727,-0.0494945371396839,0.2494868019998073,-0.038163274526596,-0.0212235525250434,-0.0363368242979049,standing,2026-03-04_13-52-34
1772632356308715800,1.8887158203125,-0.0032468729667365,0.015206190829724,0.1501274331033229,-0.0589806735515594,0.0065095424652099,-0.0274836812168359,standing,2026-03-04_13-52-34
1772632356318665700,1.898665771484375,0.0391640625875443,0.069199939084798,0.0736462509691715,-0.0694763213396072,0.0290915854275226,-0.0117938946932554,standing,2026-03-04_13-52-34
1772632356328613600,1.908613525390625,0.0654159635666757,0.0984388930507004,0.0560644170492887,-0.0631864666938781,0.0329579636454582,0.0036809348966926,standing,2026-03-04_13-52-34
1772632356338562800,1.918562744140625,0.0322680925287306,0.0701115009717643,0.0366886854499578,-0.0493608191609382,0.0169851761311292,0.0116829173639416,standing,2026-03-04_13-52-34
1772632356348510700,1.9285107421875,-0.0219604143302887,0.040636546292901,-0.0221481189221143,-0.026189723983407,-0.0030087719205766,0.0054939975962042,standing,2026-03-04_13-52-34
1772632356358459600,1.938459716796875,-0.0818677705433219,0.0232727390378713,-0.0728542238086462,0.0021030697971582,-0.0246927384287118,-0.0053469971753656,standing,2026-03-04_13-52-34
1772632356368407800,1.94840771484375,-0.1003719069398939,0.0206001588277518,-0.0961076736241579,0.0266622081398963,-0.0453111976385116,-0.0184766463935375,standing,2026-03-04_13-52-34
1772632356378356700,1.958356689453125,-0.0179839119147509,0.0295328223459422,-0.1133393789321184,0.0406831242144107,-0.0526444539427757,-0.0215127151459455,standing,2026-03-04_13-52-34
1772632356388304600,1.9683046875,0.0447712349448353,0.0895471460647881,-0.1378875447332859,0.0481024235486984,-0.0305849593132734,-0.0107231838628649,standing,2026-03-04_13-52-34
1772632356398253600,1.978253662109375,0.0657251756463199,0.1413729026310145,-0.1239361762702465,0.0462677665054798,0.0019989348948001,0.0056235711090266,standing,2026-03-04_13-52-34
1772632356408201700,1.98820166015625,0.0956492623321711,0.1309197515472769,-0.0396790994375944,0.0320020094513893,0.0174455363303422,0.0162274800240993,standing,2026-03-04_13-52-34
1772632356418150700,1.998150634765625,0.0764209763795137,0.0728378571957349,0.0336409883171319,0.0122369080781936,0.0273259505629539,0.0234736390411853,standing,2026-03-04_13-52-34
1772632356428098600,2.0080986328125,0.0235191150143742,0.0224691675700247,0.0380506214529275,0.0013192789629101,0.0399671755731105,0.0207873079925775,standing,2026-03-04_13-52-34
1772632356438047700,2.0180478515625,-7.70107589662e-05,-0.0087637366920709,0.0607464373856782,-0.0095384530723094,0.0379256457090377,0.0165288411080837,standing,2026-03-04_13-52-34
1772632356447995600,2.02799560546875,0.0313540464237332,-0.0194089032165706,0.0613496639758348,-0.0111680421978235,0.0247121062129735,0.0155642442405223,standing,2026-03-04_13-52-34
1772632356457944600,2.037944580078125,0.0540054386928677,-0.0274833424702286,0.0225029237091541,-0.0058269412256777,0.0193605180829763,0.0175962746143341,standing,2026-03-04_13-52-34
1772632356467892700,2.047892822265625,0.0371915204055607,0.0018155249893665,-0.0227870013475418,0.0016083382070064,0.0197706446051597,0.023193173110485,standing,2026-03-04_13-52-34
1772632356477841700,2.057841552734375,0.0435329253215342,0.0155571962244808,-0.0299216755330562,0.0106122344732284,0.016625115647912,0.0295676402747631,standing,2026-03-04_13-52-34
1772632356487789600,2.06778955078125,0.0136309774022549,-0.0171998488649725,0.012680033352971,0.0135465050116181,0.0103698847815394,0.0303929559886455,standing,2026-03-04_13-52-34
1772632356497738500,2.077738525390625,-0.0348532136511057,-0.0540155216954648,0.0500794974207878,0.0109450481832027,0.0067544281482696,0.0213956534862518,standing,2026-03-04_13-52-34
1772632356507686700,2.087686767578125,-0.0694108784217387,-0.0672545041054487,0.0858487299382686,-0.0010418398305773,0.001270979642868,0.0152112608775496,standing,2026-03-04_13-52-34
1772632356517635600,2.097635498046875,-0.0829822345912456,-0.0648104719541966,0.1213292086422443,-0.011986156925559,-0.0078574065119028,0.0139519600197672,standing,2026-03-04_13-52-34
1772632356527583500,2.10758349609375,-0.0618897622019052,-0.0670239102199673,0.0909288096815347,-0.0184656269848346,-0.0165385119616985,0.0057275863364338,standing,2026-03-04_13-52-34
1772632356537532700,2.11753271484375,-0.0651065322913229,-0.0374238678567111,0.0303840323477983,-0.017905892804265,-0.0143627282232046,0.0019494742155075,standing,2026-03-04_13-52-34
1772632356547480600,2.12748046875,-0.0278430426280945,0.0165460611313581,-0.0187701669216156,-0.0125793050974607,-0.0071708615869283,0.0098838303238153,standing,2026-03-04_13-52-34
1772632356557429500,2.137429443359375,-0.0173463446635752,0.064808864519,-0.024994740524888,-0.0056093828752636,0.0011726978700608,0.0159919988363981,standing,2026-03-04_13-52-34
1772632356567377700,2.147377685546875,-0.0548946426175534,0.0496045733854174,-0.0763660313218832,0.0066456855274736,0.0155819971114397,0.013421781361103,standing,2026-03-04_13-52-34
1772632356577326600,2.15732666015625,-0.1056388144921511,0.0248814894087612,-0.0583563273787498,0.0166837740689516,0.0290995296090841,0.0076997713185846,standing,2026-03-04_13-52-34
1772632356587274500,2.1672744140625,-0.1637083608187735,0.0094112408153712,0.0082791680455207,0.0177066940814256,0.0200684834271669,-0.0024798954837024,standing,2026-03-04_13-52-34
1772632356597223700,2.1772236328125,-0.1033265920270234,-0.0365967693828046,0.0673170479476451,0.0076252371072769,0.0078304409980773,-0.0088465996086597,standing,2026-03-04_13-52-34
1772632356607171600,2.187171630859375,-0.0438337348990142,-0.0414547308079898,0.0717699357032775,0.0049650054425001,0.0141860758885741,-0.0019689858891069,standing,2026-03-04_13-52-34
1772632356617120800,2.197120849609375,-0.0231956552136689,0.0202669813506305,0.0334679698377847,0.0061946236528456,0.0392483435571193,0.0103222746402025,standing,2026-03-04_13-52-34
1772632356627068700,2.207068603515625,-0.0570966827064752,0.0174479784071445,0.0697357995271682,0.002722127828747,0.0423748940229415,0.0122051294893026,standing,2026-03-04_13-52-34
1772632356637017600,2.217017578125,-0.0466979652237147,-0.0516594600886106,0.1344721833318471,-0.003443157300353,0.0148854609578847,0.0081971865147352,standing,2026-03-04_13-52-34
1772632356646965800,2.2269658203125,-0.0312237711075693,-0.1085711416170001,0.2047667857855558,-0.0160612128674983,-0.0305528603494167,-0.0021507921628654,standing,2026-03-04_13-52-34
1772632356656913700,2.23691357421875,-0.0865310861792415,-0.115797147347778,0.2068225492715835,-0.0295486487448215,-0.0723206996917724,-0.0176472384482622,standing,2026-03-04_13-52-34
1772632356666862800,2.24686279296875,-0.1117898844677954,-0.0839390969246625,0.0793628750503063,-0.0336168929934501,-0.0742509588599205,-0.0245488192886114,standing,2026-03-04_13-52-34
1772632356676810800,2.256810791015625,-0.1524166400190442,-0.0331764395453035,-0.1343295599907636,-0.0275422222912311,-0.0381329022347927,-0.02545109950006,standing,2026-03-04_13-52-34
1772632356686759700,2.266759765625,-0.1658487338483333,0.0398364819563925,-0.2371153962045908,-0.0189676415175199,-0.0010888648685067,-0.0235772989690303,standing,2026-03-04_13-52-34
1772632356696707800,2.276707763671875,-0.1226005437523126,0.0541099219806492,-0.2523468676060438,-0.0076573984697461,0.0264261346310377,-0.009779043495655,standing,2026-03-04_13-52-34
1772632356706656800,2.28665673828125,-0.0590427752729505,0.0669911769941449,-0.1783165857553482,0.0017438265495002,0.0413398370146751,0.0077879661694169,standing,2026-03-04_13-52-34
1772632356716604700,2.296604736328125,-0.0400980555020272,0.0696641955956816,-0.072694064810872,0.0143452063202857,0.0321744233369827,0.0153713747859001,standing,2026-03-04_13-52-34
1772632356726553600,2.3065537109375,-0.0177339557416737,0.0200675132557749,-0.0087613986045122,0.0232169944792985,0.0137101970613002,0.0215432494878768,standing,2026-03-04_13-52-34
1772632356736501800,2.316501708984375,-0.0688648619115352,-0.0330621655158698,0.0597819762676954,0.0273413322865962,0.0007724361494183,0.0137758171185851,standing,2026-03-04_13-52-34
1772632356746450700,2.32645068359375,-0.1397818340472877,-0.0907340177617967,0.1304009883701801,0.0245508719235658,-0.0168672762811183,-0.0060657979920506,standing,2026-03-04_13-52-34
1772632356756398600,2.336398681640625,-0.1226044162098318,-0.1332727444142103,0.1403600723266601,0.0148313343524932,-0.0312022920697927,-0.0257190130650997,standing,2026-03-04_13-52-34
1772632356766347500,2.346347412109375,-0.0828018365230411,-0.1226025895789265,0.1341506962925195,0.0009884890168905,-0.0284927915781736,-0.0377562381327152,standing,2026-03-04_13-52-34
1772632356776295700,2.356295654296875,-0.0411583782099187,-0.021362667632848,0.1041904423147439,-0.0117066241800785,-0.0121028767898678,-0.0373056903481483,standing,2026-03-04_13-52-34
1772632356786244600,2.36624462890625,0.0018259002529084,0.0478700046777725,0.0728624071151018,-0.0222820378839969,-0.0017040318343788,-0.0255118831992149,standing,2026-03-04_13-52-34
1772632356796192800,2.37619287109375,0.0362718482773751,0.0703043931953609,0.0413292047321796,-0.0269847474992275,0.0128747867420315,-0.0085649136453866,standing,2026-03-04_13-52-34
1772632356806141700,2.3861416015625,1.44669167697e-05,0.0715321814246475,0.0193202020198106,-0.0260718129575252,0.0193265601992607,-0.0019946293905377,standing,2026-03-04_13-52-34
1772632356816089600,2.396089599609375,-0.036188992299512,0.0462685608305037,0.0246165548622608,-0.0215882286429405,0.0077761593274772,-0.0046269483864307,standing,2026-03-04_13-52-34
1772632356826038500,2.40603857421875,-0.0578951396077871,0.0128413613945245,0.035140286964178,-0.013791024684906,-0.0085026789456605,-0.0092688389122486,standing,2026-03-04_13-52-34
1772632356835986700,2.415986572265625,-0.0450645188029855,-0.0026518296830356,0.0382896909058094,-0.0067068352364003,-0.0228290818631649,-0.0120530379936099,standing,2026-03-04_13-52-34
1772632356845935600,2.425935546875,-0.039112332400307,0.0205180335022509,0.0468318938016891,-0.0045624575577676,-0.0406104736030101,-0.0122983148321509,standing,2026-03-04_13-52-34
1772632356855883500,2.435883544921875,-0.0134025024086236,0.0224222596883773,0.073445759961009,-0.0059690731577575,-0.0539293140172958,-0.0111122652888298,standing,2026-03-04_13-52-34
1772632356865832400,2.44583251953125,-0.0060968555703759,0.0149415485441684,0.0518348166555166,-0.0070689595304429,-0.0548289306461811,-0.0092105027288198,standing,2026-03-04_13-52-34
1772632356875780600,2.455780517578125,-0.0658545741796493,0.0286322202444076,0.0231897369295358,-0.010958231985569,-0.0445239432156086,-0.0097202379256486,standing,2026-03-04_13-52-34
1772632356885729500,2.4657294921875,-0.1043463635288178,0.0447866517096757,0.0048942017823457,-0.0154323428869247,-0.0317394398152828,-0.0026064019184559,standing,2026-03-04_13-52-34
1772632356895677400,2.475677490234375,-0.0816849613223224,-0.0429614821091294,-0.0441612132877111,-0.0186373442411422,-0.0026025879196822,-0.0012838256079703,standing,2026-03-04_13-52-34
1772632356905626600,2.485626708984375,-0.1079546902190893,-0.0853245599336922,-0.017462006932497,-0.021720752120018,0.0131452158093452,-0.0135002778843045,standing,2026-03-04_13-52-34
1772632356915574500,2.495574462890625,-0.1114743887778371,-0.062747109683603,0.0129962596952915,-0.0251600164920091,0.0120867397636175,-0.0270737707614898,standing,2026-03-04_13-52-34
1772632356925523700,2.505523681640625,-0.0627267244827002,-0.0614694909632205,0.0028308395117521,-0.0237224400043487,0.0011448764707893,-0.0316637270152568,standing,2026-03-04_13-52-34
1772632356935471600,2.5154716796875,0.0228174695510417,-0.0447160706914961,-0.0081043960005044,-0.0170226711779832,-0.0143825486302375,-0.0279868096113204,standing,2026-03-04_13-52-34
1772632356945420800,2.5254208984375,0.1010020946022123,0.0258826292753219,0.0207645556092262,-0.0108127109706401,-0.034475564956665,-0.0125801563262939,standing,2026-03-04_13-52-34
1772632356955368700,2.53536865234375,0.0868356220837682,0.0209954417556524,0.0293207870304584,-0.0100316721946001,-0.0423252508044242,-0.0007928906707093,standing,2026-03-04_13-52-34
1772632356965317600,2.545317626953125,0.0461138086602091,-0.0184947109811007,0.0334632936626672,-0.0154251046478748,-0.0450818873941898,-0.0064073670655488,standing,2026-03-04_13-52-34
1772632356975265800,2.555265869140625,0.0212206288136541,-0.0590764583468437,0.028340543821454,-0.0240617599338293,-0.0444520115852355,-0.0130686424672603,standing,2026-03-04_13-52-34
1772632356985214700,2.565214599609375,0.0099812227230519,-0.0506802397929131,0.0007470189750194,-0.033721312880516,-0.0295865125954151,-0.0128055214881896,standing,2026-03-04_13-52-34
1772632356995162600,2.57516259765625,0.0178648155797272,0.0008263678215444,-0.0230745861172676,-0.039664763957262,-0.008034779690206,-0.0051083341240882,standing,2026-03-04_13-52-34
1772632357005111800,2.58511181640625,0.0531235412918031,0.0348205534905195,-0.0226151519119739,-0.039372082799673,0.0090366154909133,0.0043906290084123,standing,2026-03-04_13-52-34
1772632357015059700,2.595059814453125,0.0813490804314613,0.0534121489748358,0.0285480490922927,-0.0380299761891365,-0.0085356356576085,0.0138514786958694,standing,2026-03-04_13-52-34
1772632357025008600,2.605008544921875,0.090931001638621,0.0215441616795957,0.0244423673391342,-0.0308391768485307,-0.0257130246609449,0.0099645964801311,standing,2026-03-04_13-52-34
1772632357034956800,2.614956787109375,0.0582918107751756,-0.0205291394181549,-0.0968079308480024,-0.0158910565078258,0.0024426118470728,0.0030501082073897,standing,2026-03-04_13-52-34
1772632357044905700,2.62490576171875,0.0191398770168423,0.0428977692231535,-0.1876134064108133,0.0015633013099431,0.0293202977627515,0.0087170479819178,standing,2026-03-04_13-52-34
1772632357054853600,2.634853515625,-0.0095247841924428,0.1025681018099188,-0.162249832573533,0.0225906409323215,0.0471238456666469,0.0113941971212625,standing,2026-03-04_13-52-34
1772632357064802600,2.644802490234375,0.0373904039785265,0.0462692914828658,-0.0921598127812147,0.0264144074171781,0.0449507050216198,0.0113870063796639,standing,2026-03-04_13-52-34
1772632357074750700,2.654750732421875,0.1031447326540946,0.0681048373244702,0.0544406152397394,0.0164291393011808,0.0160512626171112,0.0229603126645088,standing,2026-03-04_13-52-34
1772632357084699600,2.66469970703125,0.1473321032963693,0.1085632505714893,0.1421697520971298,0.0061663822270929,-0.0007618053350597,0.0418506450951099,standing,2026-03-04_13-52-34
1772632357094647600,2.6746474609375,0.1043250284798443,0.0836446440227329,0.1304834059566259,-0.0003765993751585,-0.0056601222604513,0.0521525926887989,standing,2026-03-04_13-52-34
1772632357104595700,2.684595703125,0.0266951877672225,0.0546262009397149,0.0758574972778558,-7.88578763604e-05,0.0094250878319144,0.0495813079178333,standing,2026-03-04_13-52-34
1772632357114544600,2.694544677734375,-0.0019454349793493,0.0524057484112679,0.0974509049266576,-0.0008513238281011,0.0188109502196311,0.0473279766738414,standing,2026-03-04_13-52-34
1772632357124492500,2.704492431640625,-0.0313906521070748,0.0308399594217538,0.1595768139719963,-0.0093201752752065,0.0010077178012579,0.0411936528980731,standing,2026-03-04_13-52-34
1772632357134441700,2.714441650390625,-0.0304405117753893,-0.0046466567620635,0.1958352913111448,-0.0171539634466171,-0.0206937082111835,0.030203528702259,standing,2026-03-04_13-52-34
1772632357144389600,2.7243896484375,-0.026466639708355,-0.0146596628628671,0.1654939290612936,-0.0275469496846199,-0.034627366811037,0.0278112106025218,standing,2026-03-04_13-52-34
1772632357154338600,2.734338623046875,-0.0623264000535011,0.0404635278135538,0.1418769066303968,-0.0411541759967803,-0.0364608503878116,0.0235649198293685,standing,2026-03-04_13-52-34
1772632357164286700,2.74428662109375,-0.0126858785718679,0.0944327261492609,0.0946498760312795,-0.0591195970773696,-0.040632426738739,0.0275743082165718,standing,2026-03-04_13-52-34
1772632357174235600,2.754235595703125,-0.022310542942211,0.1233192134156823,-0.0086515084892511,-0.0632147639989852,-0.0250156093388795,0.0488381385803222,standing,2026-03-04_13-52-34
1772632357184183600,2.76418359375,-0.1041982602950185,0.0807296333588659,-0.1198491992175579,-0.053080640733242,0.0137965008616447,0.0600428581237793,standing,2026-03-04_13-52-34
1772632357194132500,2.774132568359375,-0.1192258796874433,0.059941258482635,-0.181519181188941,-0.0371240191161632,0.0272197090089321,0.0543547980487346,standing,2026-03-04_13-52-34
1772632357204080600,2.78408056640625,-0.1698421143334358,0.0086352880068123,-0.1606155093699693,-0.0136061795055866,0.0464767627418041,0.0464225709438324,standing,2026-03-04_13-52-34
1772632357214029600,2.794029541015625,-0.1350005180548876,-0.0158088328979909,-0.1087099655658006,0.0115041118115186,0.0477913618087768,0.0454111285507679,standing,2026-03-04_13-52-34
1772632357223977500,2.8039775390625,-0.1394199419323354,-0.0373166080899536,0.0441267264962196,0.020502932369709,0.0157484728842973,0.0349640771746635,standing,2026-03-04_13-52-34
1772632357233926700,2.8139267578125,-0.1110896272439509,-0.089143387569487,0.1552437532037496,0.0173542480915784,-0.0187492258846759,0.0187118928879499,standing,2026-03-04_13-52-34
1772632357243874600,2.82387451171875,-0.0939059988614171,-0.1337853701114654,0.1700239737063646,0.0068187834694981,-0.0426526963710784,0.0081884106621146,standing,2026-03-04_13-52-34
1772632357253823700,2.83382373046875,-0.1240193975742906,-0.0879461406089365,0.1269756900966167,-0.00745047070086,-0.0483570285141468,-0.0002393338363617,standing,2026-03-04_13-52-34
1772632357263771600,2.843771728515625,-0.1564779711738228,-0.0555886162310838,-0.0139092828869819,-0.0195785053074359,-0.028609687462449,-0.0098602697253227,standing,2026-03-04_13-52-34
1772632357273720800,2.853720947265625,-0.1129001107320189,-0.0496915210165083,-0.095516137471795,-0.0288849044591188,0.0041778907179832,-0.0139984767884016,standing,2026-03-04_13-52-34
1772632357283668700,2.863668701171875,-0.050646922045201,-0.0154912913814187,-0.1270475862890482,-0.0334298536181449,0.0352692306041717,-0.0030704610981047,standing,2026-03-04_13-52-34
1772632357293617700,2.87361767578125,-0.0034867461372166,0.0238726046271622,-0.1081038163661956,-0.0353661626577377,0.0480557717382907,0.0096839349716901,standing,2026-03-04_13-52-34
1772632357303565800,2.88356591796875,0.0133425889149308,0.0038879473492503,-0.0375450100183486,-0.0307399854063987,0.0300884917378425,0.012510348111391,standing,2026-03-04_13-52-34
1772632357313514000,2.893513916015625,0.0271290491398423,-0.0350878261245787,-0.0382160411477088,-0.0213095284998416,0.0139917945489287,0.0135443015024065,standing,2026-03-04_13-52-34
1772632357323462000,2.9034619140625,-0.0050753305029124,-0.0281271933317184,-0.0841822580307722,0.0022804848849773,0.0052150813862681,0.0123868919909,standing,2026-03-04_13-52-34
1772632357333411000,2.9134111328125,-0.0454625051446259,0.0153439918652176,-0.065435471984744,0.022821782156825,-0.0130337988957762,0.0084069417789578,standing,2026-03-04_13-52-34
1772632357343359000,2.92335888671875,-0.0757793905403465,0.0180472594745457,-0.0223959562033414,0.0320858545601367,-0.0417349524796009,-0.0065823942422866,standing,2026-03-04_13-52-34
1772632357353308000,2.933307861328125,-0.0794209619130939,-0.0402342491023242,-0.0352022462844848,0.0361584164202213,-0.0385560654103755,-0.0237292647361755,standing,2026-03-04_13-52-34
1772632357363256000,2.943256103515625,-0.0722302466914057,-0.0073829498581588,-0.0803168147742748,0.0337687619030475,-0.0102525241672992,-0.0294212382286787,standing,2026-03-04_13-52-34
1772632357373205000,2.953205078125,-0.033869390245527,0.1031017702952027,-0.0708732791244983,0.0216989237815141,0.0239285826683044,-0.0185124352574348,standing,2026-03-04_13-52-34
1772632357383153000,2.96315283203125,0.0558514318857341,0.149753485224396,-0.0377104297131299,0.0074827037751674,0.0382238999009132,0.0006700481753796,standing,2026-03-04_13-52-34
1772632357393101800,2.973101806640625,0.164881350120902,0.1419179692931473,0.0032914427608251,0.0003015510737895,0.0284597016870975,0.024819478392601,standing,2026-03-04_13-52-34
1772632357403050000,2.983050048828125,0.1826879327073693,0.1448665899656712,-0.010684475621581,0.0091794645413756,0.0134751591831445,0.0453143641352653,standing,2026-03-04_13-52-34
1772632357412999000,2.9929990234375,0.0647710167266428,0.1417455353356898,-0.0831155055820941,0.0322315208613872,0.0059461365453898,0.0478110797703266,standing,2026-03-04_13-52-34
1772632357422946800,3.00294677734375,-0.0675580901619046,0.0835259860791265,-0.1419710146546363,0.0570500530302524,0.0088521782308816,0.0296866726130247,standing,2026-03-04_13-52-34
1772632357432896300,3.012896240234375,-0.1334180711690336,0.0065830316521227,-0.1295621994584798,0.0705607682466507,0.0171547401696443,0.0032136132940649,standing,2026-03-04_13-52-34
1772632357442844000,3.022843994140625,-0.076219389392808,0.0131200322054326,-0.0163981770932674,0.0655545517802238,0.014769347384572,0.005356125999242,standing,2026-03-04_13-52-34
1772632357452793000,3.03279296875,-0.0367087053246796,-0.0143250240810215,0.1232844343632459,0.0509530007839202,0.0234982017427682,0.0155964335426688,standing,2026-03-04_13-52-34
1772632357462741200,3.0427412109375,-0.0318538857046514,0.0011918401330709,0.223321264129877,0.0265749543905258,0.0272327531129121,0.0120738698169589,standing,2026-03-04_13-52-34
1772632357472690200,3.052690185546875,-0.0066372460573911,0.0084945643618702,0.2984346650421619,-0.0031719086691737,0.0017320744227617,0.0175227411091327,standing,2026-03-04_13-52-34
1772632357482638000,3.06263818359375,0.0271316064231097,0.0127744336381554,0.2589543030470609,-0.0214350689202547,-0.010215132497251,0.0267841480672359,standing,2026-03-04_13-52-34
1772632357492587000,3.0725869140625,-0.0167521050974726,0.0547837295889854,0.1655114647179842,-0.0177869983017444,-0.0106993969529867,0.0315889045596122,standing,2026-03-04_13-52-34
1772632357502535200,3.08253515625,-0.1165251693613827,0.0540514697916805,0.0734019208192825,-0.0086214626207947,-0.0139239523559808,0.0229229778051376,standing,2026-03-04_13-52-34
1772632357512484000,3.092484130859375,-0.11956782499291,0.0293164031162857,0.0403372710853815,0.0023052035830914,-0.0123907290399074,0.0101771783083677,standing,2026-03-04_13-52-34
1772632357522432000,3.102431884765625,-0.104368940686807,0.0201893860697746,0.0477642062157392,0.0070283198729157,-0.0068862414918839,0.0020473462063819,standing,2026-03-04_13-52-34
1772632357532381200,3.112381103515625,-0.1275902417983859,0.0318164032384753,0.1183808802306652,-0.003131796605885,-0.0077190757729113,-0.0039309440180659,standing,2026-03-04_13-52-34
1772632357542329000,3.1223291015625,-0.0968988970670849,0.0198442258939147,0.1689952151805162,-0.0207299627363681,-0.0234951097518205,-0.0102732619270682,standing,2026-03-04_13-52-34
1772632357552278000,3.132278076171875,-0.0270529882289469,0.0357118032418191,0.1333499013036489,-0.0309001933783292,-0.0341121777892112,-0.0070438687689602,standing,2026-03-04_13-52-34
1772632357562226200,3.14222607421875,-0.0222963682863861,0.1052525185883045,0.0146077865451574,-0.031431496143341,-0.0214648284018039,0.0052042752504348,standing,2026-03-04_13-52-34
1772632357572174000,3.152174072265625,-0.0471158983748406,0.1374418467923998,-0.0825163706451654,-0.0235773865133523,0.004694627597928,0.0116567844524979,standing,2026-03-04_13-52-34
1772632357582123000,3.162123046875,-0.0490120873849838,0.086033584985882,-0.1298965459793806,-0.0088005699217319,0.0317384973168373,0.015011035837233,standing,2026-03-04_13-52-34
1772632357592071200,3.1720712890625,-0.0309068141128867,0.0565422636941075,-0.0995914240866899,0.0026845475658774,0.050001211464405,0.0169136188924312,standing,2026-03-04_13-52-34
1772632357602020000,3.18202001953125,-0.0237434983547776,0.0342353009484708,0.0332061040312051,0.0020350026898086,0.0365365371108055,0.0160451605916023,standing,2026-03-04_13-52-34
1772632357611968000,3.191968017578125,-0.0443410998992621,-0.0398635160937905,0.2320814936906099,-0.0124443639069795,-0.0175298545509576,0.0020889539737254,standing,2026-03-04_13-52-34
1772632357621917000,3.2019169921875,-0.0370037427484989,-0.1209266191907227,0.2303501398533582,-0.0222836788743734,-0.0674444139003753,-0.0219468735158443,standing,2026-03-04_13-52-34
1772632357631865000,3.211864990234375,-0.0489384376268833,-0.1123661499857902,0.0091413378328084,-0.0160154812037944,-0.0633173659443855,-0.0293348878622055,standing,2026-03-04_13-52-34
1772632357641814000,3.22181396484375,-0.096723248239234,0.007596154217422,-0.1828179888278245,-0.002123100683093,-0.0238684900104999,-0.028215829282999,standing,2026-03-04_13-52-34
1772632357651762000,3.231761962890625,-0.0788503224182873,0.0827066325202584,-0.2562421214789152,0.0086011681705713,-0.0005278261378407,-0.0161356478929519,standing,2026-03-04_13-52-34
1772632357661711000,3.241711181640625,-0.0243172796547412,0.0473839747264981,-0.2364636542975902,0.0153964897617697,0.0136689534410834,-0.0062108444981276,standing,2026-03-04_13-52-34
1772632357671659000,3.251658935546875,-0.0352258463557809,0.0387283745840191,-0.1683890659809112,0.0218985639512538,0.0189570151269435,8.30229837447e-05,standing,2026-03-04_13-52-34
1772632357681608000,3.26160791015625,-0.0338057504247874,0.0246359902150928,-0.0952186158299446,0.0278635136783123,0.0151497600600123,0.0068402616307139,standing,2026-03-04_13-52-34
1772632357691556000,3.27155615234375,-0.0042480128332972,0.019618746574968,-0.0664952101707458,0.0372245237231254,0.0161524415016174,0.0157834235578775,standing,2026-03-04_13-52-34
1772632357701505000,3.281505126953125,-0.0210693837746977,0.0086415716171264,-0.028996961903572,0.0445500798523426,0.0189817827194929,0.0135197360068559,standing,2026-03-04_13-52-34
1772632357711453000,3.291452880859375,-0.0875097950182855,-0.0328355171531438,0.0636830753594636,0.0430693961679935,0.011310457251966,-0.0008222042815759,standing,2026-03-04_13-52-34
1772632357721401900,3.30140185546875,-0.1014172512743622,-0.1000330303743481,0.1411439161807298,0.0323006361722946,0.0011086864396929,-0.019975658506155,standing,2026-03-04_13-52-34
1772632357731350000,3.31135009765625,-0.0584363338124006,-0.1020088604919612,0.1972673699408769,0.0146720614284276,-0.0092484336346387,-0.0336216539144516,standing,2026-03-04_13-52-34
1772632357741299000,3.321298828125,-0.0184597127329558,-0.038300650691241,0.236663560783863,-0.0103049278259277,-0.0138240102678537,-0.0326554588973522,standing,2026-03-04_13-52-34
1772632357751246800,3.331246826171875,-0.0116723906803876,0.0071897653736174,0.2186865900665521,-0.0343174636363983,-0.0215456634759902,-0.0292143616825342,standing,2026-03-04_13-52-34
1772632357761196000,3.341196044921875,0.0411221378527581,0.0152086750477552,0.1227332302212715,-0.0448428019881248,-0.0336254984140396,-0.0213037077337503,standing,2026-03-04_13-52-34
1772632357771144000,3.35114404296875,0.0687850016083568,0.0565675442658364,-0.0420382297843694,-0.0350486598908901,-0.0180538687855005,-0.0129503794014453,standing,2026-03-04_13-52-34
1772632357781093000,3.361093017578125,0.0502229244794696,0.1203948504015803,-0.2210048038810491,-0.0094418358057737,0.0154638774693012,-3.53797804564e-05,standing,2026-03-04_13-52-34
1772632357791041000,3.371041015625,0.0227797678891569,0.1493617094278335,-0.2558446465939283,0.0206044875085353,0.0326539315283298,0.0064526069909334,standing,2026-03-04_13-52-34
1772632357800990200,3.380990234375,0.0201773303057998,0.1140098255395889,-0.2020358995169401,0.0381065160036087,0.0267446432262659,0.0120708113536238,standing,2026-03-04_13-52-34
1772632357810938000,3.390938232421875,0.041094007736817,0.0458824841223657,-0.110434305140376,0.0515141114592552,0.0060268705710768,0.0125605035573244,standing,2026-03-04_13-52-34
1772632357820887000,3.400886962890625,0.0436371894136071,0.0355254868894815,-0.0034293899267911,0.0524781756103038,-0.0150294126942753,0.012355706654489,standing,2026-03-04_13-52-34
1772632357830835200,3.410835205078125,0.0036187019538134,0.0344682329215109,0.0537526329755783,0.0466307289898395,-0.024166315793991,0.0095499586313962,standing,2026-03-04_13-52-34
1772632357840784100,3.4207841796875,-0.0169715200018137,0.00758577895388,0.0956271966308355,0.0314176864922046,-0.021966278553009,0.0079472679644823,standing,2026-03-04_13-52-34
1772632357850732000,3.43073193359375,-0.0446615640252828,0.0063186816275119,0.0934586204200983,0.0172194652259349,-0.011695004068315,0.0026371404528617,standing,2026-03-04_13-52-34
1772632357860681000,3.440680908203125,-0.0385348978385329,0.0138332950413227,0.0723129565387964,0.0046733147464692,0.0130068799480795,0.0062537132762372,standing,2026-03-04_13-52-34
1772632357870629000,3.450629150390625,-0.0380536901928484,0.0247137316264212,0.0646422757804393,-0.0012851529754698,0.0398379378020763,0.0084418291226029,standing,2026-03-04_13-52-34
1772632357880578000,3.460578125,-0.0631377164363861,0.0505346938423812,0.0786637868702411,-0.0066753909923136,0.0400278195738792,0.0104064429178833,standing,2026-03-04_13-52-34
1772632357890526000,3.47052587890625,-0.0880352801971137,-0.0033092706784605,0.1437333481520414,-0.008110124617815,0.0112185673788189,-0.0018667976837605,standing,2026-03-04_13-52-34
1772632357900475100,3.48047509765625,-0.0318050781268626,-0.0421793918207287,0.0943722281336784,-0.0047289757058024,-0.0186186917126178,-0.0089204460382461,standing,2026-03-04_13-52-34
1772632357910423000,3.490423095703125,0.0218338653411716,-0.0063224810197949,0.0605593903809785,0.0059073567390441,-0.0236566103994846,-0.0075370860286056,standing,2026-03-04_13-52-34
1772632357920372000,3.5003720703125,0.0206756352167576,0.0612267682485282,-0.0004255319356918,0.014380469918251,-0.0136750824749469,-6.1993487179e-06,standing,2026-03-04_13-52-34
1772632357930320100,3.510320068359375,-0.0380049556802958,0.0763876586318016,0.0053495443344116,0.0129625033587217,-0.0107446648180484,0.0027956555131822,standing,2026-03-04_13-52-34
1772632357940269000,3.52026904296875,-0.0801455498605966,0.0153210493810474,0.0004430675923824,0.0047559719532728,-0.0084128007292747,-0.0053733247332274,standing,2026-03-04_13-52-34
1772632357950217000,3.530217041015625,-0.0535548453811556,0.0048015550628304,0.0298100318521261,-0.0047804173082113,-0.0005270270630717,-0.0058459914289414,standing,2026-03-04_13-52-34
1772632357960166000,3.540165771484375,-0.0288934284638613,0.042641456374526,0.0590197597235441,-0.0172842256724834,0.0135118262842297,0.0040716202929615,standing,2026-03-04_13-52-34
1772632357970114000,3.550114013671875,-0.0267910493571311,0.079221713013947,0.1089443588435649,-0.0302860774099826,0.0052888728678226,0.0126251801848411,standing,2026-03-04_13-52-34
1772632357980063000,3.56006298828125,-0.0814013951405882,0.0302336640916764,0.0870429081588983,-0.0343442000448703,-0.0146896289661526,-0.0010608047014102,standing,2026-03-04_13-52-34
1772632357990011000,3.570010986328125,-0.1138191252730786,-0.0310106398135423,-0.0824544113248586,-0.0207237098366022,-0.006068680435419,-0.0169388502836227,standing,2026-03-04_13-52-34
1772632357999960000,3.5799599609375,-0.100078038559854,0.0118422673545777,-0.1912479635208845,0.002578682731837,0.0192345455288887,-0.0187668446451425,standing,2026-03-04_13-52-34
1772632358009908000,3.589907958984375,-0.0161343385253101,0.0937204862266778,-0.1575678122371435,0.0219925753772258,0.034561276435852,-0.0050965589471161,standing,2026-03-04_13-52-34
1772632358019857000,3.59985693359375,0.0450547280613332,0.0861348534032702,-0.0448252301543951,0.0277519263327121,0.0138472067192196,0.0021301947999745,standing,2026-03-04_13-52-34
1772632358029805000,3.60980517578125,0.0882780029118061,0.0362950099572539,0.0314057766109704,0.0251328498125076,-0.0090656280517578,0.0068407738581299,standing,2026-03-04_13-52-34
1772632358039754000,3.61975390625,0.054786359937489,0.0281476515978574,0.0401420407742261,0.0214044228196144,-0.0098818857222795,0.0156281385570764,standing,2026-03-04_13-52-34
1772632358049702000,3.629701904296875,-0.0370704513091594,0.0523559179201722,0.0581885695964097,0.0160095579922199,0.0048061497509479,0.0162078365683555,standing,2026-03-04_13-52-34
1772632358059650000,3.639650146484375,-0.0808968796845525,0.0058534022033214,0.1013040732234716,0.0058490661904215,0.0156255066394805,0.0050643719732761,standing,2026-03-04_13-52-34
1772632358069599000,3.649598876953125,-0.0245072492688894,-0.0623886516347527,0.1450304022252559,-0.0062544774264097,0.0217481851577758,0.0031088877003639,standing,2026-03-04_13-52-34
1772632358079547000,3.659546875,0.0141604811690747,-0.0690071929916739,0.1843500207006931,-0.0191020984202623,0.0213945172727108,0.0003317433875054,standing,2026-03-04_13-52-34
1772632358089496000,3.66949609375,-0.0572648058149963,-0.0844631207987666,0.1965630210638046,-0.0293778739869594,0.0120495911687612,-0.0087105827406048,standing,2026-03-04_13-52-34
1772632358099444000,3.67944384765625,-0.066867842875421,-0.1237469373084604,0.1358434716850519,-0.0328335911035537,-0.0087579526007175,-0.0254512131214141,standing,2026-03-04_13-52-34
1772632358109393200,3.68939306640625,-0.0367342050921171,-0.1285363635420799,0.0599988338887691,-0.0308794304728508,-0.0279529690742492,-0.0304863378405571,standing,2026-03-04_13-52-34
1772632358119341000,3.699341064453125,-0.028421280907467,-0.0357756622582674,-0.0110521398901939,-0.0240292456001043,-0.0367278195917606,-0.0276327598839998,standing,2026-03-04_13-52-34
1772632358129290000,3.7092900390625,-0.0431830159053206,0.0403803795747458,-0.1204313830196857,-0.012040814384818,-0.0270119439810514,-0.0213425327092409,standing,2026-03-04_13-52-34
1772632358139238100,3.719238037109375,-0.0132999188169836,0.0667021309196949,-0.2064127994269132,0.00112319085747,-0.0037601510994136,-0.0106672514230012,standing,2026-03-04_13-52-34
1772632358149187000,3.72918701171875,-0.0221129745434969,0.0712090869501233,-0.2061135242193937,0.0088353920727968,0.0153773352503776,-0.0028739420231431,standing,2026-03-04_13-52-34
1772632358159135000,3.739135009765625,-0.0325943288084119,0.0529683507300913,-0.1647574314802884,0.013510039076209,0.0353553034365177,0.0022534418385475,standing,2026-03-04_13-52-34
1772632358169084200,3.749084228515625,-0.0278247763190418,0.0336795667618513,-0.1356271985858679,0.0173393413424491,0.0564889498054981,0.0095013426616787,standing,2026-03-04_13-52-34
1772632358179032000,3.759031982421875,-0.0306831614248454,0.051195203577727,-0.0308013809770345,0.0209085121750831,0.053614068776369,0.0152239426970481,standing,2026-03-04_13-52-34
1772632358188981000,3.76898095703125,-0.0120325292296707,0.0145031571269035,0.0991886885046959,0.0141689144074916,0.0207970160990953,0.0104442546144127,standing,2026-03-04_13-52-34
1772632358198929200,3.77892919921875,-0.0136312696631997,-0.0446665324613451,0.1316606330424547,0.0115523589774966,-0.0078716464340686,-0.0007058687042444,standing,2026-03-04_13-52-34
1772632358208878000,3.788878173828125,-0.0180020320933312,-0.0241312555633485,0.0901852978378534,0.0125102428719401,-0.0056294007226824,-0.0069308998063206,standing,2026-03-04_13-52-34
1772632358218826000,3.798825927734375,-0.0224999280344694,0.0230823310323059,0.0706231037557125,0.012834882363677,0.0089676510542631,-0.0051764091476798,standing,2026-03-04_13-52-34
1772632358228775000,3.80877490234375,-0.042222792571038,0.0385389894917607,0.0997433997780084,0.0037178618367761,0.0082291457802057,-0.0086865574121475,standing,2026-03-04_13-52-34
1772632358238723000,3.81872314453125,-0.0224082311630249,0.0381431220419704,0.1173807632774114,-0.0059928228147327,0.0111900474876165,-0.0095270508900284,standing,2026-03-04_13-52-34
1772632358248672000,3.828672119140625,0.0123770318184047,0.0571093960575759,0.1339648183315992,-0.014232899993658,0.0188180208206176,-0.003369296202436,standing,2026-03-04_13-52-34
1772632358258620000,3.838619873046875,0.012011851767823,0.0948880687013268,0.1439928758710622,-0.0263678599148988,0.0052119316533207,0.0039000681135803,standing,2026-03-04_13-52-34
1772632358268569000,3.848569091796875,0.027803368204832,0.040300738467276,0.1235223347723483,-0.0314140133559703,-0.0114914150908589,0.0013255903031677,standing,2026-03-04_13-52-34
1772632358278517000,3.85851708984375,0.0089746029637753,0.0069068567790091,-0.0285246682167053,-0.0230207983404397,0.0018417006358504,0.0022558325435966,standing,2026-03-04_13-52-34
1772632358288466000,3.8684658203125,-0.025207871818915,0.0700615243501961,-0.1118447564601898,-0.00769654661417,0.030598510056734,0.0078220544382929,standing,2026-03-04_13-52-34
1772632358298414000,3.8784140625,-0.0104506668657064,0.0889880508773028,-0.0836427443265914,0.0041222954168915,0.0393816120922565,0.0156301781535148,standing,2026-03-04_13-52-34
1772632358308363000,3.888363037109375,0.014960107114166,0.0375279127530753,0.0284726457685232,0.0055776410736143,0.0031363593880087,0.0161709189414978,standing,2026-03-04_13-52-34
1772632358318311200,3.898311279296875,0.0030237317353487,-0.0424886039003729,0.0842974088430404,0.0028508305549621,-0.0287486016750335,0.0033115800470113,standing,2026-03-04_13-52-34
1772632358328260000,3.908260009765625,-0.0546766159527003,-0.06651537617594,0.0259463421612977,0.0007997909560799,-0.02538419701159,-0.007789502851665,standing,2026-03-04_13-52-34
1772632358338208300,3.918208251953125,-0.1318457072857767,-0.0224701904833316,-0.0534217935860156,-0.0017768172547221,0.0036772820167243,-0.012459622696042,standing,2026-03-04_13-52-34
1772632358348157200,3.9281572265625,-0.1625434086926281,-0.0057819444023072,-0.0463818119466304,-0.0111229149624705,0.0249396935105323,-0.0213977228850126,standing,2026-03-04_13-52-34
1772632358358105000,3.93810498046875,-0.0692564915776252,-0.0428339102067053,-0.0264069454103708,-0.0196676664054393,0.0401812270283699,-0.0166759397834539,standing,2026-03-04_13-52-34
1772632358368054300,3.94805419921875,-0.0057036915343254,-0.0269822610802948,-0.0139355863720178,-0.0194748416543006,0.0565313212573528,-0.0021273626480251,standing,2026-03-04_13-52-34
1772632358378002200,3.958002197265625,0.0008190612979233,0.0238154676124453,0.0377197820633649,-0.0198641959577798,0.0405446328222751,0.0107663320377469,standing,2026-03-04_13-52-34
1772632358387951400,3.967951416015625,-0.0225565535925328,-0.0308646554715931,0.0949737011581659,-0.0154887344688177,-0.0029072419274598,0.0049043968319892,standing,2026-03-04_13-52-34
1772632358397899300,3.977899169921875,-0.027943361197412,-0.1047933766439557,0.0148766666144132,0.0010801218450069,-0.0228029191493988,-0.0051426440477371,standing,2026-03-04_13-52-34
1772632358407848400,3.987848388671875,-0.0741905869789421,-0.0432128265216946,-0.0961176104962825,0.0232376102358102,-0.0104087153449654,-0.0082484167069196,standing,2026-03-04_13-52-34
1772632358417796400,3.99779638671875,-0.110758349462971,0.0273537247411906,-0.1141226382642984,0.0412866547703743,0.0053414851427078,-0.0091709354892373,standing,2026-03-04_13-52-34
1772632358427745300,4.007745361328125,-0.0997139544878154,0.021998627448827,-0.054224926662445,0.0412314794957637,9.85320657491e-05,-0.0114851212128996,standing,2026-03-04_13-52-34
1772632358437693400,4.017693359375,-0.0453958696492016,-0.0301128141909837,0.0088297876656055,0.0312283802777528,-0.010279007256031,-0.0127221597358584,standing,2026-03-04_13-52-34
1772632358447642400,4.027642333984375,-0.0197893539015203,-0.0069831368856132,0.064682023268938,0.0150565020740032,-0.0035072462633252,-0.0041212714277207,standing,2026-03-04_13-52-34
1772632358457590300,4.03759033203125,-0.0376805460315197,0.0334194545209407,0.0393891765803098,-0.0008899732492864,0.011108448728919,-0.0038221983704715,standing,2026-03-04_13-52-34
1772632358467539200,4.047539306640625,-0.0626287440009415,0.0386731372654438,-0.0337947175741195,-0.0120941027998924,0.034124955534935,-0.0035812899004667,standing,2026-03-04_13-52-34
1772632358477487400,4.0574873046875,-0.0731394704908132,0.0031977731280028,-0.0543470917373895,-0.010752135887742,0.0485379807651042,-0.0063427216373384,standing,2026-03-04_13-52-34
1772632358487436300,4.067436279296875,-0.0828504979703575,0.0065445993378758,-0.0211497555345296,-0.0055129840038716,0.0417261011898517,-0.0131360525265336,standing,2026-03-04_13-52-34
1772632358497384200,4.07738427734375,-0.0318771204497665,0.0095071024052798,0.0496054501682519,0.0001172050833702,0.0183723103255033,-0.0176288038492202,standing,2026-03-04_13-52-34
1772632358507333400,4.08733349609375,0.0253038064740598,0.0127110130131244,0.0781178434252738,0.0048307823017239,-0.0089282989501953,-0.0146341808140277,standing,2026-03-04_13-52-34
1772632358517281300,4.09728125,0.0166585815951228,0.0439474244065582,0.0619131430774927,0.0115102566778659,-0.0198882706463336,-0.0086069144308567,standing,2026-03-04_13-52-34
1772632358527229200,4.107229248046875,-0.029937530689314,0.0672425214067101,-0.0171750066846609,0.0195666998624801,0.00200572819449,-0.0059839244931936,standing,2026-03-04_13-52-34
1772632358537178400,4.117178466796875,-0.0712119364943355,0.0690334964767098,-0.0334802447974681,0.0267156902700662,0.0291776955127716,-0.0054843151010572,standing,2026-03-04_13-52-34
1772632358547126300,4.127126220703125,-0.0769199388775974,0.0573170474588871,0.0402700510680675,0.0225837733596563,0.0405459702014923,-0.005262385122478,standing,2026-03-04_13-52-34
1772632358557075200,4.1370751953125,-0.0033184038329869,0.0344483591772615,0.1554302156865596,0.0157421119511127,0.0334877930581569,-0.0007358100265264,standing,2026-03-04_13-52-34
1772632358567023400,4.1470234375,0.0399828316245228,0.0152583594083786,0.2710609204262494,0.002697282936424,0.0103390319272875,0.0090984059497714,standing,2026-03-04_13-52-34
1772632358576972300,4.15697216796875,-0.023694398516044,-0.0147201608784496,0.3197001559108495,-0.0139597244560718,-0.0211866702884435,-0.0013523700181394,standing,2026-03-04_13-52-34
1772632358586920200,4.166920166015625,-0.0867926597248762,-0.0877617239527404,0.2787789474576711,-0.0288600623607635,-0.0446446016430854,-0.0222260616719722,standing,2026-03-04_13-52-34
1772632358596869000,4.176869140625,-0.1067081242240965,-0.10154957241714,0.1560842956811189,-0.0405697152018547,-0.0467940382659435,-0.0360193736851215,standing,2026-03-04_13-52-34
1772632358606817300,4.1868173828125,-0.1230399580828845,-0.0292491830989718,0.0189694888859987,-0.0461789220571517,-0.0287163723260164,-0.0394739173352718,standing,2026-03-04_13-52-34
1772632358616766200,4.19676611328125,-0.0868573224589228,0.0525195840492844,-0.0941278979837894,-0.0448942147195339,-0.0115768015384674,-0.0345132462680339,standing,2026-03-04_13-52-34
1772632358626714000,4.206714111328125,-0.0373501450333744,0.082455580368638,-0.1716892765700817,-0.0380249246954917,0.0068688374012708,-0.0192920248955488,standing,2026-03-04_13-52-34
1772632358636663300,4.216663330078125,-0.0036189942147582,0.1129477492660284,-0.2174170085221529,-0.0238867346197366,0.0212586969137191,-0.0041618081741034,standing,2026-03-04_13-52-34
1772632358646611200,4.226611083984375,-0.0085158994108438,0.1138315463632345,-0.2180184815466403,-0.0079532843083143,0.0262579414993524,0.0078460294753313,standing,2026-03-04_13-52-34
1772632358656560000,4.23656005859375,-0.0585604716487228,0.043761254184693,-0.2076239287823438,0.0105314496904611,0.0258398242294788,0.0086598917841911,standing,2026-03-04_13-52-34
1772632358666508300,4.24650830078125,-0.0738026105746626,-0.0225265968456864,-0.1441121183365583,0.0237551033496856,0.0203884541988372,0.0016800193116068,standing,2026-03-04_13-52-34
1772632358676457200,4.256457275390625,-0.0756811908628791,-0.0534236932821571,-0.0768634594500064,0.0317573696374893,0.0088894553482532,-0.0057451399043202,standing,2026-03-04_13-52-34
1772632358686405000,4.266405029296875,-0.053859965807572,-0.0557892533697187,-0.0224199216008186,0.0399882048368454,0.0024176067672669,-0.009155704639852,standing,2026-03-04_13-52-34
1772632358696354300,4.276354248046875,-0.0129101888470351,-0.0384340678125619,0.0336567704081535,0.0389655530452728,-0.0017222772585228,-0.0092603676021099,standing,2026-03-04_13-52-34
1772632358706302200,4.28630224609375,-0.0370374988876283,-0.0279717105090618,0.0980593922138214,0.0321374014019966,-0.0007485239766538,-0.0104943551123142,standing,2026-03-04_13-52-34
1772632358716251400,4.29625146484375,-0.0433985583521425,-0.0531736640438437,0.1242196693867444,0.0158939827233552,0.0002741296775639,-0.018164524808526,standing,2026-03-04_13-52-34
1772632358726199300,4.30619921875,-0.035045667483285,-0.0644876697406172,0.1475894390583038,-0.0030875331722199,0.0069548110477626,-0.0246017090976238,standing,2026-03-04_13-52-34
1772632358736148500,4.3161484375,-0.0442407813299447,-0.0355117506250739,0.1594692619442939,-0.020949887111783,0.0064370925538241,-0.0257836189121007,standing,2026-03-04_13-52-34
1772632358746096400,4.326096435546875,-0.0219239547774195,-0.016618103454262,0.1224503216266632,-0.0333185195922851,0.0047426363453269,-0.0308551210910081,standing,2026-03-04_13-52-34
1772632358756045300,4.33604541015625,0.0499305904693901,0.0066230714015662,0.0364618909567594,-0.0349984429776668,0.011498543433845,-0.0186927318572998,standing,2026-03-04_13-52-34
1772632358765993500,4.345993408203125,0.059885801968351,0.0825618172220885,-0.0592892243146896,-0.0243968535214662,0.0217688027769327,-0.0084223775193095,standing,2026-03-04_13-52-34
1772632358775942400,4.3559423828125,-0.0032448271401226,0.0909863850876688,-0.1028571478843689,-0.0077065569348633,0.0300267338752746,-0.0041408138349652,standing,2026-03-04_13-52-34
1772632358785890300,4.365890380859375,-0.0132932698804885,0.0418264867298305,-0.0739800129681825,0.0053880959749221,0.0181061532348394,-0.0097343018278479,standing,2026-03-04_13-52-34
1772632358795839200,4.375839111328125,-0.0004033931691199,0.0141327163793146,-0.0413362189948558,0.0155597738921642,0.0022624745033681,-0.0141610084101557,standing,2026-03-04_13-52-34
1772632358805787400,4.385787353515625,0.0195669433224946,0.0398024335563182,0.0036485856354236,0.019986867904663,-0.0064280647784471,-0.0131465652957558,standing,2026-03-04_13-52-34
1772632358815736300,4.395736328125,0.0220721310764551,0.0656364013843238,0.0046434418916702,0.02088781632483,-0.0089093316346406,-0.0096378503367304,standing,2026-03-04_13-52-34
1772632358825684200,4.405684326171875,0.0572797111231833,0.077485390740633,-0.004677344161272,0.0170491058379411,-0.0027056753169745,-0.000582018867135,standing,2026-03-04_13-52-34
1772632358835633200,4.415633056640625,0.0774915282204747,0.1073072591610252,0.027215923705697,0.0097472509369254,0.000993721652776,0.0146475341171026,standing,2026-03-04_13-52-34
1772632358845581300,4.425581298828125,0.0622423750318586,0.1249510524012148,0.0306657718986272,0.0039283065125346,0.0040033776313066,0.0256401486694812,standing,2026-03-04_13-52-34
1772632358855530200,4.4355302734375,0.0167161570012569,0.0865812819965183,0.0201274267494678,0.0001327693462371,0.011468750424683,0.0256140492856502,standing,2026-03-04_13-52-34
1772632358865478400,4.445478515625,-0.0692129446968436,0.0132307991035282,0.0014934534281492,-0.0032568359747529,0.0199325587600469,0.0183938406407833,standing,2026-03-04_13-52-34
1772632358875427300,4.45542724609375,-0.110324415025115,-0.0331074659623205,0.0388490783542394,-0.008352261967957,0.0206151269376277,0.0041520539671182,standing,2026-03-04_13-52-34
1772632358885375200,4.465375244140625,-0.10568974096179,-0.0574088173955678,0.0721399380594492,-0.0109447184950113,0.0135101648047566,-0.0046614417806267,standing,2026-03-04_13-52-34
1772632358895324200,4.47532421875,-0.0543685729168355,-0.0503571453183889,0.0452390716522932,-0.0135508868843317,0.0107018612325191,-0.006007669493556,standing,2026-03-04_13-52-34
1772632358905272300,4.485272216796875,-0.0293761704795062,-0.0189915545873343,0.0199929867148399,-0.0101782148703932,0.0046997368335723,-0.0003485458437353,standing,2026-03-04_13-52-34
1772632358915221200,4.49522119140625,-0.0004191752601414,0.0189477154456078,0.0136801503062248,-0.0037514744326472,-0.0010287228506058,0.0117509942501783,standing,2026-03-04_13-52-34
1772632358925169200,4.505169189453125,0.0060123190920799,0.0438603306449949,-0.0073947864264249,0.0089514981955289,-0.0098008690401911,0.0213448517024517,standing,2026-03-04_13-52-34
1772632358935118000,4.5151181640625,-0.0391932156167924,0.0343302857555449,-0.0282318227499723,0.0187466032803058,-0.0098647847771644,0.0211429838091135,standing,2026-03-04_13-52-34
1772632358945066200,4.525066162109375,-0.1300875385068357,0.0076202657453715,-0.0282429286658763,0.0193449147045612,-0.0130433924496173,0.0093544442206621,standing,2026-03-04_13-52-34
1772632358955015200,4.53501513671875,-0.1454194746080785,-0.0161949096061289,-0.0119359369874,0.0164106432348489,-0.0109243150800466,-0.0048644393682479,standing,2026-03-04_13-52-34
1772632358964963000,4.544963134765625,-0.1160731878101825,-0.0307402984395623,0.0033949031352996,0.008521007373929,0.0070211701095104,-0.0127904498949646,standing,2026-03-04_13-52-34
1772632358974912300,4.554912353515625,-0.0564127920955419,0.0069072951704263,0.0403109676003456,-0.0027638720348477,0.0253977812826633,-0.0059109721332788,standing,2026-03-04_13-52-34
1772632358984860200,4.564860107421875,0.0126172703150659,0.0666227820731699,0.135690326949954,-0.0151752457022666,0.0046152300201356,-0.0003626316320151,standing,2026-03-04_13-52-34
1772632358994808300,4.574808349609375,0.0796658765848726,0.0474972258426249,0.1195627834916114,-0.0142790917307138,-0.0086278710514307,0.0063397455960512,standing,2026-03-04_13-52-34
1772632359004757200,4.58475732421875,0.0538937219467014,0.0657223261021077,-0.021924831560254,-0.0001496807672083,0.0030121547169983,0.0111954808235168,standing,2026-03-04_13-52-34
1772632359014705200,4.594705078125,-0.0023393296677619,0.1259780573613941,-0.0682592972338199,0.0153131652623415,0.0198417343199253,0.0156919620931148,standing,2026-03-04_13-52-34
1772632359024654300,4.604654296875,-0.0454478920973837,0.1202003507427871,-0.0003074585139751,0.015728086233139,0.0125907454639673,0.0129212094470858,standing,2026-03-04_13-52-34
1772632359034602200,4.614602294921875,-0.0685481241125613,-0.0015025135174393,0.042231122007966,0.0059614749625325,-0.0013431790284812,0.0001889024861156,standing,2026-03-04_13-52-34
1772632359044551400,4.624551513671875,-0.0514136686339974,-0.0556882772132754,0.0706289489746093,-0.0031758313998579,0.0049801529385149,-0.0132754230871796,standing,2026-03-04_13-52-34
1772632359054499300,4.634499267578125,-0.022665786120668,-0.0287730900198221,0.0699561642795801,-0.0120196565985679,0.0219093356281518,-0.0092077106237411,standing,2026-03-04_13-52-34
1772632359064448300,4.6444482421875,0.0462612543068826,0.0296514802895486,0.0870037451922893,-0.0192070268094539,0.0236859023571014,-0.0006666756235063,standing,2026-03-04_13-52-34
1772632359074396400,4.654396484375,0.0768937815230339,0.0386897961392998,0.1166366669118404,-0.0231154821813106,0.0089508965611457,0.0088139120489358,standing,2026-03-04_13-52-34
1772632359084345300,4.664345458984375,0.0810698981638997,0.027972148900479,0.0858235954970121,-0.0218283683061599,-0.0110721495002508,0.0175490044057369,standing,2026-03-04_13-52-34
1772632359094293200,4.674293212890625,0.034391002966836,0.0412564317569136,0.0356453138768672,-0.0176080577075481,-0.0249195210635662,0.0195788647979497,standing,2026-03-04_13-52-34
1772632359104242400,4.684242431640625,-0.0808474145196378,0.0372236691094934,0.006329787543416,-0.0170199163258075,-0.0399134978652,0.009629338979721,standing,2026-03-04_13-52-34
1772632359114190300,4.6941904296875,-0.1528548853058368,-0.0226001004733145,-0.0726256757497787,-0.0152417225763201,-0.0388476997613906,-0.0051634544506669,standing,2026-03-04_13-52-34
1772632359124139300,4.70413916015625,-0.1229783640887588,-0.0177935769744217,-0.1709147850662469,-0.0105940420180559,-0.0140637392178177,-0.003708912525326,standing,2026-03-04_13-52-34
1772632359134087400,4.71408740234375,-0.0917869608808308,0.0521926901824772,-0.2081850697964429,-0.003346249461174,0.0107731679454445,0.0068033831194043,standing,2026-03-04_13-52-34
1772632359144036400,4.724036376953125,-0.0152311060752719,0.0851391203641891,-0.188173378381133,0.0087340148165822,0.0272519327700138,0.0284355841577053,standing,2026-03-04_13-52-34
1772632359153984300,4.733984375,0.012591989743337,0.0661670011296868,-0.1254454117894172,0.0234921872615814,0.036280583590269,0.0431495457887649,standing,2026-03-04_13-52-34
1772632359163933200,4.74393310546875,-0.0617746844548732,0.0323339973717927,-0.0255611422359943,0.032968420535326,0.0322196185588836,0.0429679304361343,standing,2026-03-04_13-52-34
1772632359173881300,4.75388134765625,-0.156052439238131,-0.0535727463640272,0.1019739353090524,0.0357407703995704,0.0075632771477103,0.021627489477396,standing,2026-03-04_13-52-34
1772632359183830300,4.763830322265625,-0.2002609257336705,-0.143244541721791,0.1802127747654914,0.027309663593769,-0.0091768382117152,-0.0063350554555654,standing,2026-03-04_13-52-34
1772632359193778200,4.773778076171875,-0.1912258247543126,-0.15695874042809,0.1997469117969274,0.0163616761565208,-0.007847654633224,-0.0273492597043514,standing,2026-03-04_13-52-34
1772632359203727400,4.783727294921875,-0.1647487367171794,-0.1281938337147236,0.2477531100749969,-0.0067891627550125,-0.0097902044653892,-0.0434990227222442,standing,2026-03-04_13-52-34
1772632359213675300,4.79367529296875,-0.0721652916964143,-0.0945643897049128,0.2637082195758819,-0.0358612909913063,-0.0152744520455598,-0.0448005087673664,standing,2026-03-04_13-52-34
1772632359223624200,4.803624267578125,0.0205176681760698,-0.0462508790433406,0.1936573627501726,-0.0535364747047424,-0.0132432477548718,-0.034122996032238,standing,2026-03-04_13-52-34
1772632359233572400,4.813572265625,0.051048926974833,0.0533127802535891,0.0637824440807104,-0.0596441701054573,0.005089153535664,-0.0174785070121288,standing,2026-03-04_13-52-34
1772632359243521300,4.823521240234375,0.0367279945470392,0.0871829011514782,-0.050741176199913,-0.0491978749632835,0.0193069614470005,-0.0070664482191205,standing,2026-03-04_13-52-34
1772632359253469200,4.83346923828125,0.0189243345700204,0.0682156042225658,-0.1195370645284652,-0.030536038801074,0.0211557261645793,-0.0063908044248819,standing,2026-03-04_13-52-34
1772632359263418000,4.843418212890625,0.0026870471268892,0.0546690171681344,-0.1237619887471199,-0.009236560203135,0.0123398527503013,-0.0069491043686866,standing,2026-03-04_13-52-34
1772632359273366300,4.8533662109375,-0.0037749884940683,0.0542521069303154,-0.0833919844359159,0.0073972772806882,-0.0072349132969975,-0.0093459486961364,standing,2026-03-04_13-52-34
1772632359283315200,4.863315185546875,0.0241487181548029,0.0410972956724464,-0.049305005916953,0.020629733800888,-0.022722378373146,-0.0094202579930424,standing,2026-03-04_13-52-34
1772632359293263000,4.87326318359375,0.022981866332516,0.0410248149581253,-0.0116945294469594,0.0225733090192079,-0.0342469438910484,-0.0129428217187523,standing,2026-03-04_13-52-34
1772632359303212300,4.88321240234375,0.0362223100472241,0.0691224899344146,-0.009606617256999,0.0180362295359373,-0.0338079407811164,-0.0102160545065999,standing,2026-03-04_13-52-34
1772632359313160200,4.89316015625,0.0892560541637241,0.0947035059146583,-0.0277677123695611,0.0076658804900944,-0.0170926097780466,0.002699477598071,standing,2026-03-04_13-52-34
1772632359323108900,4.90310888671875,0.0806137518942356,0.1168421263560652,-0.0561035800158977,-0.0013917796313762,0.008669963106513,0.0171890091150999,standing,2026-03-04_13-52-34
1772632359333057000,4.91305712890625,0.0103367581624537,0.1088740700863301,-0.0480114589750766,-0.0094406511634588,0.0228811223059892,0.0184492170810699,standing,2026-03-04_13-52-34
1772632359343006000,4.923005859375,-0.0098148531801998,0.058526569379121,-0.0400081852614879,-0.0144644072279334,0.0265773609280586,0.0146412579342722,standing,2026-03-04_13-52-34
1772632359352953900,4.932953857421875,0.0233332370534539,0.020861878503859,-0.000296352598071,-0.0112238721922039,0.0300498567521572,0.0179784633219242,standing,2026-03-04_13-52-34
1772632359362902800,4.94290283203125,0.0306341346513479,0.0322542101338505,0.0278904619663953,-0.0026681465096771,0.0319807827472686,0.0224849581718444,standing,2026-03-04_13-52-34
1772632359372851000,4.952850830078125,0.0179718561507761,0.023577274942398,0.0600356587678194,0.0054654134437441,0.0034135887399315,0.0209152922034263,standing,2026-03-04_13-52-34
1772632359382800000,4.9627998046875,-6.1374798417e-05,-0.0243935597613453,0.0829804810255765,0.0127798542380332,-0.0218311492353677,0.0154106812551617,standing,2026-03-04_13-52-34
1772632359392747800,4.972747802734375,-0.0034594197388738,-0.059116790357232,0.0283639246970415,0.0208268631249666,-0.0213381983339786,0.0101368241012096,standing,2026-03-04_13-52-34
1772632359402697000,4.982697021484375,-0.0281343537248671,-0.0117104576684534,0.0148532857388257,0.0254881605505943,-0.0064009008929133,0.0148392627015709,standing,2026-03-04_13-52-34
1772632359412644900,4.992644775390625,-0.0647061347968876,-0.0016086042404174,0.065717211535573,0.0125100435689091,-0.0131746511906385,0.0108565045520663,standing,2026-03-04_13-52-34
1772632359422593800,5.00259375,-0.1093007710658013,-0.0596285392716526,0.1052718078106641,-0.0044084419496357,-0.0247548855841159,-0.003768878057599,standing,2026-03-04_13-52-34
1772632359432542000,5.0125419921875,-0.0944082492951303,-0.0966645768545567,0.0457972900569438,-0.0170731041580438,-0.0145901329815387,-0.0103793758898973,standing,2026-03-04_13-52-34
1772632359442491000,5.022490966796875,-0.0940215149998664,-0.0324715061463415,-0.0349292745620012,-0.0213659200817346,0.0195563677698373,-0.0070047713816165,standing,2026-03-04_13-52-34
1772632359452438800,5.032438720703125,-0.0844056184578686,0.0401907022215425,-0.0486275450468063,-0.0228415764868259,0.0339230559766292,-0.0010435513686388,standing,2026-03-04_13-52-34
1772632359462387700,5.0423876953125,-0.0549198501240462,0.0012064531803131,-0.012922609937191,-0.0210473407059907,0.0188186895102262,0.0010053708683699,standing,2026-03-04_13-52-34
1772632359472336000,5.0523359375,0.0071594433005899,-0.0219632638745009,-0.0355839390784502,-0.0093752369284629,0.0047675860114395,0.0078377109020948,standing,2026-03-04_13-52-34
1772632359482284800,5.062284912109375,0.0060545507986098,0.0364046078115701,-0.0721451987564563,0.0111614437773823,0.0074810520745813,0.0160415917634964,standing,2026-03-04_13-52-34
1772632359492232700,5.072232666015625,-0.0352688817799091,0.0544905918613076,-0.0709434217512607,0.0276583954691886,0.0019776294939219,0.0143174603581428,standing,2026-03-04_13-52-34
1772632359502182000,5.082181884765625,-0.0554503037389367,0.010462649564445,-0.022227029377222,0.0362556874752044,-0.0008289108518511,0.0038575085345655,standing,2026-03-04_13-52-34
1772632359512129800,5.0921298828125,-0.0596815115679055,-0.0301437938511371,0.0543085132926702,0.0304947365075349,0.001341032795608,-0.0044752564281225,standing,2026-03-04_13-52-34
1772632359522077700,5.10207763671875,-0.0931160175275057,0.0068086571015417,0.1396095462203025,0.0131369400769472,-0.0033503980375826,-0.009679390117526,standing,2026-03-04_13-52-34
1772632359532027000,5.11202685546875,-0.0965240724053233,-0.0002899228572845,0.1819587416499853,-0.0046780095435678,-0.0150470016524195,-0.0160411484539508,standing,2026-03-04_13-52-34
1772632359541974800,5.121974853515625,-0.0216202956557273,0.0058889119081199,0.103106738731265,-0.0150965247303247,-0.0045801382511854,-0.0160066224634647,standing,2026-03-04_13-52-34
1772632359551924000,5.131924072265625,0.0083264412533491,0.0585519960813224,-0.0203045368820428,-0.0104570314288139,0.0280459802597761,-0.0023922773543745,standing,2026-03-04_13-52-34
1772632359561872100,5.1418720703125,-0.0182842100355774,0.105855745178461,-0.058303720408678,-0.004352259915322,0.0491186566650867,0.0076379803940653,standing,2026-03-04_13-52-34
1772632359571821000,5.151821044921875,-0.017630787628144,0.0409977808207273,0.0290694426178932,0.000545825343579,0.0376169979572296,0.005807589739561,standing,2026-03-04_13-52-34
1772632359581769000,5.16176904296875,-0.005962780861929,-0.0276873406097292,0.1405009421020746,0.0004598516970872,0.0056601176038384,-0.0043777716346085,standing,2026-03-04_13-52-34
1772632359591718000,5.1717177734375,-0.0267540783476084,-0.0670668725788593,0.2147229471325874,-0.0066606421023607,-0.0303290411829948,-0.0164916925132274,standing,2026-03-04_13-52-34
1772632359601666000,5.181666015625,-0.0526668105002492,-0.0454585596218705,0.1974678609490394,-0.0193203650414943,-0.0494657531380653,-0.025536622852087,standing,2026-03-04_13-52-34
1772632359611615000,5.191614990234375,-0.0571343113031238,-0.0127845166407525,0.1162421146363019,-0.033842846751213,-0.0515214465558528,-0.0322033129632473,standing,2026-03-04_13-52-34
1772632359621563000,5.20156298828125,-0.084383918082714,0.0319314079202711,-0.0293313084244728,-0.042826559394598,-0.0277730412781238,-0.0274105072021484,standing,2026-03-04_13-52-34
1772632359631511800,5.21151171875,-0.0438701944518834,0.102631230174005,-0.1880968060135841,-0.0397247746586799,0.0088374344632029,-0.011666964739561,standing,2026-03-04_13-52-34
1772632359641460000,5.2214599609375,0.0148339234512299,0.1392366212546825,-0.2543149528086185,-0.0276621095836162,0.0359285548329353,0.0096052568405866,standing,2026-03-04_13-52-34
1772632359651409000,5.231408935546875,0.0342282866857945,0.1290199092753231,-0.2595224583238363,-0.0062638777308166,0.0465178154408931,0.0267584100365638,standing,2026-03-04_13-52-34
1772632359661356800,5.241356689453125,-0.0046234950821846,0.0769860629163682,-0.2013315506398677,0.015531176701188,0.043091807514429,0.0337414778769016,standing,2026-03-04_13-52-34
1772632359671306000,5.251305908203125,-0.041788200546056,-0.0016204408086836,-0.1181821427881717,0.0339048579335212,0.0253474283963441,0.0270702615380287,standing,2026-03-04_13-52-34
1772632359681254000,5.26125390625,-0.0824234316647052,-0.0549368743240833,-0.0056985039025545,0.0446700304746627,0.0118285380303859,0.0122420014813542,standing,2026-03-04_13-52-34
1772632359691202800,5.271202880859375,-0.0896854585569351,-0.0948499286480247,0.0625064327955245,0.0446966663002967,-0.0043003647588193,-0.0058917282149195,standing,2026-03-04_13-52-34
1772632359701151000,5.28115087890625,-0.0751003953002393,-0.0987730934411287,0.139300918662548,0.0348526053130626,-0.012077072635293,-0.0165761653333902,standing,2026-03-04_13-52-34
1772632359711100000,5.291099853515625,-0.0383577877059578,-0.0669989219091832,0.1830868688970804,0.0133281368762254,-0.0199184846132993,-0.0197679623961448,standing,2026-03-04_13-52-34
1772632359721047800,5.3010478515625,-0.0041251901712268,-0.0527170063175261,0.1715530829697847,-0.0041140066459774,-0.026709996163845,-0.0188234280794858,standing,2026-03-04_13-52-34
1772632359734107100,5.314107177734375,0.0065806935645639,-0.0171145086690783,0.1128179854065179,-0.0202951058745384,-0.0009867895860224,-0.0163448229432106,standing,2026-03-04_13-52-34
1772632359744054800,5.3240546875,-0.0466410474047064,0.0364203899025917,0.0065215107232332,-0.0225521624088287,0.0141092399135231,-0.016467660665512,standing,2026-03-04_13-52-34
1772632359754004000,5.33400390625,-0.0266300135765224,0.0489228747315704,-0.0604927548855543,-0.0210349559783935,0.0220736898481845,-0.0124159259721636,standing,2026-03-04_13-52-34
1772632359763952000,5.3439521484375,0.0025472733300179,0.0566420708067715,-0.1103939731299877,-0.0068961004726588,0.0324878990650177,-0.002092151902616,standing,2026-03-04_13-52-34
1772632359773901000,5.353901123046875,0.006397372886911,0.1011823465399444,-0.1262748483508825,0.0112658590078353,0.0371513590216636,0.0081045590341091,standing,2026-03-04_13-52-34
1772632359783849000,5.363848876953125,0.0151357559420168,0.1155816049009561,-0.0569745176315307,0.0235219616442918,0.0178516376763582,0.009771192446351,standing,2026-03-04_13-52-34
1772632359793798000,5.3737978515625,0.0374815893933177,0.0717941933616995,0.0352086760252714,0.0304981116205453,-0.0071088387630879,0.0091235116124153,standing,2026-03-04_13-52-34
1772632359803746000,5.38374609375,0.0224891143795102,0.0438430872492492,0.0962654945343732,0.0277868900448083,-0.0285893008112907,0.0094463098794221,standing,2026-03-04_13-52-34
1772632359813695000,5.393695068359375,0.0049522886451333,0.0562555557072162,0.1222282033085822,0.0205936916172504,-0.0376168824732303,0.0063932626508176,standing,2026-03-04_13-52-34
1772632359823643000,5.403642822265625,-0.0026005378872156,0.0684428371071815,0.0808709415256977,0.0110237579792737,-0.0278817322105169,0.0082486495375633,standing,2026-03-04_13-52-34
1772632359833592000,5.413592041015625,0.0116381961498409,0.0990286756373941,0.0371767612278461,0.003132811980322,-0.0100047308951616,0.0184869058430194,standing,2026-03-04_13-52-34
1772632359843540000,5.4235400390625,0.0067011050738394,0.1105238831199705,0.0356073199540376,-0.0067103337496519,7.92036298662e-05,0.0261365119367837,standing,2026-03-04_13-52-34
1772632359853489000,5.433489013671875,0.0004348842859268,0.0676661536462605,0.044929859572649,-0.0134928710758686,0.0039887242019176,0.0309110265225172,standing,2026-03-04_13-52-34
1772632359863437000,5.44343701171875,0.0018229045782238,0.0543244415141642,0.0396516269087791,-0.0159161537885665,0.0075522540137171,0.0289310961961746,standing,2026-03-04_13-52-34
1772632359873386000,5.453385986328125,-0.0725643740165978,0.0102004914969205,0.0304091667890548,-0.0114947743713855,0.0176400411874055,0.0194515734910964,standing,2026-03-04_13-52-34
1772632359883334000,5.463333984375,-0.0920953692428767,-0.0367366162449121,0.0153717566549777,-0.0081413220614194,0.0118119800463318,0.012904992327094,standing,2026-03-04_13-52-34
1772632359893282800,5.47328271484375,-0.0403648166794329,-0.0478464776717126,0.0229155961632728,-0.0034070196561515,0.0053727235645055,0.0121688935905694,standing,2026-03-04_13-52-34
1772632359903231000,5.48323095703125,-0.0146768331933766,-0.0327035613365471,0.0402870022028684,0.0018581426702439,-0.0062226052395999,0.0138513380661606,standing,2026-03-04_13-52-34
1772632359913180000,5.493179931640625,-0.0211499016650021,-0.0304617737591266,0.0659650488168001,0.003576414193958,-0.0276906136423349,0.0150742614641785,standing,2026-03-04_13-52-34
1772632359923127800,5.5031279296875,-0.0130007166747003,-0.0553733660452067,0.0558159952461719,0.0037531720008701,-0.0330107100307941,0.0148269739001989,standing,2026-03-04_13-52-34
1772632359933076700,5.51307666015625,-0.0464020510170608,-0.039801995164901,0.0173591310799121,0.0039225490763783,-0.0282710809260606,0.0134370699524879,standing,2026-03-04_13-52-34
1772632359943025000,5.52302490234375,-0.1092827970176935,-0.0113071375645697,-0.0176841252505779,0.0018830811604857,-0.0196069572120904,0.0067895902320742,standing,2026-03-04_13-52-34
1772632359952973800,5.532973876953125,-0.0917356690850108,-0.0207113641172647,-0.0440852254420518,0.0001043556258082,-0.0086472500115633,0.0026430487632751,standing,2026-03-04_13-52-34
1772632359962922000,5.542921875,-0.0531233220960944,0.001358575002104,-0.0751584090977907,-0.0023237932473421,0.0024001370184123,0.0088032279163599,standing,2026-03-04_13-52-34
1772632359972871000,5.552870849609375,-0.0096606124665588,0.0236612999640405,-0.0532996285110712,-0.0033190166577696,0.0069352337159216,0.0170885883271694,standing,2026-03-04_13-52-34
1772632359982818800,5.56281884765625,0.0109715489346534,0.0477364414259791,-0.0348842663764953,-0.003170137759298,0.0085042500868439,0.0258378628641366,standing,2026-03-04_13-52-34
1772632359992767700,5.572767822265625,-0.0244709358464926,0.0404617742478847,-0.008002689191699,0.002572436351329,0.0056820977479219,0.0274450816214084,standing,2026-03-04_13-52-34
1772632360002716000,5.5827158203125,-0.0488692448481917,0.0309196005292236,0.0270329683542251,0.0095296334475278,-0.005366813391447,0.0214903559535741,standing,2026-03-04_13-52-34
1772632360012664800,5.592664794921875,-0.047669878995791,0.0060921793952584,0.0517260955840349,0.0107839815318584,-0.0120952893048524,0.0160242170095443,standing,2026-03-04_13-52-34
1772632360022612700,5.60261279296875,-0.0494148229669779,-0.0014450842417776,0.0754997698813676,0.0163353718817234,-0.0164740998297929,0.009500715881586,standing,2026-03-04_13-52-34
1772632360032562000,5.61256201171875,-0.050914486940205,0.0214667125292122,0.0996066216558217,0.0119052026420831,-0.0206379517912864,0.004342439584434,standing,2026-03-04_13-52-34
1772632360042509800,5.622509765625,-0.0328112594947218,0.0281257320269942,0.1370961020946502,0.0002488628961145,-0.0377485081553459,0.000606722664088,standing,2026-03-04_13-52-34
1772632360052459000,5.632458984375,0.0207663822401314,0.0359288069933652,0.1563607745349407,-0.0121558755636215,-0.0361487455666065,0.0109680173918604,standing,2026-03-04_13-52-34
1772632360062407000,5.642406982421875,0.0162714819736778,0.0793840639688074,0.1061520977765321,-0.0194324105978012,-0.0175874028354883,0.0198778677731752,standing,2026-03-04_13-52-34
1772632360072977000,5.652976806640625,-0.0541768497370183,0.0937586262799799,0.0455143814623355,-0.0228092987090349,-0.0061696320772171,0.0169491898268461,standing,2026-03-04_13-52-34
1772632360082925800,5.66292578125,-0.083613810493052,0.0554338640607893,0.0092892218708992,-0.0189169105142354,0.0067597730085253,0.0107381027191877,standing,2026-03-04_13-52-34
1772632360092873700,5.672873779296875,-0.0441692504636943,0.0327010771185159,-0.0308884747385978,-0.0132893845438957,0.0213658791035413,0.0127589087933301,standing,2026-03-04_13-52-34
1772632360102823000,5.682822998046875,-0.0150320763718336,0.0494261480785906,0.0320353066861629,-0.0098139252513647,0.0119296079501509,0.016841173171997,standing,2026-03-04_13-52-34
1772632360112770800,5.692770751953125,0.019175825113058,0.031689123596996,0.1225461832165718,-0.0151093546301126,-0.0281304605305194,0.0139029063284397,standing,2026-03-04_13-52-34
1772632360122718700,5.70271875,0.0096680651206523,-0.0358703548043966,0.151373049250245,-0.0216515827924013,-0.0568705201148986,0.0036306269466876,standing,2026-03-04_13-52-34
1772632360132668000,5.71266796875,-0.01801825257577,-0.0604490618743002,0.0564887799412012,-0.0259967967867851,-0.0520296916365623,0.0013187364675104,standing,2026-03-04_13-52-34
1772632360142615800,5.72261572265625,-0.0467678886547684,-0.0011921323940157,-0.0497889900416135,-0.0295155216008424,-0.0322743579745292,0.0074906628578901,standing,2026-03-04_13-52-34
1772632360152565000,5.73256494140625,-0.048374812394753,0.040933921804279,-0.1097322943508625,-0.0317376665771007,-0.0215849597007036,0.0091045377776026,standing,2026-03-04_13-52-34
1772632360162513000,5.742512939453125,-0.0486823439739644,0.0399795436888933,-0.1843190410405397,-0.0249530486762523,-0.0037549666594713,0.0130024487152695,standing,2026-03-04_13-52-34
1772632360172462000,5.752462158203125,-0.0387814199455082,0.0478933855533599,-0.2524450672835111,-0.0098007274791598,0.0264799017459154,0.0266964212059974,standing,2026-03-04_13-52-34
1772632360182410000,5.762409912109375,-0.0046560821775346,0.0668295566916465,-0.2236222929030656,0.0070406878367066,0.0370179153978824,0.0427587926387786,standing,2026-03-04_13-52-34
1772632360192359000,5.77235888671875,0.0229034673340618,0.0483643640659749,-0.121700964564085,0.0164477713406085,0.0145379081368446,0.0417603738605976,standing,2026-03-04_13-52-34
1772632360202307000,5.78230712890625,8.31482388079e-05,-0.0293814311765134,-0.0176332718461751,0.0157324317842721,0.0048951050266623,0.0286200828850269,standing,2026-03-04_13-52-34
1772632360212256000,5.792256103515625,-0.0512809090998023,-0.0661634939983487,0.0696902068197727,0.0023777447640895,-0.0044989292509853,0.0231406278908252,standing,2026-03-04_13-52-34
1772632360222204000,5.802203857421875,-0.0453924355830997,-0.0627563159033656,0.1129267064779996,-0.0007681488059461,0.0109088849276304,0.0265857651829719,standing,2026-03-04_13-52-34
1772632360232152800,5.81215283203125,-0.0235034790538251,-0.0396511885173618,0.1300350776672363,-0.010716120712459,0.0045548491179943,0.0145477447658777,standing,2026-03-04_13-52-34
1772632360242101000,5.82210107421875,-0.1203559066306799,-0.0202476921282708,0.1854869157761335,-0.0223522074520587,-0.0174169819802045,-0.0004238777328282,standing,2026-03-04_13-52-34
1772632360252050000,5.8320498046875,-0.0933125630129128,-0.0796536746904253,0.1427495978116989,-0.0273986309766769,-0.0193999726325273,-0.010146546177566,standing,2026-03-04_13-52-34
1772632360261997800,5.841997802734375,-0.0872243291404098,-0.0411556017309427,0.060163084539771,-0.0254045184701681,-6.42566010355e-05,-0.0078587681055068,standing,2026-03-04_13-52-34
1772632360271947000,5.851947021484375,-0.0977087521452456,0.042007250124216,0.0176835407286882,-0.0236966330558061,0.0021288567222654,-0.0081554446369409,standing,2026-03-04_13-52-34
1772632360281895000,5.86189501953125,-0.044448505796492,0.0434729387626051,-0.0236702139228582,-0.0162704400718212,-3.07792797684e-05,-0.0032697953283786,standing,2026-03-04_13-52-34
1772632360291843800,5.87184375,0.0411673652339726,0.0413736283957958,-0.0895376475840806,-0.0006608525291085,0.0122272185981273,0.0120002375915646,standing,2026-03-04_13-52-34
1772632360301792000,5.8817919921875,0.03525324581936,0.1048367773942649,-0.1064005195796489,0.0137865524739027,0.0214013047516345,0.0255839452147483,standing,2026-03-04_13-52-34
1772632360311741000,5.891740966796875,0.0164959383793175,0.0909361162051558,-0.0568774869978427,0.0188697278499603,0.0113292299211025,0.022420110180974,standing,2026-03-04_13-52-34
1772632360321689300,5.901689453125,-0.0045939036615192,0.0138242349520325,-0.0023813421785831,0.0195788163691759,-0.0038031234871596,0.0106265163049101,standing,2026-03-04_13-52-34
1772632360331638300,5.91163818359375,-0.0254587778400629,-0.0227381937697529,0.0186994397729635,0.0174165964126586,-0.0107619632035493,0.0054322862997651,standing,2026-03-04_13-52-34
1772632360341586400,5.92158642578125,-0.0234534293670207,0.0082948040060698,0.032538580033183,0.0132620260119438,-0.012739298865199,0.0029654339887201,standing,2026-03-04_13-52-34
1772632360351535400,5.931535400390625,-0.0112373602639883,0.0268780700534582,0.0490542460262775,0.0052427146583795,-0.0110593773424625,0.0045896959491074,standing,2026-03-04_13-52-34
1772632360361483300,5.941483154296875,0.0009383768286556,0.0324289821788668,0.026814941689372,-0.0049864477477967,-0.0009074683766812,0.0083282077684998,standing,2026-03-04_13-52-34
1772632360371432200,5.95143212890625,-0.0177602592267096,0.048111412218213,0.0015045593440532,-0.0127698015421628,0.0162827037274837,0.0172916073352098,standing,2026-03-04_13-52-34
1772632360381380400,5.96138037109375,-0.0671218176364898,0.0436544328093528,-0.0054015667825937,-0.0158497355878353,0.0304893851280212,0.0180657226592302,standing,2026-03-04_13-52-34
1772632360391329300,5.971329345703125,-0.0786292270135134,0.0061976855963468,-0.0186444947153329,-0.0118137160316109,0.0334710590541362,0.0131708327680826,standing,2026-03-04_13-52-34
1772632360401277200,5.981277099609375,-0.0420263932161033,-0.0221491418354213,-0.0044803602844476,-0.0048227389343082,0.0326031856238842,0.0128863286226987,standing,2026-03-04_13-52-34
1772632360411226400,5.991226318359375,-0.0557748595181852,-0.0170052030757069,0.0237473708122968,0.003620812902227,0.0237199496477842,0.0100175710394978,standing,2026-03-04_13-52-34
1772632360421174300,6.00117431640625,-0.0603305500611662,-0.0108621702760457,0.0691349110245704,0.0094526438042521,0.004688574001193,0.0052240537479519,standing,2026-03-04_13-52-34
1772632360431123200,6.011123291015625,-0.027555896249786,-0.0444023285672068,0.1129424885690212,0.0144948065280914,-0.0166867561638355,0.0032839404884725,standing,2026-03-04_13-52-34
1772632360441071400,6.0210712890625,0.0105561000015586,-0.0048242052860558,0.0961643722474575,0.0164845585823059,-0.023733090609312,0.0048978738486766,standing,2026-03-04_13-52-34
1772632360451020300,6.031020263671875,-0.0137644675888121,0.0293291164673864,0.0670043287366628,0.0143162123858928,-0.0268484558910131,0.002471201820299,standing,2026-03-04_13-52-34
1772632360460968200,6.04096826171875,-0.0348101051617413,0.0482800467833876,0.0367681804269552,0.0059659462422132,-0.0234017446637153,0.0021142098121345,standing,2026-03-04_13-52-34
1772632360470917000,6.050917236328125,-0.0248538707494735,0.0272676538929343,0.0035761049211025,0.001521663274616,-0.0032520024105906,0.0023147454485297,standing,2026-03-04_13-52-34
1772632360480865300,6.060865234375,-0.0429307216446846,0.0524114474996924,-0.0332172099471092,-0.0074124648235738,0.015040541999042,0.0069081867113709,standing,2026-03-04_13-52-34
1772632360490814200,6.070814208984375,-0.0800577985119074,0.0649073564574122,-0.0155488667875528,-0.0208318680524826,0.0142908627167344,0.0016084960661828,standing,2026-03-04_13-52-34
1772632360500762000,6.08076220703125,-0.0565117224253714,0.0381013287268579,0.0013157587736845,-0.0255470480769872,0.0065947230905294,0.0019537496846169,standing,2026-03-04_13-52-34
1772632360510711600,6.090711669921875,-0.0181296770609915,0.0339332492619752,-0.0631225188672542,-0.0177109632641077,0.0191126447170972,0.0122513948008418,standing,2026-03-04_13-52-34
1772632360520659200,6.1006591796875,-0.0236870189271867,0.084350308074057,-0.1392833830058574,-0.0019992459565401,0.0366087295114994,0.0183018594980239,standing,2026-03-04_13-52-34
1772632360530608400,6.1106083984375,-0.0808063518568873,0.1091287754997611,-0.0898006824344396,0.0097335763275623,0.0332507491111755,0.0140890059992671,standing,2026-03-04_13-52-34
1772632360540556500,6.120556640625,-0.0618012071356177,0.021709581374377,-0.0173585465580225,0.0175770912319421,0.0166277736425399,0.0080039761960506,standing,2026-03-04_13-52-34
1772632360550505500,6.13050537109375,-0.039461657294631,-0.0220183550626039,0.0279167654514312,0.0247798766940832,0.0104204788804054,0.005299802403897,standing,2026-03-04_13-52-34
1772632360560453400,6.140453369140625,-0.0304295519899576,0.0156157945439219,0.0912479586333036,0.023337360471487,0.0063719754107296,0.0053280680440366,standing,2026-03-04_13-52-34
1772632360570402300,6.15040234375,-0.0365964040566235,0.0167678871884942,0.1704933447837829,0.0141292158514261,-0.0127276834100484,0.0054873251356184,standing,2026-03-04_13-52-34
1772632360580350500,6.1603505859375,-0.0249002671744674,-0.010652911439538,0.2149503261476755,0.0007258891128003,-0.0264395251870155,0.0052985716611146,standing,2026-03-04_13-52-34
1772632360590299400,6.17029931640625,-0.0617550299063324,-0.0044328678809106,0.1785860503464937,-0.0094649642705917,-0.0212788507342338,0.0029182387515902,standing,2026-03-04_13-52-34
1772632360600247300,6.180247314453125,-0.106743633928895,0.0286653918616473,0.1143219602286815,-0.0171233564615249,-0.0061342343688011,-0.002659335033968,standing,2026-03-04_13-52-34
1772632360610196500,6.190196533203125,-0.0940551250085234,0.0111016781203448,0.053029579398036,-0.0196155421435832,0.0117084113880991,-0.0042066317982971,standing,2026-03-04_13-52-34
1772632360620144400,6.200144287109375,-0.0604427051987499,-0.0004288929365575,0.0305482829988002,-0.0201392360031604,0.0232112221419811,-0.0024654851295053,standing,2026-03-04_13-52-34
1772632360630093300,6.21009326171875,-0.0501996897343546,0.0144381290666759,0.0526432104289531,-0.0201975591480731,0.0139157231897115,-5.82537613809e-05,standing,2026-03-04_13-52-34
1772632360640041500,6.22004150390625,-0.0126630091529339,-0.023069179289788,0.0712339291304349,-0.0176356844604015,-0.0089899245649576,-0.0008309230906888,standing,2026-03-04_13-52-34
1772632360649990400,6.229990478515625,0.0046540363509207,-0.0493625813230872,0.0892711056023836,-0.0191616769880056,-0.0363832004368305,-0.0035409559495747,standing,2026-03-04_13-52-34
1772632360659938300,6.239938232421875,-0.0347357978165149,-0.0409261768892407,0.060366498157382,-0.0235453024506568,-0.0491852983832359,-0.0111058168113231,standing,2026-03-04_13-52-34
1772632360669887200,6.24988720703125,-0.1059717727735638,-0.0299690218061208,-0.02411445055902,-0.0245676897466182,-0.0439109057188034,-0.0188031494617462,standing,2026-03-04_13-52-34
1772632360679835400,6.25983544921875,-0.1136059939790517,-0.0090559976369142,-0.1520902576088905,-0.0212466660887002,-0.0204907860606908,-0.0180767551064491,standing,2026-03-04_13-52-34
1772632360689784300,6.269784423828125,-0.0676747753441333,0.0291901463881134,-0.234509597620368,-0.00972849316895,0.0139651913195848,-0.0069444756954908,standing,2026-03-04_13-52-34
1772632360699732200,6.279732177734375,-0.0351618412088602,0.070406684526056,-0.24515491027534,0.0061321184039115,0.0372092574834823,0.0058421092107892,standing,2026-03-04_13-52-34
1772632360709681200,6.28968115234375,-0.020816139665991,0.0896918152324855,-0.1659317359566688,0.0206213127821683,0.0372196435928344,0.0152140390127897,standing,2026-03-04_13-52-34
1772632360719629300,6.29962939453125,0.0047795624267309,0.0368057359583675,-0.050095864033699,0.0296096932142972,0.0222493447363376,0.0139874946326017,standing,2026-03-04_13-52-34
1772632360729578200,6.309578125,-0.0062998307965695,-0.0201509537555277,0.0390869787633419,0.0340782105922699,0.0056850160472095,0.004978553391993,standing,2026-03-04_13-52-34
1772632360739526100,6.319526123046875,-0.0430567591771483,-0.0551977172173559,0.1328939742296934,0.0278760679066181,-0.0132177388295531,-0.0095073729753494,standing,2026-03-04_13-52-34
1772632360749475300,6.329475341796875,-0.0472295878823846,-0.0526721442624926,0.1889057843089103,0.0112651325762271,-0.0232701078057289,-0.0216649696230888,standing,2026-03-04_13-52-34
1772632360759423200,6.33942333984375,-0.022225275811553,-0.0364358797326683,0.2013280435085296,-0.0077271829359233,-0.0188794434070587,-0.0245838146656751,standing,2026-03-04_13-52-34
1772632360769372200,6.3493720703125,0.0075109601520001,0.001146831947565,0.1496621536791324,-0.0271639954298734,-0.0022157784551382,-0.016318429261446,standing,2026-03-04_13-52-34
1772632360779320300,6.3593203125,0.0091845924526453,0.0584283697016537,0.1451426304280758,-0.0429872870445251,-0.0030995686538517,-0.0117128016427159,standing,2026-03-04_13-52-34
1772632360789269200,6.369269287109375,-0.0239198047697544,0.055385933265835,0.085331428065896,-0.0470824278891086,-0.0024244571104645,-0.0096826739609241,standing,2026-03-04_13-52-34
1772632360799217200,6.379217041015625,-0.013869097007066,0.0503713199742138,-0.0254547592520713,-0.0388890020549297,0.0086014261469244,-0.0072415121830999,standing,2026-03-04_13-52-34
1772632360809166300,6.389166259765625,-0.0236423760678619,0.086427991130948,-0.1258744508564472,-0.0170865003019571,0.0213819369673728,0.0009287996217608,standing,2026-03-04_13-52-34
1772632360819114200,6.3991142578125,0.0041585079189389,0.1139497659154236,-0.1528647491127252,0.0049469959922134,0.0216114781796932,0.0087537635117769,standing,2026-03-04_13-52-34
1772632360829063400,6.4090634765625,0.0309656316280364,0.098074151391536,-0.1049357077240943,0.0208793561905622,0.0109822694212198,0.0154883656650781,standing,2026-03-04_13-52-34
1772632360839011300,6.41901123046875,0.0360242301918566,0.051159840003401,-0.0381482366085052,0.0290282163769006,-0.0006602371577173,0.0175110734999179,standing,2026-03-04_13-52-34
1772632360848960500,6.42896044921875,-0.0211221368752419,0.0126569447383284,0.0385825363725423,0.0248720869421958,-0.0202035773545503,0.0119045861065387,standing,2026-03-04_13-52-34
1772632360858908400,6.438908447265625,-0.0571039892300963,-0.0360527256339788,0.1214998890340328,0.0112615171819925,-0.0392534472048282,-0.0020976166706532,standing,2026-03-04_13-52-34
1772632360868857300,6.448857421875,-0.0607274404242634,-0.0813080177687108,0.0726198305308818,-0.0018308493308722,-0.0381120182573795,-0.0119036417454481,standing,2026-03-04_13-52-34
1772632360878805500,6.458805419921875,-0.0629127485740929,-0.0515491315819323,-0.0262707518100738,-0.0106876213103532,-0.007432809099555,-0.0072414544411003,standing,2026-03-04_13-52-34
1772632360888754400,6.46875439453125,-0.0193261933691799,0.0071165540069341,-0.0822159263938665,-0.0117374379187822,0.0236878246068954,0.0075838305056095,standing,2026-03-04_13-52-34
1772632360898702300,6.478702392578125,0.0032088790439069,0.0433510659486055,-0.0367436305075883,-0.0147635275498032,0.0167838651686906,0.013039999641478,standing,2026-03-04_13-52-34
1772632360908651300,6.4886513671875,-0.0202952575970441,-0.0019800679013133,-0.0497363830715417,-0.0078925723209977,0.0098055833950638,0.0103179821744561,standing,2026-03-04_13-52-34
1772632360918599400,6.498599365234375,-0.0495799504008144,-0.0499152467697858,-0.101180154582858,0.0115378582850098,0.0213832911103963,0.0053032431751489,standing,2026-03-04_13-52-34
1772632360928548400,6.50854833984375,-0.0638210955906659,-0.0147553783223032,-0.1245370647728443,0.0310540348291397,0.0285250898450613,0.0013135620392858,standing,2026-03-04_13-52-34
1772632360938496300,6.518496337890625,-0.0575327360361814,-0.0115934071600437,-0.0374205068558454,0.0377948023378849,0.0100764147937297,-0.005159877706319,standing,2026-03-04_13-52-34
1772632360948445400,6.528445556640625,-0.0515885137442499,-0.0490580454185605,0.0928431188702583,0.0294910669326782,-0.0125588560476899,-0.0132793234661221,standing,2026-03-04_13-52-34
1772632360958393300,6.538393310546875,-0.0220979231048375,-0.076799892694503,0.1273696578502655,0.0152416033670306,-0.0123575609177351,-0.0152125973254442,standing,2026-03-04_13-52-34
1772632360968342300,6.54834228515625,-0.0280786780148744,-0.0340774800382554,0.1259182899981737,0.0001297621056437,-0.0033701912034302,-0.0122293243184685,standing,2026-03-04_13-52-34
1772632360978290400,6.55829052734375,-0.0499707032840698,0.0286962253913283,0.1277607029944658,-0.0162584744393825,-0.0005971435457468,-0.0126957669854164,standing,2026-03-04_13-52-34
1772632360988239400,6.5682392578125,-0.0276746272586286,0.0303325944215059,0.0897036518007516,-0.0242729913443326,0.007974773645401,-0.009138848632574,standing,2026-03-04_13-52-34
1772632360998187300,6.578187255859375,-0.0252385592181235,0.0515302807509899,0.0135895494133234,-0.0218521114438772,0.0220460165292024,-0.0014176681870594,standing,2026-03-04_13-52-34
1772632361008136200,6.58813623046875,-0.0550477142874151,0.09750716515854,-0.0065811319559812,-0.0112567245960235,0.018268322572112,0.0010566746350377,standing,2026-03-04_13-52-34
1772632361018084400,6.59808447265625,-0.0806620480153709,0.0640871261157095,-0.0103968908518552,-0.0021326798014342,-0.0007537028286606,-0.008633610792458,standing,2026-03-04_13-52-34
1772632361028033300,6.608033203125,-0.0718137017797678,0.0248174842618405,-0.0119482119470834,0.0096360947936773,-0.0051710880361497,-0.0085904672741889,standing,2026-03-04_13-52-34
