time,seconds_elapsed,acc_x,acc_y,acc_z,gyr_x,gyr_y,gyr_z,activity,session
1772632657125162200,0.070162353515625,0.0135894763480871,-0.0288530233882367,0.6125771868258715,-0.0656775832176208,0.0996222347021102,-0.041140753775835,standing,2026-03-04_13-57-37
1772632657135110400,0.0801103515625,-0.002587166948989,-0.0947957142427563,0.5758510919749736,-0.1414896696805954,0.1118658557534217,-0.0405424647033214,standing,2026-03-04_13-57-37
1772632657145059300,0.090059326171875,-0.169297705258429,-0.2325856438204646,0.4681301374465227,-0.1821470856666565,0.0984065011143684,-0.0660417005419731,standing,2026-03-04_13-57-37
1772632657155008300,0.10000830078125,-0.298724076442793,-0.3542329785011708,0.3099403939187526,-0.1972493678331375,0.0684338212013244,-0.1036294475197792,standing,2026-03-04_13-57-37
1772632657164957200,0.109957275390625,-0.3079414751864969,-0.3660419281080365,0.1621568935930729,-0.1967942267656326,0.0180654544383287,-0.1285297274589538,standing,2026-03-04_13-57-37
1772632657174905300,0.1199052734375,-0.2225924383986741,-0.2575824301719665,0.0197638541340827,-0.1803247481584549,-0.0387494936585426,-0.1373042613267898,standing,2026-03-04_13-57-37
1772632657184854300,0.129854248046875,-0.0875467660278081,-0.0939949192538857,-0.1344821202039718,-0.1573917418718338,-0.0761101767420768,-0.1428271234035492,standing,2026-03-04_13-57-37
1772632657194803500,0.139803466796875,-0.094121541308239,0.0178410693779587,-0.3011339871287345,-0.1253773272037506,-0.0701637342572212,-0.1634925752878189,standing,2026-03-04_13-57-37
1772632657204752400,0.14975244140625,-0.2678951498717069,0.0519322856806218,-0.5052238965660333,-0.084064245223999,-0.0144597301259636,-0.1872841864824295,standing,2026-03-04_13-57-37
1772632657214701300,0.159701416015625,-0.3668444035973399,0.1532376740783453,-0.6304185484647751,-0.0475926212966442,0.0707804635167121,-0.20219087600708,standing,2026-03-04_13-57-37
1772632657224649500,0.1696494140625,-0.3233688344862312,0.2463458736255764,-0.5995891104370356,-0.0265413969755172,0.1460834741592407,-0.1948184520006179,standing,2026-03-04_13-57-37
1772632657234598400,0.179598388671875,-0.2019819773726165,0.3022989392548799,-0.4275923753529786,-0.0194782093167305,0.1763654798269271,-0.1780919730663299,standing,2026-03-04_13-57-37
1772632657244547300,0.18954736328125,-0.041733109357953,0.333783918581903,-0.1664829400986432,-0.0221895761787891,0.1557123959064483,-0.1484510004520416,standing,2026-03-04_13-57-37
1772632657254496300,0.199496337890625,0.1066250490505248,0.3584425590202212,0.0377682973802089,-0.0232927724719047,0.1144569739699363,-0.1128120794892311,standing,2026-03-04_13-57-37
1772632657264445200,0.209445068359375,0.2075021290335804,0.3477444932647049,0.111969259622693,-0.0098560582846403,0.0743518993258476,-0.0898545607924461,standing,2026-03-04_13-57-37
1772632657274393300,0.219393310546875,0.1514125775430351,0.333770766839385,0.0901180778205394,0.0150796212255954,0.0519607029855251,-0.0790187790989875,standing,2026-03-04_13-57-37
1772632657284342300,0.22934228515625,0.065649991518259,0.3571285538122057,0.0706494072407484,0.0398249141871929,0.0335745029151439,-0.0749627873301506,standing,2026-03-04_13-57-37
1772632657294291500,0.23929150390625,0.0120316524468362,0.3370142788052558,0.1502794087946415,0.0564367957413196,0.0172936711460351,-0.0735388398170471,standing,2026-03-04_13-57-37
1772632657304240400,0.249240478515625,0.0041546354614198,0.2693079392790794,0.2622188578009605,0.0629564821720123,-0.001580418087542,-0.0770022794604301,standing,2026-03-04_13-57-37
1772632657314189300,0.259189208984375,-0.0002213146004825,0.2389908346876502,0.4339531425565481,0.0574226975440979,-0.0355465076863765,-0.0846826657652854,standing,2026-03-04_13-57-37
1772632657324137500,0.269137451171875,-0.0109684071294963,0.1556055722534656,0.5646019682079553,0.0510854385793209,-0.0856560170650482,-0.0995662733912468,standing,2026-03-04_13-57-37
1772632657334086400,0.27908642578125,0.0248197492841631,0.0909499986000359,0.5168406846016645,0.0443226359784603,-0.109395831823349,-0.110426552593708,standing,2026-03-04_13-57-37
1772632657344035300,0.289035400390625,0.0142176181837916,0.1213802081771194,0.415111079442501,0.0285490024834871,-0.0954121053218841,-0.1187489330768585,standing,2026-03-04_13-57-37
1772632657353984300,0.298984375,-0.0635634675677865,0.1757601792708039,0.3282143017560243,-0.0005740453489124,-0.0574119910597801,-0.1080151051282882,standing,2026-03-04_13-57-37
1772632657363932400,0.308932373046875,0.0413859033554792,0.1969311237238347,0.3785784613370895,-0.0377325974404811,-0.0419307686388492,-0.0741849690675735,standing,2026-03-04_13-57-37
1772632657373881300,0.31888134765625,0.2154074953306466,0.1832879444271326,0.4165688770353793,-0.0755834132432937,-0.0503542199730873,-0.036001019179821,standing,2026-03-04_13-57-37
1772632657383830300,0.328830322265625,0.3206384596742689,0.1245778351746499,0.4268780896037816,-0.1078875586390495,-0.0716086402535438,-0.0038715784903615,standing,2026-03-04_13-57-37
1772632657393779200,0.338779296875,0.3428491224385798,0.0935693873181939,0.4139829521954059,-0.1242686063051223,-0.1054085493087768,0.0251162704080343,standing,2026-03-04_13-57-37
1772632657403728400,0.348728271484375,0.330795112029463,0.0516644285246729,0.2816319988012313,-0.1147677823901176,-0.1227244213223457,0.0494610257446765,standing,2026-03-04_13-57-37
1772632657413676500,0.358676513671875,0.2432647126145661,0.033432021741569,0.0884229643404483,-0.0967266038060188,-0.1332694590091705,0.053334467113018,standing,2026-03-04_13-57-37
1772632657423625500,0.36862548828125,0.0905460939742624,0.0182658706612885,-0.0399105701059103,-0.0692696794867515,-0.1516308933496475,0.0429526641964912,standing,2026-03-04_13-57-37
1772632657433574400,0.378574462890625,-0.0174014358516782,-0.0705479926928877,-0.1342354519665241,-0.0410448461771011,-0.1598902940750122,0.0261571481823921,standing,2026-03-04_13-57-37
1772632657443523300,0.3885234375,-0.0775709501322358,-0.0925511501863598,-0.2108347075223922,-0.0144800804555416,-0.153027594089508,0.0087195672094821,standing,2026-03-04_13-57-37
1772632657453472300,0.39847216796875,-0.1107738392930477,-0.0809860923379659,-0.2656388953775167,0.000430007930845,-0.1503674983978271,-0.0143420342355966,standing,2026-03-04_13-57-37
1772632657463420400,0.40842041015625,-0.1903151396501809,-0.0981562767170369,-0.283038942989707,0.0077699460089206,-0.1525853872299194,-0.0408982783555984,standing,2026-03-04_13-57-37
1772632657473369300,0.418369384765625,-0.1884297642949968,-0.1193237140387296,-0.3117424749046564,0.0082641821354627,-0.1464434564113617,-0.0561086013913154,standing,2026-03-04_13-57-37
1772632657483318300,0.428318359375,-0.0940037601474672,-0.1039670088224112,-0.3492284482121467,0.006160550750792,-0.1274868100881576,-0.0505503192543983,standing,2026-03-04_13-57-37
1772632657493267200,0.43826708984375,0.0176385325431823,0.0067775313109159,-0.3640045770615339,0.0106852613389492,-0.1073935329914093,-0.0345889255404472,standing,2026-03-04_13-57-37
1772632657503216400,0.44821630859375,0.1007123178754001,0.0863210236251354,-0.3999550113648176,0.0198952723294496,-0.0959230363368988,-0.0224600918591022,standing,2026-03-04_13-57-37
1772632657513164300,0.458164306640625,0.0673131024248898,0.1118137768000364,-0.4271224197536706,0.0297482926398515,-0.0899952352046966,-0.0163399092853069,standing,2026-03-04_13-57-37
1772632657523113500,0.468113525390625,0.020199249876663,0.1101265543654561,-0.4374854083359241,0.0436124429106712,-0.0683296173810958,-0.0106487348675727,standing,2026-03-04_13-57-37
1772632657533062400,0.4780625,-0.0251175631869584,0.1280582246363163,-0.4307558078199625,0.0560407899320125,-0.0266653969883918,-0.0053106807172298,standing,2026-03-04_13-57-37
1772632657543011300,0.48801123046875,-0.1046275916229933,0.1167518177241086,-0.3952987099915742,0.0708647444844245,0.0063447523862123,-0.0073631787672638,standing,2026-03-04_13-57-37
1772632657552960500,0.49796044921875,-0.1807850947607308,0.0901347366943955,-0.281561856174469,0.0803295820951461,0.0023460132069885,-0.0203942786902189,standing,2026-03-04_13-57-37
1772632657562908400,0.507908447265625,-0.1616168684322387,0.0415710506640374,-0.1043289740025997,0.0834042057394981,-0.0268566142767667,-0.0315249599516391,standing,2026-03-04_13-57-37
1772632657572857300,0.517857421875,-0.112256917457655,0.0387694372467696,0.0300794964432716,0.0882090777158737,-0.038425650447607,-0.0247778408229351,standing,2026-03-04_13-57-37
1772632657582806300,0.52780615234375,-0.0615039777547121,0.0557145806983113,0.0421241545021533,0.0927965566515922,-0.0255039893090724,-0.0210421122610569,standing,2026-03-04_13-57-37
1772632657592755200,0.537755126953125,-0.0908077405851334,0.0529470156811177,0.0639344197720289,0.0951151922345161,-0.0262499451637268,-0.0213852412998676,standing,2026-03-04_13-57-37
1772632657602704400,0.547704345703125,-0.0787239195596426,0.0440459163449704,0.1231324586719274,0.1012678891420364,-0.0363888628780841,-0.0151260131970047,standing,2026-03-04_13-57-37
1772632657612652300,0.55765234375,-0.025567279715836,0.0331343539692461,0.1640600968658924,0.1060874685645103,-0.0450096502900123,-0.0066833859309554,standing,2026-03-04_13-57-37
1772632657622601500,0.5676015625,-0.0358354296214878,0.0626949411049485,0.2523947984009981,0.1002263873815536,-0.0725019946694374,-0.009561464190483,standing,2026-03-04_13-57-37
1772632657632550400,0.57755029296875,-0.0817763659328222,0.0061240358382463,0.3361749053716659,0.0883249342441558,-0.1258315294981002,-0.01756377145648,standing,2026-03-04_13-57-37
1772632657642499600,0.58749951171875,-0.0503699317347258,-0.037507016095519,0.4207476240247488,0.078431561589241,-0.1698120385408401,-0.0252326112240552,standing,2026-03-04_13-57-37
1772632657652447700,0.59744775390625,-0.0112948626048862,-0.0432383993543684,0.3858972599178552,0.0656803846359252,-0.1715810298919677,-0.0393386334180831,standing,2026-03-04_13-57-37
1772632657662396700,0.607396728515625,-0.0645209144230932,-0.0311541399374604,0.2778133172959089,0.0435039773583412,-0.1404473483562469,-0.0514088794589042,standing,2026-03-04_13-57-37
1772632657672345600,0.617345703125,-0.1482023102596402,-0.0163901399172842,0.2246481288194656,0.0080452440306544,-0.1037061214447021,-0.0607787035405635,standing,2026-03-04_13-57-37
1772632657682294500,0.62729443359375,-0.109379681520909,-0.0290726574882864,0.1818102730900049,-0.0259257704019546,-0.0750507712364196,-0.0497095398604869,standing,2026-03-04_13-57-37
1772632657692243500,0.637243408203125,0.0324777166914194,0.0276101837202906,0.1196639057785272,-0.0455188155174255,-0.0312629453837871,-0.0238095857203006,standing,2026-03-04_13-57-37
1772632657702191600,0.647191650390625,0.0966269482579082,0.1546167073465883,0.0531751253485679,-0.0577901303768157,-0.0089637655764818,-0.0080450037494301,standing,2026-03-04_13-57-37
1772632657712140500,0.657140625,0.0508402526602149,0.1996333684198558,0.0759808313965797,-0.0699086263775825,-0.0165320709347724,-0.0048722540959715,standing,2026-03-04_13-57-37
1772632657722089500,0.66708935546875,0.0155381261978298,0.1468720845691859,0.11350421410501,-0.0758176520466804,-0.0298888888210058,-0.0163265094161033,standing,2026-03-04_13-57-37
1772632657732038400,0.677038330078125,-0.0697898678019642,0.056340749772638,0.1005810196459293,-0.0772206261754036,-0.0407780185341835,-0.0304708816111087,standing,2026-03-04_13-57-37
1772632657741987600,0.686987548828125,-0.0942244902260601,0.0593197655834257,0.0613397271037101,-0.0695752203464508,-0.0528032556176185,-0.0374587476253509,standing,2026-03-04_13-57-37
1772632657751935500,0.696935546875,-0.0247039408847689,0.1684529249973595,0.0610661708593368,-0.0574556104838848,-0.0618955567479133,-0.0368266962468624,standing,2026-03-04_13-57-37
1772632657761884700,0.706884765625,0.0329307211559265,0.2268222579881548,0.0515437247544527,-0.0438077077269554,-0.0779448300600051,-0.0279165599495172,standing,2026-03-04_13-57-37
1772632657771833600,0.71683349609375,0.1229452655367553,0.3149082454591989,0.0749766227900981,-0.0245714895427227,-0.0882258266210556,-0.001200524973683,standing,2026-03-04_13-57-37
1772632657781782500,0.726782470703125,0.2036063637040555,0.4078142004325986,0.0360264221489429,-0.0037423730827867,-0.0804730951786041,0.026398878544569,standing,2026-03-04_13-57-37
1772632657791731700,0.736731689453125,0.1800998889755457,0.4720614855460822,-0.0039934535503387,0.0163459554314613,-0.0815064087510109,0.0465152747929096,standing,2026-03-04_13-57-37
1772632657801679600,0.7466796875,0.1052112732624635,0.4974037243343889,0.0163636903017759,0.0378544405102729,-0.1020532324910163,0.0540104769170284,standing,2026-03-04_13-57-37
1772632657811628500,0.756628662109375,0.0672416446238756,0.4530595556952059,0.030110476103425,0.0603496320545673,-0.1275107860565185,0.0566463731229305,standing,2026-03-04_13-57-37
1772632657821577500,0.766577392578125,0.0211364941941574,0.4014101786091923,0.0404249493688344,0.0793824419379234,-0.1587645709514618,0.057649053633213,standing,2026-03-04_13-57-37
1772632657831526400,0.7765263671875,-0.0193373723503202,0.3658350073590874,0.0928226606041193,0.0920291468501091,-0.1771511733531952,0.0512068271636962,standing,2026-03-04_13-57-37
1772632657841475600,0.7864755859375,-0.1006555827194824,0.3398616310603916,0.138144734364748,0.0871739387512207,-0.194091796875,0.0299646537750959,standing,2026-03-04_13-57-37
1772632657851423500,0.796423583984375,-0.2048813886085525,0.2516531862534582,0.2005985601902007,0.0606005787849426,-0.2471640855073928,0.0020519644021987,standing,2026-03-04_13-57-37
1772632657861372700,0.80637255859375,-0.2073052547546103,0.1666670644938945,0.1958510734021663,0.0385884903371334,-0.2437850683927536,-0.0023142881691455,standing,2026-03-04_13-57-37
1772632657871321600,0.816321533203125,-0.0987242493307217,0.2308766479454934,0.053100306546688,0.0120834466069936,-0.1816734820604324,0.0237496346235275,standing,2026-03-04_13-57-37
1772632657881270500,0.8262705078125,0.0029634894480928,0.3728536539494991,-0.0489800117462873,-0.024990951642394,-0.1180537715554237,0.0604091137647628,standing,2026-03-04_13-57-37
1772632657891219700,0.8362197265625,0.0850741653691977,0.4403742616452276,-0.0317956527113914,-0.0681704133749008,-0.0576290413737297,0.1067172363400459,standing,2026-03-04_13-57-37
1772632657901167600,0.846167724609375,0.1652717742105945,0.3940903571151197,-0.0506692800074815,-0.1031214669346809,-0.0010171609465032,0.1441695392131805,standing,2026-03-04_13-57-37
1772632657911116500,0.856116455078125,0.1047651369301602,0.2677025499090552,-0.1008154129236936,-0.123477429151535,0.0496807694435119,0.1519086956977844,standing,2026-03-04_13-57-37
1772632657921065500,0.8660654296875,-0.0709215752456337,0.1221826106011867,-0.1324889005601406,-0.1363902986049652,0.0705714076757431,0.1373398751020431,standing,2026-03-04_13-57-37
1772632657931014700,0.8760146484375,-0.16445505100023,-0.0293958980932831,-0.1328711778759956,-0.1340859234333038,0.0623331815004348,0.1172526776790618,standing,2026-03-04_13-57-37
1772632657940962600,0.885962646484375,-0.1504924304908141,-0.1365508893020451,-0.1806178484350442,-0.1160736307501792,0.0399546399712562,0.1093417555093765,standing,2026-03-04_13-57-37
1772632657950911500,0.895911376953125,-0.0121247010251507,-0.1529869141876697,-0.2461082654774188,-0.0880591124296188,0.0166960563510656,0.111590601503849,standing,2026-03-04_13-57-37
1772632657960860400,0.9058603515625,0.1095424708671867,-0.1330662620566785,-0.2823492071598768,-0.0662025511264801,-0.0073360428214073,0.1236025243997573,standing,2026-03-04_13-57-37
1772632657970809600,0.9158095703125,0.1721685114543885,-0.1141352054849267,-0.2752583721160888,-0.0469011813402175,-0.0201626196503639,0.1409876495599746,standing,2026-03-04_13-57-37
1772632657980758800,0.9257587890625,0.1724948573319241,-0.1424824713081121,-0.2884785036951303,-0.024480827152729,-0.0185362286865711,0.1484929621219635,standing,2026-03-04_13-57-37
1772632657990706700,0.935706787109375,0.0945204774979501,-0.2289253677472472,-0.3087240038663149,-0.0049754343926906,-0.022063722833991,0.132155105471611,standing,2026-03-04_13-57-37
1772632658000655600,0.945655517578125,-0.0528503503736108,-0.296276610225439,-0.2639052034527063,0.0132507067173719,-0.0405769534409046,0.1114258617162704,standing,2026-03-04_13-57-37
1772632658010604500,0.9556044921875,-0.0456408939188346,-0.3097682522222399,-0.2376291909456253,0.0274932514876127,-0.0585000216960907,0.1003014594316482,standing,2026-03-04_13-57-37
1772632658020553500,0.965553466796875,0.0089219229284673,-0.2822492539167404,-0.2349526652127504,0.0383525565266609,-0.0739695280790329,0.1000095754861831,standing,2026-03-04_13-57-37
1772632658030502700,0.975502685546875,0.0804043103946372,-0.1883135175041854,-0.2568441790252924,0.0542507991194725,-0.063317947089672,0.1115245595574379,standing,2026-03-04_13-57-37
1772632658040450600,0.985450439453125,0.0780709720762446,-0.1011963750652968,-0.2881494178712367,0.0703959465026855,-0.0414145179092884,0.1158889532089233,standing,2026-03-04_13-57-37
1772632658050399500,0.9953994140625,-0.0261188857166096,-0.0729109224319458,-0.2754068406760692,0.0782034397125244,-0.0260789711028337,0.1132203862071037,standing,2026-03-04_13-57-37
1772632658060348400,1.005348388671875,-0.1223642142457887,-0.0934698724664747,-0.226400525444746,0.0767642632126808,-0.0136563898995518,0.0973838940262794,standing,2026-03-04_13-57-37
1772632658070297600,1.015297607421875,-0.1977285211792215,-0.1187516132391989,-0.1595890889316797,0.0696782544255256,-0.0015597764868289,0.0849848240613937,standing,2026-03-04_13-57-37
1772632658080246800,1.025246826171875,-0.220031611467339,-0.0508162872627377,-0.0671370152056217,0.0631186217069625,0.0091621102765202,0.0787887126207351,standing,2026-03-04_13-57-37
1772632658090194700,1.035194580078125,-0.2200590839961543,0.0090051442325115,0.012348024919629,0.062160886824131,0.0022722480352967,0.0703892633318901,standing,2026-03-04_13-57-37
1772632658100143600,1.0451435546875,-0.2239628499690443,0.0323608853787183,0.0313555077284574,0.0718468055129051,-0.0058272238820791,0.0655777305364608,standing,2026-03-04_13-57-37
1772632658110092500,1.055092529296875,-0.2024506543302908,0.0437472256593406,0.0120557639747858,0.0864344984292984,-0.0160152856260538,0.0619698651134967,standing,2026-03-04_13-57-37
1772632658120041700,1.065041748046875,-0.1833565526839345,0.068978113027662,0.0019546411991119,0.1066939532756805,-0.0163846649229526,0.0609011389315128,standing,2026-03-04_13-57-37
1772632658129990700,1.07499072265625,-0.1856823287503793,0.1337314479671418,0.0056324529290199,0.1196118146181106,-0.000247374176979,0.0598183646798133,standing,2026-03-04_13-57-37
1772632658139938600,1.0849384765625,-0.2054468039389699,0.1359120068766176,0.069152446681261,0.1167702227830886,0.0169076453894376,0.0542832501232624,standing,2026-03-04_13-57-37
1772632658149887500,1.094887451171875,-0.2688215805342421,0.0910088891804218,0.2056546745359897,0.0981294140219688,0.024146519601345,0.0386516042053699,standing,2026-03-04_13-57-37
1772632658159836400,1.10483642578125,-0.3593967544725164,-0.032728841908276,0.3366016063511371,0.0761649906635284,0.0181916914880275,0.018499732017517,standing,2026-03-04_13-57-37
1772632658169785600,1.11478564453125,-0.382160448009707,-0.0876620629705488,0.3582259936600923,0.0536699220538139,0.0070919012650847,0.0015360685065388,standing,2026-03-04_13-57-37
1772632658179734800,1.12473486328125,-0.3285897474722936,-0.1117662843964993,0.3133499101012945,0.0435903891921043,0.0177149828523397,-0.0041673574596643,standing,2026-03-04_13-57-37
1772632658189682400,1.134682373046875,-0.2512813572663813,-0.076909052157402,0.2243926927536725,0.0341564044356346,0.0412823595106601,0.0007682789582759,standing,2026-03-04_13-57-37
1772632658199631600,1.144631591796875,-0.1852787163855508,-0.0058377662427723,0.2500193014413118,0.0174208357930183,0.0537637993693351,0.0054503823630511,standing,2026-03-04_13-57-37
1772632658209580500,1.15458056640625,-0.2080897561958059,-0.0206309923574328,0.3392494905114174,-0.008139775134623,0.042957354336977,-0.0034557327162474,standing,2026-03-04_13-57-37
1772632658219529700,1.16452978515625,-0.2977558159325271,-0.115619014301896,0.4282107995122671,-0.0362521037459373,0.0107711898162961,-0.0182128399610519,standing,2026-03-04_13-57-37
1772632658229477600,1.1744775390625,-0.291708425527066,-0.1680329460196196,0.4817676176548003,-0.0631144046783447,-0.0201799310743808,-0.0314045436680316,standing,2026-03-04_13-57-37
1772632658239426600,1.184426513671875,-0.2830351801300421,-0.1380238844640552,0.4738479305714368,-0.0845927968621254,-0.0393059514462947,-0.0356381684541702,standing,2026-03-04_13-57-37
1772632658249375500,1.19437548828125,-0.2485180665655061,-0.0623740385875105,0.3989782752871513,-0.0923770368099212,-0.0501495525240898,-0.0392904579639434,standing,2026-03-04_13-57-37
1772632658259324700,1.20432470703125,-0.2542187258925288,-0.0047900107555091,0.2793821740478277,-0.097806692123413,-0.0766591876745224,-0.0434114336967468,standing,2026-03-04_13-57-37
1772632658269273600,1.214273681640625,-0.2168421312436461,0.0341885391972959,0.1521779358923435,-0.0860241949558258,-0.0868612304329872,-0.0458837151527404,standing,2026-03-04_13-57-37
1772632658279221500,1.224221435546875,-0.1363569741651416,0.0893519157536327,-0.0022299510091543,-0.0679248198866844,-0.0726178437471389,-0.0397403351962566,standing,2026-03-04_13-57-37
1772632658289170400,1.23417041015625,-0.0999911639939993,0.1957575498998165,-0.1400871006041765,-0.0621681250631809,-0.0664483681321144,-0.0388577654957771,standing,2026-03-04_13-57-37
1772632658299119600,1.24411962890625,-0.0915954934293404,0.216119516057521,-0.1335527303993701,-0.0695085972547531,-0.0715275481343269,-0.0347503721714019,standing,2026-03-04_13-57-37
1772632658309068800,1.25406884765625,-0.0423053928205743,0.1761013939239084,-0.1125409220308065,-0.074478343129158,-0.0762205719947815,-0.0254788976162672,standing,2026-03-04_13-57-37
1772632658319017700,1.264017822265625,0.0010738763092085,0.1501765329420566,-0.1673497860610485,-0.0747329369187355,-0.0806254372000694,-0.020192788913846,standing,2026-03-04_13-57-37
1772632658328965600,1.273965576171875,-0.0088119232153519,0.1737904866330325,-0.2884171288967132,-0.058924950659275,-0.0723749622702598,-0.0141290370374917,standing,2026-03-04_13-57-37
1772632658338914600,1.28391455078125,-0.0477817053398117,0.2378777588792145,-0.4285200115919113,-0.035150907933712,-0.0566657744348049,-0.0100181819871068,standing,2026-03-04_13-57-37
1772632658348863500,1.293863525390625,-0.0497428128123283,0.2328821425490081,-0.5085621010780335,-0.0087786959484219,-0.0466028861701488,0.0014008213765919,standing,2026-03-04_13-57-37
1772632658358812700,1.303812744140625,-0.0151534011965617,0.2000719059675932,-0.50295478259027,0.0176071058958768,-0.0354402475059032,0.0074224947020411,standing,2026-03-04_13-57-37
1772632658368760600,1.313760498046875,-0.0004985241066664,0.1495911342695355,-0.4549018225610255,0.0361338518559932,-0.0220646522939205,0.0204426888376474,standing,2026-03-04_13-57-37
1772632658378709500,1.32370947265625,0.0123427824889309,0.1209970540784299,-0.365045026025176,0.0485657565295696,-0.0165449846535921,0.0295046288520097,standing,2026-03-04_13-57-37
1772632658388658400,1.333658447265625,-0.0009029401890933,0.0507810698188841,-0.2356499998271465,0.051733560860157,-0.0120057603344321,0.0285713020712137,standing,2026-03-04_13-57-37
1772632658398607600,1.343607666015625,-0.0209168052951805,-0.0295605871357023,-0.1248398471117019,0.050745528191328,-0.0034436972346156,0.02332354336977,standing,2026-03-04_13-57-37
1772632658408556800,1.353556884765625,-0.0470297727276571,-0.0799772075563669,-0.0600011719763278,0.0493800081312656,0.0072174710221588,0.0200221501290798,standing,2026-03-04_13-57-37
1772632658418504700,1.363504638671875,-0.0507193114279769,-0.0989360289178788,-0.007297755792737,0.0517603419721126,0.013247400522232,0.0133535927161574,standing,2026-03-04_13-57-37
1772632658428453600,1.37345361328125,-0.0436787270003929,-0.095924718272686,0.0040671033084392,0.0553912408649921,0.0011546483729034,0.0074835801497101,standing,2026-03-04_13-57-37
1772632658438402600,1.383402587890625,0.0080362809340469,-0.1395586928158998,-0.0270247850477695,0.0710295885801315,-0.0023996061645448,0.0096854818984866,standing,2026-03-04_13-57-37
1772632658448351700,1.393351806640625,0.0164908238127827,-0.1259105450831353,-0.1215712007045745,0.0935878008604049,0.0168758202344179,0.0082646002992987,standing,2026-03-04_13-57-37
1772632658458300700,1.40330078125,-0.0380159154657274,-0.0522286382786929,-0.2002256352245807,0.1190841048955917,0.0451572574675083,0.0078126620501279,standing,2026-03-04_13-57-37
1772632658468248600,1.41324853515625,-0.0738060629070736,-0.0032321137890219,-0.2175403426408767,0.1454134136438369,0.0607810914516449,0.0056404341012239,standing,2026-03-04_13-57-37
1772632658478197500,1.423197509765625,-0.1253154652668163,-0.0319207403957843,-0.1540922450810671,0.1635055989027023,0.0477302744984626,-0.0097766052931547,standing,2026-03-04_13-57-37
1772632658488146400,1.433146484375,-0.1620647217975929,-0.1113406063303351,-0.0476765279322862,0.1664095222949981,0.021298935636878,-0.0366586223244667,standing,2026-03-04_13-57-37
1772632658498095600,1.443095703125,-0.1776713831869885,-0.1736122074566781,0.0865238527208566,0.1576479822397232,-0.0038543539121747,-0.0500817522406578,standing,2026-03-04_13-57-37
1772632658508044500,1.45304443359375,-0.1322730658523738,-0.1350458915665745,0.1800000087976455,0.1371279954910278,-0.0291704982519149,-0.0640880465507507,standing,2026-03-04_13-57-37
1772632658517992400,1.462992431640625,-0.1352672061670571,-0.0064211190886795,0.2239379347234964,0.1235615834593772,-0.0153268529102206,-0.0621362179517746,standing,2026-03-04_13-57-37
1772632658527941600,1.472941650390625,-0.0821645250001922,-0.0059422495305538,0.1998760911345481,0.1119004189968109,-0.0057254964485764,-0.0477282926440238,standing,2026-03-04_13-57-37
1772632658537890600,1.482890625,0.0175768289512023,-0.0649564562961459,0.1474842251181602,0.0949954688549041,-0.0317531041800975,-0.0378215983510017,standing,2026-03-04_13-57-37
1772632658547839700,1.49283984375,-0.035581126066856,0.0393830391004681,0.1941822634071111,0.0796612575650215,-0.0599124319851398,-0.0339569859206676,standing,2026-03-04_13-57-37
1772632658557788700,1.50278857421875,-0.0571525958784855,0.1465503052689135,0.1930108815401792,0.0598177760839462,-0.0661905705928802,-0.0199378412216901,standing,2026-03-04_13-57-37
1772632658567736600,1.512736572265625,-0.0311634374887682,0.2116381328597664,0.1692494822025299,0.0369464829564094,-0.0529804900288581,-0.0011346895480528,standing,2026-03-04_13-57-37
1772632658577685500,1.522685546875,-0.0068202927404083,0.2378743978783488,0.1360673435688018,0.0137988179922103,-0.0332848131656646,0.0136170918121933,standing,2026-03-04_13-57-37
1772632658587634700,1.532634765625,-0.0321322094556875,0.1957544811598956,0.1417933200001716,-0.0072071803733706,-0.012569417245686,0.0207069180905818,standing,2026-03-04_13-57-37
1772632658597583600,1.54258349609375,-0.091246004138235,0.1224181729227304,0.1044517235994338,-0.0194071214646101,0.0038186104502528,0.014881519600749,standing,2026-03-04_13-57-37
1772632658607531500,1.552531494140625,-0.1277054108769632,0.0814078248813748,0.090642978477478,-0.0347533263266086,0.0021510696969926,0.0100493812933564,standing,2026-03-04_13-57-37
1772632658617480400,1.56248046875,-0.1213726459251716,0.0219479201748967,0.1221153905838727,-0.0480981618165969,-0.009154581464827,0.0028220945969223,standing,2026-03-04_13-57-37
1772632658627428600,1.5724287109375,-0.1068637531772255,-0.022892799809575,0.1006119993060827,-0.0489567629992961,-0.0113117415457963,0.0004271138459444,standing,2026-03-04_13-57-37
1772632658637377500,1.58237744140625,-0.0890748706442303,-0.0132483347602188,-0.0775876820713281,-0.0289729330688714,0.0083929859101772,-0.0003294902853667,standing,2026-03-04_13-57-37
1772632658647326700,1.59232666015625,-0.0955571453356184,0.0523652702704071,-0.2529407418459654,0.0003146459348499,0.0311084184795618,0.0083228535950183,standing,2026-03-04_13-57-37
1772632658657274400,1.6022744140625,-0.0425504170902073,0.1008002153545618,-0.2871954781472682,0.0266698207706213,0.0252784918993711,0.0136976446956396,standing,2026-03-04_13-57-37
1772632658667223800,1.612223876953125,0.0153512618562206,0.0690969171017408,-0.1885690997004508,0.0447210483253002,0.0021179162431508,0.0180579144507646,standing,2026-03-04_13-57-37
1772632658677172700,1.6221728515625,0.0584687930435873,0.021596622519195,-0.0905406871467828,0.0551409311592578,-0.0227927602827548,0.022564249113202,standing,2026-03-04_13-57-37
1772632658687121700,1.63212158203125,0.0588305390280671,0.0044897126346826,-0.0169634097605943,0.0548811703920364,-0.0281711500138044,0.0187560115009546,standing,2026-03-04_13-57-37
1772632658697070600,1.642070556640625,0.0038762751777656,0.0225688285522162,0.0866758284121751,0.0376462563872337,-0.0239268708974123,0.0120584275573492,standing,2026-03-04_13-57-37
1772632658707018500,1.6520185546875,-0.0348940936507657,0.00438274512887,0.1884130323559045,0.0089461486786603,-0.0144950170069932,0.005567449145019,standing,2026-03-04_13-57-37
1772632658716967700,1.6619677734375,-0.0550011351993307,-0.037354163621366,0.2580342655926942,-0.0271356906741857,-0.0193973630666732,-0.0036199234891682,standing,2026-03-04_13-57-37
1772632658726916600,1.67191650390625,-0.0126391716196201,-0.0580102904200553,0.3001280249565839,-0.0612367205321788,-0.0295607857406139,-0.0016604119446128,standing,2026-03-04_13-57-37
1772632658736865500,1.681865478515625,0.0183830855664797,-0.0587682691805064,0.211053318709135,-0.0730134770274162,-0.0182711128145456,0.0042531369253993,standing,2026-03-04_13-57-37
1772632658746813400,1.6918134765625,-0.0054091655671596,-0.0004305003717541,0.0271557179510593,-0.0629801601171493,0.0204287469387054,0.0012080511078238,standing,2026-03-04_13-57-37
1772632658756762600,1.7017626953125,-0.0784870785964652,0.0625803748145699,-0.1309036771953106,-0.0404716618359088,0.0471996366977691,-0.0008969113696366,standing,2026-03-04_13-57-37
1772632658766711800,1.7117119140625,-0.0799822490576654,0.0606578823193907,-0.1710182454407215,-0.0163598656654357,0.0439589694142341,-0.0073228534311056,standing,2026-03-04_13-57-37
1772632658776660700,1.72166064453125,-0.0830571264583617,0.0242785550795495,-0.1535416254609823,0.0066184187307953,0.0251698363572359,-0.0062405443750321,standing,2026-03-04_13-57-37
1772632658786609700,1.731609619140625,-0.0297128368216566,0.0409397670231759,-0.0949982510775327,0.0203960016369819,0.0035749317612499,-0.0009490672964602,standing,2026-03-04_13-57-37
1772632658796557600,1.7415576171875,-0.0035282106587663,0.0546469514667987,0.0055745852619409,0.017273711040616,-0.0326251499354839,-0.0020723885390907,standing,2026-03-04_13-57-37
1772632658806506800,1.7515068359375,-0.0414802305754274,0.0617407091200351,0.1265951663464307,-0.0002939789555966,-0.0638496503233909,-0.0028672022745013,standing,2026-03-04_13-57-37
1772632658816455700,1.76145556640625,-0.0495052594630978,0.0589027092151343,0.1659983714520931,-0.0201084297150373,-0.0814084038138389,0.0038655353710055,standing,2026-03-04_13-57-37
1772632658826404600,1.771404541015625,-0.0563959140259772,0.0917920023821294,0.0945136824309825,-0.0349862985312938,-0.0627308562397956,0.0099557777866721,standing,2026-03-04_13-57-37
1772632658836353500,1.781353515625,-0.1029099009849131,0.1352633337095379,-0.0584627103626728,-0.0410572402179241,-0.0222252402454614,0.0157566759735345,standing,2026-03-04_13-57-37
1772632658846301400,1.791301513671875,-0.144732040333189,0.1488151814609765,-0.1833651013165712,-0.0418730936944484,0.0115170078352093,0.0201846435666084,standing,2026-03-04_13-57-37
1772632658856250600,1.801250732421875,-0.1694707237377762,0.0988363679356873,-0.2100689838469028,-0.0341049209237098,0.0374207757413387,0.0195718500763177,standing,2026-03-04_13-57-37
1772632658866199600,1.811199462890625,-0.153176591540873,0.0359682622209191,-0.2075111160576343,-0.0224058143794536,0.0511878579854965,0.0115769561380147,standing,2026-03-04_13-57-37
1772632658876148700,1.821148681640625,-0.2005382996366359,0.0122314128026366,-0.20847031647861,-0.0086378045380115,0.0518270134925842,-0.0016179413069039,standing,2026-03-04_13-57-37
1772632658886097700,1.83109765625,-0.1948875255996361,-0.040331571996957,-0.1508008023202419,5.40916807949e-05,0.0502056777477264,-0.0096594262868165,standing,2026-03-04_13-57-37
1772632658896045600,1.841045654296875,-0.1387294571838341,-0.1064965273000299,-0.0749286919951438,-0.0024255774915218,0.050141766667366,-0.0164073444902896,standing,2026-03-04_13-57-37
1772632658905994800,1.850994873046875,-0.1291862788181751,-0.0880073692768812,0.0377273808479309,-0.0135652404278516,0.0451633855700492,-0.0205885767936706,standing,2026-03-04_13-57-37
1772632658915943700,1.860943603515625,-0.1322882816878147,-0.108195440172404,0.0941723216474056,-0.0231712628155946,0.0328870117664337,-0.0228599868714809,standing,2026-03-04_13-57-37
1772632658925892600,1.870892578125,-0.1066546039385721,-0.125335813935101,0.0432324080049991,-0.0187511667609214,0.0320359990000724,-0.0241522081196308,standing,2026-03-04_13-57-37
1772632658935840500,1.880840576171875,-0.1199360555171035,-0.08971139671579,-0.0537841971576213,-0.0066646775230765,0.033785693347454,-0.0324897691607475,standing,2026-03-04_13-57-37
1772632658945789700,1.890789794921875,-0.1544780660608783,-0.0622464666850864,-0.1095510925650596,0.0038428269326686,0.0456070676445961,-0.0370106473565101,standing,2026-03-04_13-57-37
1772632658955738600,1.900738525390625,-0.1073305304387584,-0.0700739454403519,-0.0999152492135763,0.0064202342182397,0.0581319108605384,-0.036738745868206,standing,2026-03-04_13-57-37
1772632658965687600,1.9106875,-0.0462127389900386,-0.0644527445577085,-0.0007668927192687,-0.0044207694008946,0.0538779124617576,-0.0384026132524013,standing,2026-03-04_13-57-37
1772632658975636500,1.920636474609375,-0.0082469462763518,-0.053335284346342,0.1365454824745655,-0.0252397656440734,0.0317084304988384,-0.0364334732294082,standing,2026-03-04_13-57-37
1772632658985584400,1.93058447265625,0.0456415515059605,-0.0741910253703594,0.218703541201353,-0.0437263995409011,0.015650637447834,-0.0310705117881298,standing,2026-03-04_13-57-37
1772632658995533800,1.940533935546875,0.0771512634154409,-0.0207623636521399,0.1433908183246851,-0.0536136515438556,0.0200874637812376,-0.022624297067523,standing,2026-03-04_13-57-37
1772632659005482800,1.950482666015625,0.0199231363490223,0.0748991736397147,0.0225911865144968,-0.0514916591346263,0.0343883708119392,-0.0217911899089813,standing,2026-03-04_13-57-37
1772632659015431700,1.960431640625,-0.0675016107343137,0.0956286579355597,-0.094488547989726,-0.0378538779914379,0.046257808804512,-0.0279273800551891,standing,2026-03-04_13-57-37
1772632659025380600,1.970380615234375,-0.0832154588252306,0.1144452943474054,-0.2052589532166719,-0.0194162558764219,0.0545765906572341,-0.0282084550708532,standing,2026-03-04_13-57-37
1772632659035328500,1.98032861328125,-0.0236047109385952,0.1591338925100862,-0.193611770042777,-0.0032940101809799,0.0529677756130695,-0.0108640864491462,standing,2026-03-04_13-57-37
1772632659045277700,1.990277587890625,0.0672905983321368,0.2328942713782191,-0.1240770460456609,0.0072764377109706,0.047324139624834,0.0115418722853064,standing,2026-03-04_13-57-37
1772632659055226600,2.0002265625,0.1318556441579014,0.2811846934251487,-0.0320458280801773,0.0163101460784673,0.0271536242216825,0.0336280018091201,standing,2026-03-04_13-57-37
1772632659065175600,2.010175537109375,0.145303191284649,0.2580541393369436,-0.0102940149992704,0.0296210665255785,0.0112279234454035,0.0433459877967834,standing,2026-03-04_13-57-37
1772632659075124500,2.02012451171875,0.0647263008020818,0.2384149344958364,-0.072645549494028,0.0415184758603572,0.0070717940106987,0.0490278415381908,standing,2026-03-04_13-57-37
1772632659085072600,2.03007275390625,-0.0162250124834477,0.2188620927639305,-0.0856184283137321,0.0486550405621528,0.0079563623294234,0.0478933230042457,standing,2026-03-04_13-57-37
1772632659095021600,2.040021484375,-0.0462232238514348,0.1540431452423334,-0.0586433276265859,0.0440435111522674,0.0032444309908896,0.0512560978531837,standing,2026-03-04_13-57-37
1772632659104970800,2.049970703125,-0.0407576519219204,0.1009771793566644,0.0220376442849636,0.0305329784750938,0.0039573581889271,0.0560183189809322,standing,2026-03-04_13-57-37
1772632659114919700,2.059919677734375,-0.0283525265201926,0.0838780143871903,0.122720955261588,0.0120447818189859,0.002770121442154,0.0609728656709194,standing,2026-03-04_13-57-37
1772632659124867600,2.06986767578125,0.0010894757371395,0.0548722846552729,0.1709936955213546,-0.0025868918746709,-0.0038502307143062,0.0663516446948051,standing,2026-03-04_13-57-37
1772632659134816800,2.079816650390625,-0.0324982114901766,0.0029033202260732,0.1420569393724203,-0.0037568183615803,-0.0086396597325801,0.0669055804610252,standing,2026-03-04_13-57-37
1772632659144765700,2.089765625,-0.0897686433283612,-0.0095908351659774,0.0667518152803182,0.0109816966578364,0.0052202306687831,0.063324473798275,standing,2026-03-04_13-57-37
1772632659154714600,2.099714599609375,-0.1491508796887472,0.028147505467385,-0.0677355656206607,0.0365815982222557,0.0180790368467569,0.0572900176048278,standing,2026-03-04_13-57-37
1772632659164663600,2.10966357421875,-0.1571027154760435,0.0536918426990509,-0.0970756418734788,0.052279245108366,0.0186813119798898,0.052660658955574,standing,2026-03-04_13-57-37
1772632659174611500,2.119611572265625,-0.1154838070822879,0.0636129327327013,-0.0013660276561975,0.0479920879006385,-0.0025739087723195,0.0464991703629493,standing,2026-03-04_13-57-37
1772632659184560600,2.129560546875,-0.1125440638359636,0.0274722365543246,0.1392091487258672,0.0276871807873249,-0.0200410485267639,0.0426168963313102,standing,2026-03-04_13-57-37
1772632659194509600,2.139509521484375,-0.1021871031356975,-0.0329695187963545,0.2141816798627376,0.0012952531687915,-0.0171243548393249,0.0389696955680847,standing,2026-03-04_13-57-37
1772632659204458800,2.149458740234375,-0.1265298094926402,-0.0246788064435124,0.2343213815718889,-0.0238333120942115,-0.019961817190051,0.0351273491978645,standing,2026-03-04_13-57-37
1772632659214407700,2.15940771484375,-0.1474960982190445,-0.0088119597479701,0.2183750398993492,-0.0298600457608699,-0.0171713568270206,0.0295110065490007,standing,2026-03-04_13-57-37
1772632659224355600,2.16935546875,-0.1550769087368622,0.0046899113819003,0.0336269597917795,-0.0122082158923149,0.0100627886131405,0.0235426928848028,standing,2026-03-04_13-57-37
1772632659234304800,2.1793046875,-0.1923008335746824,0.0573807603448629,-0.1270288815885782,0.0142452288419008,0.0325742214918136,0.0223485305905342,standing,2026-03-04_13-57-37
1772632659244253700,2.189253662109375,-0.1738508750507608,0.0848423293747007,-0.0994488007456064,0.0253275372087955,0.0176866203546524,0.0120262037962675,standing,2026-03-04_13-57-37
1772632659254202600,2.19920263671875,-0.1570215034659952,0.0273699452236294,0.0324175840020179,0.027226373553276,-0.0053047160618007,0.004811966791749,standing,2026-03-04_13-57-37
1772632659264151600,2.209151611328125,-0.1275365753823891,-0.0424823202900588,0.0701063864052295,0.0156529787927865,0.0033570835366845,0.0067877797409892,standing,2026-03-04_13-57-37
1772632659274099700,2.219099609375,-0.1239953591115772,-0.0162906250655651,0.052434536114335,-0.0034850286319851,0.0264392327517271,0.0089534623548388,standing,2026-03-04_13-57-37
1772632659284048600,2.229048583984375,-0.1791311170086264,-0.0099038466379046,0.104503746047616,-0.0329202488064765,0.0333055257797241,0.0064890570938587,standing,2026-03-04_13-57-37
1772632659293997600,2.23899755859375,-0.2027564323438331,-0.0867827959179878,0.18970833286345,-0.0678939446806907,0.019827801734209,-0.0022431816905736,standing,2026-03-04_13-57-37
1772632659303946500,2.248946533203125,-0.2161522127507254,-0.1485178059495985,0.2522264560967683,-0.0907610282301902,0.0103819705545902,-0.0099144596606493,standing,2026-03-04_13-57-37
1772632659313894400,2.258894287109375,-0.188246480149962,-0.1184687046445906,0.1756090803623199,-0.0872682929039001,0.0177107229828834,-0.0114130191504955,standing,2026-03-04_13-57-37
1772632659323843600,2.268843505859375,-0.1718906808936968,-0.021925854473561,-0.0184673845827579,-0.0636999756097793,0.0426678694784641,-0.0091772675514221,standing,2026-03-04_13-57-37
1772632659333792800,2.278792724609375,-0.1660771357767284,0.0339390944808721,-0.1824158377677202,-0.0244234055280685,0.0553296022117137,-0.0125917065888643,standing,2026-03-04_13-57-37
1772632659343741700,2.28874169921875,-0.1608658308692276,0.0610424977228045,-0.2338105094403028,0.0073205735534429,0.0378005430102348,-0.0167315062135458,standing,2026-03-04_13-57-37
1772632659353690600,2.298690673828125,-0.1476900498885661,0.0239877554394304,-0.1279389821708202,0.0285803228616714,0.005750729702413,-0.0242847632616758,standing,2026-03-04_13-57-37
1772632659363638500,2.308638427734375,-0.1331096993396058,-0.0076348787926137,0.0052338090002536,0.034433152526617,-0.0247982572764158,-0.0298962127417325,standing,2026-03-04_13-57-37
1772632659373587700,2.318587646484375,-0.102291586423479,0.0061380643635988,0.1123380929350852,0.0256391279399395,-0.0485813505947589,-0.0317140854895114,standing,2026-03-04_13-57-37
1772632659383536600,2.32853662109375,-0.0383271733719855,0.064241878286004,0.1199871463835239,0.0149879846721887,-0.0411876142024993,-0.0232775434851646,standing,2026-03-04_13-57-37
1772632659393485600,2.338485595703125,-0.002366400337778,0.1079039098799228,0.0563403113812208,0.0074272700585424,-0.0220195148140192,-0.012444868683815,standing,2026-03-04_13-57-37
1772632659403434500,2.3484345703125,-0.0019176701895892,0.1512559987418353,-0.0285696764022111,0.0076809749007225,-0.0066108629107475,-0.0052692331373691,standing,2026-03-04_13-57-37
1772632659413382700,2.358382568359375,0.0301736044675111,0.1586744583047926,-0.0783481450498104,0.0073147900402545,0.0047355350106954,0.0036036204546689,standing,2026-03-04_13-57-37
1772632659423331600,2.36833154296875,0.0348964317383244,0.1541575654022395,-0.0652700522899627,0.0013687014579772,0.0163788758218288,0.0140338484197855,standing,2026-03-04_13-57-37
1772632659433280800,2.37828076171875,0.0288859027445316,0.1558620312325656,0.0356482364863157,-0.0161636862903833,0.0161722134798765,0.0194525811821222,standing,2026-03-04_13-57-37
1772632659443229700,2.388229736328125,0.0336821240451186,0.1265447513334453,0.1206400573343038,-0.0280680172145366,0.0100811626762151,0.0198636762797832,standing,2026-03-04_13-57-37
1772632659453178600,2.3981787109375,-0.0097881113037467,0.0934348011530935,0.1173164658695459,-0.0321895256638526,0.0132607100531458,0.0074568083509802,standing,2026-03-04_13-57-37
1772632659463126800,2.408126708984375,-0.1005600499231368,0.0618704729795455,0.0384685546040535,-0.031736884266138,-0.000633931485936,-0.0098846182227134,standing,2026-03-04_13-57-37
1772632659473075700,2.41807568359375,-0.1486190378343686,0.0403163744278252,0.0093318919688463,-0.0257511660456657,-0.017262976616621,-0.0153986932709813,standing,2026-03-04_13-57-37
1772632659483024600,2.428024658203125,-0.0342763636112213,0.0580835017867386,-0.0631610973119735,-0.0141754439100623,-0.0099977385252714,1.74357555806e-05,standing,2026-03-04_13-57-37
1772632659492973600,2.4379736328125,0.0907518456794321,0.145531922006607,-0.1505558876484632,-0.000426874961704,0.0066092014312744,0.0212686620652675,standing,2026-03-04_13-57-37
1772632659502921500,2.44792138671875,0.0882531607314944,0.2076367882639169,-0.1955716719388961,0.0139743462204933,0.0185486879199743,0.0307331159710884,standing,2026-03-04_13-57-37
1772632659512870700,2.45787060546875,0.0397215138072147,0.150487206326425,-0.17872341299057,0.0275604613125324,0.0235194787383079,0.0373875573277473,standing,2026-03-04_13-57-37
1772632659522819600,2.467819580078125,0.0094280458196997,0.0835721633084118,-0.1400467685937881,0.0331589505076408,0.0239764731377363,0.0333505384624004,standing,2026-03-04_13-57-37
1772632659532768500,2.4777685546875,-0.075393496495299,0.0273988790571689,-0.0422568409711122,0.0284470170736312,0.0069314432330429,0.0214302316308021,standing,2026-03-04_13-57-37
1772632659542717700,2.4877177734375,-0.1251593248570338,-0.0117301852822303,0.0669248337596654,0.0190441012382507,-0.0037714010104537,0.0155071094632148,standing,2026-03-04_13-57-37
1772632659552665600,2.49766552734375,-0.0651251273939386,-0.0431299705438315,0.0861883371561765,0.0100178495049476,-0.0006981131155043,0.0162397436797618,standing,2026-03-04_13-57-37
1772632659562614800,2.50761474609375,-0.0776671039830893,-0.0192585349604487,0.0966103624492883,-0.0017760815098881,0.0001931129954755,0.0100258197635412,standing,2026-03-04_13-57-37
1772632659572563700,2.517563720703125,-0.1310231388565153,-0.0013943769678473,0.1216127017587423,-0.0144508648663759,-0.0049174930900335,-0.0007778262952342,standing,2026-03-04_13-57-37
1772632659582512600,2.5275126953125,-0.1562520169308409,-0.0309998261585831,0.1177934357315301,-0.0282847750931978,0.0047551090829074,-0.0048573967069387,standing,2026-03-04_13-57-37
1772632659592461600,2.537461669921875,-0.1368770890491083,-0.0213112297065556,0.067127078333497,-0.0415430553257465,0.020177474245429,-0.0068952473811805,standing,2026-03-04_13-57-37
1772632659602409700,2.54740966796875,-0.1846227001622319,-0.0012928162895143,0.0318166954994201,-0.0425462126731872,0.0174297615885734,-0.0144246621057391,standing,2026-03-04_13-57-37
1772632659612358700,2.557358642578125,-0.2050606176329776,-0.0221731072328984,-0.0632312399387359,-0.0202441029250621,0.0217241086065769,-0.0190806668251752,standing,2026-03-04_13-57-37
1772632659622307600,2.5673076171875,-0.1665446436906233,-0.0024503157615661,-0.2072387288570404,0.0154375992715358,0.0316835269331932,-0.0142311211675405,standing,2026-03-04_13-57-37
1772632659632256800,2.5772568359375,-0.1112572388958185,0.0586111789226532,-0.2687625803560018,0.0493436343967914,0.0358990468084812,-0.0112907253205776,standing,2026-03-04_13-57-37
1772632659642205700,2.587205810546875,-0.0907208660192787,0.0946719417326152,-0.1444230839818716,0.0614028386771678,-0.0044775390997529,-0.0185688491910696,standing,2026-03-04_13-57-37
1772632659652153900,2.59715380859375,-0.0846308055158704,0.0350644452489912,0.0585930587440729,0.0600432939827442,-0.0522948652505874,-0.0266683213412761,standing,2026-03-04_13-57-37
1772632659662102800,2.607102783203125,-0.0963802434878423,-0.0180069274641573,0.1053495492219924,0.0531940385699272,-0.0382645279169082,-0.0286962483078241,standing,2026-03-04_13-57-37
1772632659672051700,2.6170517578125,-0.1227388927770778,0.0101034608632326,0.0231710322290658,0.0409179329872131,-0.0087340669706463,-0.0329690240323543,standing,2026-03-04_13-57-37
1772632659682001000,2.6270009765625,-0.1692256994681432,0.0494864999637007,0.0789753370374441,0.0180358737707138,0.0008714199066162,-0.0319768413901329,standing,2026-03-04_13-57-37
1772632659691948500,2.636948486328125,-0.1059699096100404,0.0536145396791398,0.197063956323266,-0.012947873212397,-0.026992967352271,-0.0258664861321449,standing,2026-03-04_13-57-37
1772632659701898000,2.64689794921875,-0.0351683074822649,0.026401830843836,0.2210883905112743,-0.0201666969805955,-0.0119990995153784,-0.0143777765333652,standing,2026-03-04_13-57-37
1772632659711847000,2.656846923828125,-0.0270591257087886,0.0647166561909019,0.0302075067371129,-0.0063986862078309,0.0257323011755943,-0.0089742224663496,standing,2026-03-04_13-57-37
1772632659721795800,2.6667958984375,-0.1102308184575289,0.1161754791408777,-0.150843472418189,0.0124997682869434,0.0304851047694683,-0.0224664993584156,standing,2026-03-04_13-57-37
1772632659731744800,2.676744873046875,-0.1666056166302412,0.0818228354230523,-0.1156909104943275,0.0204602237790823,-0.0017481986433267,-0.0371229387819767,standing,2026-03-04_13-57-37
1772632659741692700,2.686692626953125,-0.1274517466431483,-0.0112090840175747,-0.022303601744771,0.0240762196481227,-0.0329387411475181,-0.0413783490657806,standing,2026-03-04_13-57-37
1772632659751641900,2.696641845703125,-0.02538845255021,-0.0116958446212112,0.0199608380109071,0.0243848785758018,-0.0377918183803558,-0.0344634503126144,standing,2026-03-04_13-57-37
1772632659761590800,2.7065908203125,0.0081437781628221,0.0521105648569762,-0.0122591775923967,0.0186238586902618,-0.034419722855091,-0.0277364030480384,standing,2026-03-04_13-57-37
1772632659771539700,2.716539794921875,0.0041446985892951,0.0931618294306099,0.0084627079188823,0.0093600545078516,-0.0351273231208324,-0.0225749313831329,standing,2026-03-04_13-57-37
1772632659781488600,2.726488525390625,0.0052978141471743,0.0767073921054601,0.0060784431308507,0.0016382113099098,-0.0124670229852199,-0.0127469971776008,standing,2026-03-04_13-57-37
1772632659791436800,2.736436767578125,0.0151965462185442,0.0884757174409925,-0.0183089791506528,-0.0011823424138128,0.0135371470823884,-0.001764919841662,standing,2026-03-04_13-57-37
1772632659801386000,2.746385986328125,-0.0294209960019215,0.1050130107440054,0.022814473876357,-0.0003509633243083,0.0165095068514347,-0.0053861876949667,standing,2026-03-04_13-57-37
1772632659811335000,2.7563349609375,-0.0843684647852554,0.065653790910542,0.0500315666258335,0.0046515185385942,-0.005930820479989,-0.0107684358954429,standing,2026-03-04_13-57-37
1772632659821283800,2.766283935546875,-0.0922515827178955,0.037167701138556,0.0147398884922266,0.0166702233254909,-0.0101073216646909,-0.0079492414370179,standing,2026-03-04_13-57-37
1772632659831232800,2.776232666015625,-0.0019953385356813,0.1122267415151,-0.0420014049053192,0.0286248885095119,-7.22645781934e-05,-0.000163490185514,standing,2026-03-04_13-57-37
1772632659841181000,2.786180908203125,0.0407129359973594,0.1615185956895351,-0.0088239424467086,0.0326925218105316,0.0030416359659284,0.0090543124824762,standing,2026-03-04_13-57-37
1772632659851129900,2.7961298828125,0.0582289016067981,0.1439053437180817,0.0965858125299215,0.02436188980937,-0.0302428174763917,0.0081363208591938,standing,2026-03-04_13-57-37
1772632659861078800,2.806078857421875,0.0011283464428037,0.0975277695551514,0.1829512598186731,0.0134941972792148,-0.0522075071930885,0.0028844969347119,standing,2026-03-04_13-57-37
1772632659871027700,2.81602783203125,-0.0375583809565752,0.0702713677085936,0.1192079787045717,0.0071923583745956,-0.0366746224462986,0.0061197043396532,standing,2026-03-04_13-57-37
1772632659880975600,2.8259755859375,-0.0497619924368336,0.1136801551938056,0.0309545257121324,-0.0010149641893804,-0.0081088878214359,0.011130541563034,standing,2026-03-04_13-57-37
1772632659890924800,2.8359248046875,-0.0568069425122812,0.1433075239554047,0.0308007964551448,-0.0154809895902872,-0.0057274894788861,0.0094697941094636,standing,2026-03-04_13-57-37
1772632659900873700,2.845873779296875,-0.0510103119974955,0.0768944391101598,0.0715431412100792,-0.0233768299221992,-0.006128029897809,0.0143297128379344,standing,2026-03-04_13-57-37
1772632659910823000,2.855822998046875,-0.0343776685612276,0.0388867800161242,0.0121890349656343,-0.0212353821843862,0.0144142638891935,0.0180267114192247,standing,2026-03-04_13-57-37
1772632659920771800,2.865771728515625,-0.0673672802975401,0.0825780377045273,-0.0506032290339469,-0.0115004908293485,0.0195930451154708,0.0147843267768621,standing,2026-03-04_13-57-37
1772632659930719700,2.8757197265625,-0.1086418687656521,0.0638954029358923,-0.0260264216601848,0.0037461053580045,-0.0034483596682548,0.005775652360171,standing,2026-03-04_13-57-37
1772632659940669000,2.8856689453125,-0.1301390860309824,-0.0148832424856722,-0.0390185897022485,0.0196414776146411,-0.0275305230170488,-0.0075377696193754,standing,2026-03-04_13-57-37
1772632659950617900,2.895617919921875,-0.1150679928230121,-0.0155761931858956,-0.0279056595355272,0.0292174071073532,-0.035803634673357,-0.0095995888113975,standing,2026-03-04_13-57-37
1772632659960566800,2.90556689453125,-0.114426443516463,0.0403147669926285,0.0141302321612834,0.0280306972563266,-0.0419892258942127,-0.0076827444136142,standing,2026-03-04_13-57-37
1772632659970515700,2.915515625,-0.0783995099108666,0.0582432223930954,0.0603489625006914,0.0185908544808626,-0.0539044737815856,0.0010375103447586,standing,2026-03-04_13-57-37
1772632659980463600,2.925463623046875,-0.0397756186146289,0.047093175086379,0.1013175172269344,0.009098581969738,-0.0439226813614368,0.0059315874241292,standing,2026-03-04_13-57-37
1772632659990412800,2.935412841796875,-0.0623789704909548,0.07156491465047,0.0240969149023294,0.0054455231875181,-0.0124726109206676,0.0076011237688362,standing,2026-03-04_13-57-37
1772632660000361700,2.94536181640625,-0.1618768345426768,0.07509440395087,-0.0611129326105117,0.0040335548110306,0.0151696652173995,0.0004642298445105,standing,2026-03-04_13-57-37
1772632660010310700,2.955310546875,-0.199919016960822,0.0321643398933112,-0.0475894341707229,-0.00135481916368,0.0237101577222347,-0.0075444281101226,standing,2026-03-04_13-57-37
1772632660020259800,2.965259765625,-0.1690136641526594,-0.0130113111339509,0.0194540575325489,-0.0064300261437892,0.0137699088081717,-0.0122263208031654,standing,2026-03-04_13-57-37
1772632660030208000,2.9752080078125,-0.1500599938903004,-0.0420988739304244,0.1033814640194177,-0.0116950953379273,-0.0049960548058152,-0.0160080101341009,standing,2026-03-04_13-57-37
1772632660040157000,2.985156982421875,-0.1291052129385992,-0.0462030943788588,0.1356897424280643,-0.0155522264540195,-0.0378866307437419,-0.0233003050088882,standing,2026-03-04_13-57-37
1772632660050105900,2.99510595703125,-0.1016674631757661,-0.0439675904117524,0.1399877318829298,-0.0125846657902002,-0.0713433846831321,-0.0289643183350563,standing,2026-03-04_13-57-37
1772632660060054800,3.0050546875,-0.1036803373681381,-0.0488837117649614,0.0223901109844446,0.0047593885101377,-0.0755246803164482,-0.0324327610433101,standing,2026-03-04_13-57-37
1772632660070002700,3.015002685546875,-0.1404781822809949,0.0074868486240506,-0.2221639107882976,0.0299592837691307,-0.0491308942437171,-0.0356045849621295,standing,2026-03-04_13-57-37
1772632660079952000,3.024951904296875,-0.1471028976503759,0.0742959470495581,-0.3453688501745462,0.0480896644294261,-0.0117627428844571,-0.0355792716145515,standing,2026-03-04_13-57-37
1772632660089900800,3.03490087890625,-0.1158832547286525,0.1210502455703914,-0.3202484374433755,0.0492585264146328,0.0113324560225009,-0.0350940451025962,standing,2026-03-04_13-57-37
1772632660099849700,3.044849609375,-0.0700463267810642,0.0994593221396207,-0.1700222201406955,0.0391204357147216,0.0263651944696903,-0.028462590649724,standing,2026-03-04_13-57-37
1772632660109798700,3.054798583984375,-0.0078610156986862,0.0682595894947648,-0.0094295071244239,0.0211728606373071,0.0274789277464151,-0.0268670916557312,standing,2026-03-04_13-57-37
1772632660119746600,3.06474658203125,0.0230213215600699,0.056468613936007,0.1615735407471656,-0.0071493247523903,0.0159133523702621,-0.0230398625135421,standing,2026-03-04_13-57-37
1772632660129695700,3.07469580078125,0.0125737599669024,0.0464224362179636,0.2743932797193527,-0.0314992107450962,-0.0053174989297986,-0.0173388347029685,standing,2026-03-04_13-57-37
1772632660139645000,3.08464501953125,0.0171228015733882,0.0554589985020458,0.2723404388427734,-0.0452935807406902,-0.0102343577891588,-0.0137690342962741,standing,2026-03-04_13-57-37
1772632660149593900,3.09459375,0.0174219671830534,0.0931808263920247,0.1453904677093029,-0.0395731106400489,0.0130206309258937,-0.0031022750772535,standing,2026-03-04_13-57-37
1772632660159542800,3.104542724609375,-0.0384245693318545,0.1447688286796212,0.0069447045713663,-0.021691296249628,0.0254089869558811,-0.003986220806837,standing,2026-03-04_13-57-37
1772632660169490700,3.11449072265625,-0.1165345947768539,0.1417287303313613,0.00117488899827,-0.0103196008130908,0.0082787368446588,-0.0092251915484666,standing,2026-03-04_13-57-37
1772632660179439900,3.12443994140625,-0.1035351567437872,0.0676625003844499,0.0446346760183572,0.0039543528109788,-0.0027976110577583,-0.0032446975819766,standing,2026-03-04_13-57-37
1772632660189388800,3.134388916015625,0.0079239248670637,0.0634400603838264,0.0904933408737182,0.0121228005737066,-0.0219563916325569,9.65043436735e-05,standing,2026-03-04_13-57-37
1772632660199337700,3.144337646484375,0.0073322425842285,0.0719997989363968,0.1327636258482933,0.0146658150479197,-0.0547371134161949,-0.007033129222691,standing,2026-03-04_13-57-37
1772632660209286700,3.15428662109375,-0.0779013876629993,0.034181671065092,0.1226584114193916,0.0049980077892541,-0.0907313302159309,-0.0221289899200201,standing,2026-03-04_13-57-37
1772632660219234800,3.16423486328125,-0.1424545238552615,-0.0252392168052494,0.054146600729227,-0.0088238716125488,-0.090552233159542,-0.0258315149694681,standing,2026-03-04_13-57-37
1772632660229183700,3.174183837890625,-0.0822163830515928,-0.031420535788685,-0.0744283412575721,-0.0170234777033329,-0.0433788634836673,-0.0199278183281421,standing,2026-03-04_13-57-37
1772632660239133000,3.1841328125,-0.0807899852439761,0.0233988496355712,-0.2027156984746456,-0.0262595247477293,-0.0031033426057547,-0.0144638381898403,standing,2026-03-04_13-57-37
1772632660249081900,3.194081787109375,-0.074414093536511,0.0826285988479852,-0.2339011103332042,-0.0239883828908205,0.0134676443412899,-0.0020668234210461,standing,2026-03-04_13-57-37
1772632660259030800,3.20403076171875,-0.0168486973397433,0.0785974436357617,-0.2465565937668085,-0.0096153393387794,0.0369306206703186,0.0108224274590611,standing,2026-03-04_13-57-37
1772632660268979000,3.21397900390625,0.0077159264058806,0.0829967015080153,-0.3150134593993425,0.0197971444576978,0.0612881556153297,0.0202976875007152,standing,2026-03-04_13-57-37
1772632660278928000,3.223927978515625,-0.057816448348388,0.0838400204643607,-0.2917816368937492,0.0486749932169914,0.0521326102316379,0.0168221648782491,standing,2026-03-04_13-57-37
1772632660288876800,3.233876708984375,-0.0848349863184615,0.0437735291443765,-0.1111801550716161,0.0591207109391689,-0.0067839659750461,-0.0015328743029385,standing,2026-03-04_13-57-37
1772632660298825700,3.24382568359375,-0.119570272678323,-0.050460459562391,0.1027870052576065,0.0541481487452983,-0.057957537472248,-0.0213446766138076,standing,2026-03-04_13-57-37
1772632660308773600,3.253773681640625,-0.122182373139169,-0.1421595229640603,0.1972825675100088,0.0385931581258773,-0.059659831225872,-0.0324074476957321,standing,2026-03-04_13-57-37
1772632660318722800,3.263722900390625,-0.116203316995874,-0.0941141617193818,0.1968324856549501,0.0178461372852325,-0.0207166988402605,-0.0341130346059799,standing,2026-03-04_13-57-37
1772632660328671700,3.273671630859375,-0.1040796023514121,-0.0193617030739784,0.1322398942351341,-0.0041779372841119,0.0182631909847259,-0.0286391712725162,standing,2026-03-04_13-57-37
1772632660338620700,3.28362060546875,-0.0659876442410983,0.0362935486525297,0.1209866788148879,-0.0223670993000268,0.0403011254966259,-0.0187539663165807,standing,2026-03-04_13-57-37
1772632660348569900,3.29356982421875,0.0071195679479278,0.0517227345831692,0.115863344451785,-0.0269384160637855,0.0494589358568191,-0.0075420588254928,standing,2026-03-04_13-57-37
1772632660358517800,3.303517822265625,0.0140161407949402,0.0924767697758972,0.096219317305088,-0.0240350700914859,0.0423544161021709,-0.0061036720871925,standing,2026-03-04_13-57-37
1772632660368467000,3.313467041015625,-0.0724367290489375,0.1263543433278799,0.0832587134450674,-0.0141379628330469,0.0168035179376602,-0.0124678276479244,standing,2026-03-04_13-57-37
1772632660378415900,3.323415771484375,-0.0775410299180075,0.0980970938757061,0.0887608179926872,-0.0023159505799412,-0.0032025489490479,-0.0136626763269305,standing,2026-03-04_13-57-37
1772632660388364800,3.33336474609375,-0.013841368749924,0.0793080761231482,0.1021732572734355,0.0083390902727842,-0.019291503354907,-0.0160880163311958,standing,2026-03-04_13-57-37
1772632660398313700,3.343313720703125,-0.0230744765194132,0.0962022200398147,0.0953618236929178,0.0128283323720097,-0.0573278367519378,-0.0219611283391714,standing,2026-03-04_13-57-37
1772632660408262000,3.353261962890625,-0.0465159049213863,0.0821072053223848,0.0396516269087791,0.0180744938552379,-0.0682774260640144,-0.0222567394375801,standing,2026-03-04_13-57-37
1772632660418210800,3.3632109375,0.0092259839089587,0.1193688683547079,-0.0469435374826192,0.0162447094917297,-0.0424137338995933,-0.0117407850921154,standing,2026-03-04_13-57-37
1772632660428159700,3.37315966796875,0.0569447070151567,0.1778062981456518,-0.1003559787183999,0.0095681641250848,-0.000683864345774,0.0070025422610342,standing,2026-03-04_13-57-37
1772632660438108700,3.383108642578125,0.0586021918985992,0.2031238408841192,-0.1111234564483165,-0.0132350586354732,0.0071542169898748,0.0115482779219746,standing,2026-03-04_13-57-37
1772632660448057600,3.3930576171875,0.0029021694486029,0.1439599965147674,-0.0275619606643915,-0.0322577506303787,0.0038092869799584,0.0160689949989318,standing,2026-03-04_13-57-37
1772632660458005800,3.403005859375,-0.0020216237544082,0.0891359349153935,-0.0471177250057458,-0.0329882316291332,0.0344428271055221,0.0240753125399351,standing,2026-03-04_13-57-37
1772632660467955000,3.412954833984375,-0.0129123260051943,0.1148228954881429,-0.1677004991948604,-0.0242852866649627,0.063128538429737,0.0295667499303817,standing,2026-03-04_13-57-37
1772632660477904000,3.42290380859375,-0.034907044463884,0.1321918173097074,-0.1785696837335824,-0.0068817976862192,0.0632997751235961,0.0351420789957046,standing,2026-03-04_13-57-37
1772632660487852800,3.432852783203125,-0.0249426084788516,0.076385028283298,-0.1112964749276638,0.015424839220941,0.0385819151997566,0.0336041040718555,standing,2026-03-04_13-57-37
1772632660497800700,3.44280078125,-0.035567243671976,-0.007390987034142,-0.047796354919672,0.0302848443388938,0.0083224140107631,0.0256257206201553,standing,2026-03-04_13-57-37
1772632660507750000,3.45275,-0.0976573872841894,-0.0372559639438986,0.0614092852085828,0.0372199825942516,-0.0238538980484008,0.0153150260448455,standing,2026-03-04_13-57-37
1772632660517698800,3.46269873046875,-0.1420703103106468,-0.0789537097275257,0.1671358510494232,0.0305271185934543,-0.0484167672693729,0.0048040333203971,standing,2026-03-04_13-57-37
1772632660527647700,3.472647705078125,-0.1321543348435312,-0.115372930586338,0.1772381428688764,0.0212337505072355,-0.0466268584132194,0.0022087828256189,standing,2026-03-04_13-57-37
1772632660537596700,3.4825966796875,-0.1619026265710592,-0.0790714908882975,0.1186070902019739,0.0087714958935976,-0.0268440954387187,-0.0070319231599569,standing,2026-03-04_13-57-37
1772632660547544800,3.492544921875,-0.2285050417096354,-0.0581530598916113,0.1070242044359445,-0.008257289417088,-0.0155983632430434,-0.0186060220003128,standing,2026-03-04_13-57-37
1772632660557493800,3.50249365234375,-0.213345192505978,-0.0547075956128537,0.0808364547342062,-0.0231002252548933,0.0044769430533051,-0.0226278565824031,standing,2026-03-04_13-57-37
1772632660567442700,3.512442626953125,-0.1830675431421026,-0.03590133446455,0.0290823020994663,-0.0216645151376724,0.0364881381392478,-0.0226994957774877,standing,2026-03-04_13-57-37
1772632660577391900,3.522391845703125,-0.1618472796546295,0.0412188762255013,-0.0414139604061842,-0.0116609828546643,0.0501245893537998,-0.0207416228950023,standing,2026-03-04_13-57-37
1772632660587340800,3.5323408203125,-0.1053250358352437,0.0884368467353284,-0.0543055906832218,-0.0029609678313136,0.0254948753863573,-0.0227310042828321,standing,2026-03-04_13-57-37
1772632660597289000,3.5422890625,-0.0465325089963152,0.1037504434622824,0.0414209746688604,0.002550805453211,-0.006352936848998,-0.0178459845483303,standing,2026-03-04_13-57-37
1772632660607238000,3.55223779296875,0.0183237383283674,0.1089418746255338,0.1088829840451478,0.0033809125889092,-0.0217215064913034,-0.0120725166052579,standing,2026-03-04_13-57-37
1772632660617186800,3.562186767578125,0.0142742802744731,0.1237881461016833,0.1301496439576148,0.0013055643066763,-0.0238684099167585,-0.013828732073307,standing,2026-03-04_13-57-37
1772632660627135700,3.5721357421875,-0.0165258951261639,0.132166390607506,0.1229226153135299,-0.0053603281266987,-0.0301457475870847,-0.0149467270821332,standing,2026-03-04_13-57-37
1772632660637084700,3.582084716796875,-0.0230421999513171,0.1272610829092562,0.1260088908910751,-0.0143388900905847,-0.0234605520963668,-0.0070736650377511,standing,2026-03-04_13-57-37
1772632660647032800,3.59203271484375,0.0670659227307885,0.1377067813389003,0.0899620104759931,-0.0186806414276361,-0.0047654272057116,0.0089609613642096,standing,2026-03-04_13-57-37
1772632660656981800,3.601981689453125,0.0907703677168115,0.1489918532021343,0.0522474891096353,-0.0190422758460044,0.014887236058712,0.0179495494812726,standing,2026-03-04_13-57-37
1772632660666930700,3.6119306640625,0.0516170822516083,0.1519105171278119,0.0294704246342182,-0.0192209742963314,0.0088178925216197,0.0177495460957288,standing,2026-03-04_13-57-37
1772632660676879600,3.621879638671875,0.0066197286670096,0.0859914994098246,0.0564484479308128,-0.024106616154313,-0.0165962539613246,0.0112941144034266,standing,2026-03-04_13-57-37
1772632660686828500,3.63182861328125,-0.0437444857129827,0.0043785073451697,0.1007026001989841,-0.0363220013678073,-0.0481736212968826,-0.0006642775842919,standing,2026-03-04_13-57-37
1772632660696776700,3.641776611328125,-0.0785656054590828,-0.0024329262353479,0.1057242277532816,-0.0476064570248127,-0.0729633867740631,-0.0105805015191435,standing,2026-03-04_13-57-37
1772632660706726000,3.651725830078125,-0.0581289848962798,0.0258783914916217,-0.0008715221375226,-0.0544015131890773,-0.0575279705226421,-0.002205392345786,standing,2026-03-04_13-57-37
1772632660716674800,3.6616748046875,0.0104133853289298,0.123608844012022,-0.2056897458493709,-0.0565095692873001,-0.0011350002605468,0.0175465587526559,standing,2026-03-04_13-57-37
1772632660726623700,3.671623779296875,0.0174522161908447,0.2316910330682992,-0.3275719121992588,-0.0609940662980079,0.0503476299345493,0.0357340835034847,standing,2026-03-04_13-57-37
1772632660736572000,3.681572021484375,0.0154171484329737,0.2074362972557544,-0.301412804070115,-0.0553408861160278,0.0799125805497169,0.0525399446487426,standing,2026-03-04_13-57-37
1772632660746520800,3.691520751953125,0.019720617780555,0.1337310095757246,-0.2500602179735899,-0.0385877415537834,0.0964276418089866,0.0538528859615325,standing,2026-03-04_13-57-37
1772632660756469800,3.7014697265625,-0.0779351803347468,0.0812353909239173,-0.2140700361818075,-0.0115177286788821,0.0951427966356277,0.0445123240351676,standing,2026-03-04_13-57-37
1772632660766418700,3.711418701171875,-0.1572424527402967,0.0252742881186306,-0.1043348192214965,0.0116041023284196,0.0587091520428657,0.0288239102810621,standing,2026-03-04_13-57-37
1772632660776367600,3.72136767578125,-0.1709029119653627,-0.0534811225578188,0.0691647216409444,0.0265637040138244,0.0032790510449558,0.016544060781598,standing,2026-03-04_13-57-37
1772632660786315800,3.731315673828125,-0.1140097890069708,-0.113958241482824,0.1905722562164068,0.0356368273496627,-0.0542841106653213,0.0092179700732231,standing,2026-03-04_13-57-37
1772632660796264700,3.7412646484375,-0.0562253614983521,-0.1111835160724818,0.2568319040656089,0.039929449558258,-0.0969376936554908,0.0164880361407995,standing,2026-03-04_13-57-37
1772632660806213600,3.751213623046875,0.0267982097502797,-0.0291997909992933,0.2465133391469716,0.0410748720169067,-0.1185037046670913,0.0235789697617292,standing,2026-03-04_13-57-37
1772632660816162800,3.761162841796875,0.053985090024583,0.0352215355068445,0.1613636973887681,0.0418493039906024,-0.1066965833306312,0.0194045323878526,standing,2026-03-04_13-57-37
1772632660826111700,3.77111181640625,-0.1079588001386262,0.0012454700164496,0.0185737675666809,0.033753827214241,-0.0690064653754234,0.0074578588828444,standing,2026-03-04_13-57-37
1772632660836060000,3.781059814453125,-0.2087102261817082,0.0133520873956382,-0.0545616112709045,0.0181626658886671,-0.0304874349385499,-0.0019375630654394,standing,2026-03-04_13-57-37
1772632660846008800,3.7910087890625,-0.1783582877389155,0.0072463178664445,-0.078326517739892,0.0016625188291072,0.011506088078022,-0.0003705590497702,standing,2026-03-04_13-57-37
1772632660855957800,3.800957763671875,-0.096131967815198,0.0192427528694272,-0.0696259094119071,-0.0128428228199481,0.037420243024826,0.0008836076594889,standing,2026-03-04_13-57-37
1772632660865906700,3.81090673828125,-0.0740985795802436,0.0324690219283103,-0.016768179449439,-0.0236901454627513,0.0430871844291687,0.0013651070185005,standing,2026-03-04_13-57-37
1772632660875855600,3.820855712890625,-0.0615109737510792,-0.0075067223682999,0.0308475582063198,-0.0308059323579072,0.0248258914798498,-0.0017530755139887,standing,2026-03-04_13-57-37
1772632660885803800,3.8308037109375,-0.0646060719558969,-0.0355061976671218,0.0625835896849632,-0.0307577308267354,-0.0162464436143636,-0.0059403637424111,standing,2026-03-04_13-57-37
1772632660895752700,3.840752685546875,-0.053457595551759,-0.0428906088300049,-0.00555763412714,-0.0085378624498844,-0.0379155166447162,-0.0084154633805155,standing,2026-03-04_13-57-37
1772632660905701600,3.85070166015625,-0.0388412238413468,-0.0067709554396569,-0.1668394984513521,0.0173648409545421,-0.0237629488110542,-0.0107433330267667,standing,2026-03-04_13-57-37
1772632660915650600,3.860650634765625,-0.0896001000947318,0.0649305912025272,-0.2674783857643604,0.0381416268646717,-0.0144275091588497,-0.0121217845007777,standing,2026-03-04_13-57-37
1772632660925599700,3.870599853515625,-0.0863238183704204,0.0789269678510725,-0.2620037537455558,0.0498153306543827,0.0022697115782648,-0.0100176213309168,standing,2026-03-04_13-57-37
1772632660935548000,3.8805478515625,-0.0354743229578249,0.067199851308763,-0.2107628113299608,0.0539295747876167,0.0251824837177991,-0.0019518036860972,standing,2026-03-04_13-57-37
1772632660945496800,3.890496826171875,-0.0141090432427823,0.072374185206741,-0.1193371580421924,0.0501404292881488,0.0331740975379943,0.0084712756797671,standing,2026-03-04_13-57-37
1772632660955445800,3.90044580078125,0.0103441742839291,0.0753894413746893,-0.0044312604457139,0.0399336293339729,0.0218571312725543,0.011846650391817,standing,2026-03-04_13-57-37
1772632660965394700,3.910394775390625,0.0291819813479669,0.0204800395794212,0.1079524251967668,0.0327231176197528,0.0175145808607339,0.0234660226851701,standing,2026-03-04_13-57-37
1772632660975342800,3.9203427734375,0.0179777379022911,0.005623831231147,0.1159890166580677,0.0255248341709375,0.0020524009596556,0.0176577810198068,standing,2026-03-04_13-57-37
1772632660985291800,3.930291748046875,-0.0790801491187885,-0.0056095104448497,0.1400502757251262,0.0213508624583482,-0.0177165102213621,0.0025382158346474,standing,2026-03-04_13-57-37
1772632660995240700,3.94024072265625,-0.1360492599228397,-0.0673195321656763,0.1321972241371869,0.0167003981769084,-0.0209441296756267,-0.0094778407365083,standing,2026-03-04_13-57-37
1772632661005189600,3.950189697265625,-0.1303635789692401,-0.0703213443301618,0.1057376717567443,0.006951896008104,-0.0133898071944713,-0.0121966619044542,standing,2026-03-04_13-57-37
1772632661015138600,3.960138671875,-0.1199606785017065,-0.0332671865686774,0.0734931062340736,0.0073117865249514,-0.0008340675849467,-0.0115326521918177,standing,2026-03-04_13-57-37
1772632661025086700,3.970086669921875,-0.095161935472954,0.0328008842311799,0.0219067113816738,0.0055972435511648,0.0173710342496633,-0.0018472678493708,standing,2026-03-04_13-57-37
1772632661035035600,3.98003564453125,-0.0346843233576044,0.0616189824365079,0.0231692786633968,0.0022812974639236,0.0144387641921639,0.0022607143037021,standing,2026-03-04_13-57-37
1772632661044984800,3.98998486328125,-0.0129785596418194,0.0657023062273859,0.043318332722783,0.0032629386987537,0.0016111151780933,0.0009328622836619,standing,2026-03-04_13-57-37
1772632661054933800,3.999933837890625,-0.0553692013267427,0.0489313502989709,0.045196401554346,0.0045165130868554,-0.0052064433693885,-0.001079267822206,standing,2026-03-04_13-57-37
1772632661064882700,4.009882568359375,-0.0500377589046023,0.063443713645637,0.0370440747588872,0.0063583552837371,-0.0124699492007493,-0.0064442055299878,standing,2026-03-04_13-57-37
1772632661074830800,4.019830810546875,-0.0616531952333636,0.0566613600291311,0.0227560216873884,0.0060490844771265,-0.0157813262194395,-0.0072626234032213,standing,2026-03-04_13-57-37
1772632661084779800,4.02977978515625,-0.0547197244420647,0.0795681883640587,0.0186772279411554,0.0039206859655678,-0.0084222126752138,-0.0019424266647547,standing,2026-03-04_13-57-37
1772632661094728700,4.039728759765625,-0.0257663824845105,0.0928150618195533,-0.0108516488820314,0.0045942226424813,0.0037415078841149,0.0020164186134934,standing,2026-03-04_13-57-37
1772632661104677600,4.049677734375,-0.0150193447544239,0.1051166172489523,-0.0414770887702703,0.0062139574438333,0.0162090957164764,0.0103004472330212,standing,2026-03-04_13-57-37
1772632661114626600,4.05962646484375,0.0232596786268986,0.0860100579798221,-0.0302887552797794,0.0105825830250978,0.0290705673396587,0.0183916073292493,standing,2026-03-04_13-57-37
1772632661124574700,4.06957470703125,0.0733697903816588,0.1059757182963192,-0.00615443097651,0.0110747357830405,0.0299254432320594,0.0242359135299921,standing,2026-03-04_13-57-37
1772632661134523600,4.079523681640625,0.0670731379228644,0.0795370625734329,0.0749070646852254,0.0086461259052157,0.0067779119126498,0.0262583885341882,standing,2026-03-04_13-57-37
1772632661144472800,4.089472900390625,0.0524729318959638,0.0001693652175366,0.172149295297265,0.0010502580553293,-0.0279576983302831,0.0191038064658641,standing,2026-03-04_13-57-37
1772632661154421800,4.099421875,-0.0043961708660237,-0.0387692911162972,0.1938794810682535,-0.0064910068176686,-0.0575113259255886,0.0104431370273232,standing,2026-03-04_13-57-37
1772632661164370000,4.109369873046875,-0.0342221674722619,-0.0006529109507799,0.1509562851428985,-0.0105989314615726,-0.0616512075066566,0.0092164846137166,standing,2026-03-04_13-57-37
1772632661174318800,4.11931884765625,-0.0503312802247703,0.0408475586950779,0.0162485394895076,-0.0051700631156563,-0.0296803638339042,0.0131270280107855,standing,2026-03-04_13-57-37
1772632661184267800,4.129267822265625,-0.0717869416370056,0.1027237307630479,-0.1433440565735101,0.0031850717496126,0.0098513327538967,0.0268484335392713,standing,2026-03-04_13-57-37
1772632661194216700,4.139216796875,-0.0734603547419421,0.1442955120794475,-0.1922872434407472,0.0123520605266094,0.030364466831088,0.0365497693419456,standing,2026-03-04_13-57-37
1772632661204165600,4.14916552734375,-0.0692363621050491,0.1304711309969425,-0.1450035142183303,0.0189447160810232,0.0299961511045694,0.0386779010295867,standing,2026-03-04_13-57-37
1772632661214113800,4.15911376953125,-0.0853744452237151,0.0796652189977467,-0.0388882413208484,0.0270261764526367,0.0203560404479503,0.0403504520654678,standing,2026-03-04_13-57-37
1772632661224062700,4.169062744140625,-0.0982995941778644,0.0401559231691062,0.0445990201830863,0.0277665350586175,-0.0122370570898056,0.0370483994483947,standing,2026-03-04_13-57-37
1772632661234011600,4.17901171875,-0.0958212396319024,0.0273702374845743,0.1388134274065494,0.0265428572893142,-0.043703906238079,0.0285698026418685,standing,2026-03-04_13-57-37
1772632661243960600,4.188960693359375,-0.1048190225418657,-0.008696516674757,0.1004910032749176,0.0275503322482109,-0.0360547751188278,0.0235417541116476,standing,2026-03-04_13-57-37
1772632661253909800,4.19890966796875,-0.1197642243478447,-0.0031138942368328,0.0305570508271455,0.0232656467705965,-0.0078239338472485,0.024893868714571,standing,2026-03-04_13-57-37
1772632661263857700,4.208857666015625,-0.0976040496617555,0.034710517244786,0.0321311682760715,0.0061316667124629,0.0021173802670091,0.0238041039556264,standing,2026-03-04_13-57-37
1772632661273806800,4.218806884765625,-0.0647130394617095,0.0091425068765878,0.1397007316350937,-0.0188372358679771,-0.00144126964733,0.0241186097264289,standing,2026-03-04_13-57-37
1772632661283755800,4.228755859375,-0.0585968946689739,-0.0342502062566578,0.2116039383292198,-0.0436781384050846,0.0004437156021595,0.0247817374765872,standing,2026-03-04_13-57-37
1772632661293704700,4.23870458984375,-0.0569693847986869,-0.0341772871509194,0.179495566406846,-0.0594744384288787,0.0093450667336583,0.022142220288515,standing,2026-03-04_13-57-37
1772632661303653600,4.248653564453125,-0.0970670932408422,-0.0338220439724624,0.1490413914322853,-0.0648614764213562,0.0053236931562423,0.0171807501465082,standing,2026-03-04_13-57-37
1772632661313601800,4.258601806640625,-0.0862839247514493,-0.0334938349314034,0.0556762945145368,-0.0507635958492755,0.0070444964803755,0.017230300232768,standing,2026-03-04_13-57-37
1772632661323550700,4.26855078125,-0.0404565866161137,-0.0156928053028881,-0.124442372226715,-0.0163805875927209,0.0099614560604095,0.0195805393159389,standing,2026-03-04_13-57-37
1772632661333499600,4.278499755859375,-0.0403962712636217,0.0644642888650298,-0.2239782667338848,0.0152583681046962,0.0041387202218174,0.0195492133498191,standing,2026-03-04_13-57-37
1772632661343448600,4.288448486328125,-0.0261168033573776,0.0659980743035674,-0.2066115368694067,0.0423973090946674,-0.014293017797172,0.0188991352915763,standing,2026-03-04_13-57-37
1772632661353397500,4.2983974609375,-0.014469729781337,0.0182682087488472,-0.1459960323870182,0.0575616881251335,-0.0211380086839199,0.0103098377585411,standing,2026-03-04_13-57-37
1772632661363345700,4.308345703125,-0.0776733875934034,-0.0138600369177758,-0.1233335342019796,0.0510862134397029,-0.0122630223631858,0.0027765543200075,standing,2026-03-04_13-57-37
1772632661373294800,4.318294921875,-0.1162126145471818,-0.0053439913764595,-0.0331499899297952,0.0319142378866672,-0.0105408914387226,0.0023901720996946,standing,2026-03-04_13-57-37
1772632661383243800,4.328243896484375,-0.0641944772140123,-0.002926116579771,0.0576648379832506,0.0114662200212478,-0.0100484732538461,0.0097958901897072,standing,2026-03-04_13-57-37
1772632661393192700,4.338192626953125,-0.0039123694044537,-0.0125775958918035,0.0747135879397392,-0.0062915910966694,-0.0060504009015858,0.012507745064795,standing,2026-03-04_13-57-37
1772632661403141600,4.3481416015625,-0.0226793762546032,0.0340348099403083,0.0527747278541326,-0.016244089230895,-0.00854152161628,0.015337886288762,standing,2026-03-04_13-57-37
1772632661413089800,4.35808984375,-0.0598790251676924,0.0574552868857979,0.0083405428439378,-0.0164182372391223,-0.0056278901174664,0.0200776681303977,standing,2026-03-04_13-57-37
1772632661423038700,4.368038818359375,-0.0648234958325512,0.0571282468885183,-0.1087771855831146,-0.0074726776219904,0.0155908465385437,0.017494935542345,standing,2026-03-04_13-57-37
1772632661432987600,4.377987548828125,-0.0981489336607977,0.06465498913154,-0.194324302226305,0.010783651843667,0.0493622571229934,0.0170048978179693,standing,2026-03-04_13-57-37
1772632661442936600,4.3879365234375,-0.1617673462862149,0.0890343742370605,-0.2164239058315754,0.0204296223819255,0.0618447586894035,0.0098364688456058,standing,2026-03-04_13-57-37
1772632661452884700,4.397884765625,-0.1715513476704247,0.0602516396060585,-0.0923982977122068,0.0198222082108259,0.0473692826926708,0.0031691188924014,standing,2026-03-04_13-57-37
1772632661462833700,4.407833740234375,-0.1171686183640733,0.0156641637302935,0.0812988115489482,0.0113533558323979,0.0225076079368591,0.0056370696984231,standing,2026-03-04_13-57-37
1772632661472782600,4.417782470703125,-0.0487042452785186,-0.0013978840991854,0.1842430531948804,0.0055063553154468,0.0096409423276782,0.0087033500894904,standing,2026-03-04_13-57-37
1772632661482731800,4.427731689453125,-0.0385149144964292,0.0109054248958826,0.2101817965716123,0.0050911684520542,0.0125150261446833,0.0141170239076018,standing,2026-03-04_13-57-37
1772632661492680700,4.4376806640625,-0.0597858304589055,0.0218172795325517,0.1373170513689517,0.0082420287653803,0.0047074379399418,0.0036716007161885,standing,2026-03-04_13-57-37
1772632661502628900,4.44762890625,-0.16205089420164,0.0129255325466394,0.1412725109964609,0.0073509351350367,-0.021930830553174,-0.0117313237860798,standing,2026-03-04_13-57-37
1772632661512577800,4.457577880859375,-0.1472406256206333,-0.049263066471368,0.1439163035035133,0.0081396410241723,-0.017327956855297,-0.0081799700856208,standing,2026-03-04_13-57-37
1772632661522526700,4.467526611328125,-0.0652226329516619,-0.0162462014019489,0.0670797320604324,0.0054146945476531,0.0063129235059022,0.0042250333353877,standing,2026-03-04_13-57-37
1772632661532475600,4.4774755859375,-0.0169313889208249,0.0563422110773622,0.0686859982132911,-0.001520128455013,0.0035593477077782,0.0102570382878184,standing,2026-03-04_13-57-37
1772632661542424600,4.487424560546875,-0.019400738176424,0.0397349212780594,0.1479033273130655,-0.0205425564199686,-0.02884466573596,0.0044814408756792,standing,2026-03-04_13-57-37
1772632661552372700,4.497372802734375,-0.0346799394434317,-0.0116990594916045,0.161830145856738,-0.0279700867831707,-0.020238259807229,0.0071719195693731,standing,2026-03-04_13-57-37
1772632661562321700,4.50732177734375,-0.0489120245439931,0.001292377898097,0.0458405446767807,-0.0252446085214614,0.0145101323723793,0.0123411156237125,standing,2026-03-04_13-57-37
1772632661572270600,4.5172705078125,-0.0635741533585824,0.0701974256895482,-0.0497848983883857,-0.0195091515779495,0.0350717343389987,0.0141743654385209,standing,2026-03-04_13-57-37
1772632661582219800,4.5272197265625,-0.0223575604217126,0.0681942691735923,0.0064162967830896,-0.0223800390958786,0.0176634490489959,0.0145709095522761,standing,2026-03-04_13-57-37
1772632661592168700,4.537168701171875,0.0094605050508864,0.0201085759185254,0.1242436347842216,-0.0274433344602584,0.0005449189338833,0.0168645363301038,standing,2026-03-04_13-57-37
1772632661602116900,4.547116943359375,0.0173918277731165,-0.0046150925800204,0.1514770941466093,-0.0307720191776752,-0.0012252845335751,0.0177955776453018,standing,2026-03-04_13-57-37
1772632661612065800,4.557065673828125,-0.017165709133353,0.0087042615897953,0.1094014549612999,-0.0378507263958454,-0.0282959174364805,0.0127077205106616,standing,2026-03-04_13-57-37
1772632661622014700,4.5670146484375,-0.05281334283147,0.0082438044711947,0.1275344930231571,-0.0475630089640617,-0.0602834112942218,0.0077260108664631,standing,2026-03-04_13-57-37
1772632661631964700,4.576964599609375,-0.0274688572871498,-0.0193560039855539,0.0280056127786636,-0.048556849360466,-0.0462754517793655,0.0147962141782045,standing,2026-03-04_13-57-37
1772632661641913600,4.58691357421875,-0.0395793105912394,0.0251315186470746,-0.1632744994461536,-0.0369635745882988,-0.0015258220955729,0.020671946927905,standing,2026-03-04_13-57-37
1772632661651861800,4.59686181640625,-0.1198327412731014,0.1072420849703252,-0.2817898197114467,-0.0238536167889833,0.0116479005664587,0.0189043637365102,standing,2026-03-04_13-57-37
1772632661661810700,4.606810791015625,-0.1381931948826648,0.0988029040575027,-0.2875654805034399,-0.0048876474611461,0.0086680892854928,0.0202788207679986,standing,2026-03-04_13-57-37
1772632661671759600,4.616759521484375,-0.0896729826678521,0.0644308249868452,-0.3409223921597004,0.0295114368200302,0.0313299931585788,0.0311802867799997,standing,2026-03-04_13-57-37
1772632661681708500,4.62670849609375,-0.0758722929881885,0.1195614683173596,-0.4278115710616111,0.0641048327088356,0.0516376607120037,0.0335049629211425,standing,2026-03-04_13-57-37
1772632661691657500,4.636657470703125,-0.1144056747230701,0.1175207562699914,-0.3321358591139316,0.0848519727587699,0.0362477861344814,0.0243669003248214,standing,2026-03-04_13-57-37
1772632661701605600,4.646605712890625,-0.1371649660797789,0.0380329396657645,-0.0996370167940855,0.0850479826331138,0.0023974110372364,0.0117256725206971,standing,2026-03-04_13-57-37
1772632661711554600,4.656554443359375,-0.14481243035933,-0.0407870606794953,0.0963391442924737,0.0758134797215461,-0.0120819248259067,0.0019299644045531,standing,2026-03-04_13-57-37
1772632661721503500,4.66650341796875,-0.1184046812313608,-0.0625115473620593,0.2264665764182805,0.0505299605429172,-0.0169089045375585,-0.0042160786688327,standing,2026-03-04_13-57-37
1772632661731452700,4.67645263671875,-0.1085475050130859,-0.0386985639676451,0.3452712350189685,0.0155364265665411,-0.0284691583365201,-0.0077853184193372,standing,2026-03-04_13-57-37
1772632661741401600,4.686401611328125,-0.0492901188750751,-0.0412010483078658,0.3894838862329721,-0.0149181513115763,-0.0103221116587519,-0.0043426500633358,standing,2026-03-04_13-57-37
1772632661751349800,4.696349853515625,-0.0729123472040519,-0.0077571899980306,0.3371300141394138,-0.0442245453596115,0.0130288824439048,-0.0062510850839316,standing,2026-03-04_13-57-37
1772632661761298700,4.706298583984375,-0.1286075656147673,0.0444796315871179,0.320937588751316,-0.0691994056105613,0.0050662984140217,-0.0134695824235677,standing,2026-03-04_13-57-37
1772632661771247600,4.71624755859375,-0.1181587436462752,-0.0026264029808342,0.2695364873379469,-0.0730729475617408,0.0035874436143785,-0.0164488051086664,standing,2026-03-04_13-57-37
1772632661781196500,4.726196533203125,-0.0785895160576328,0.0027918226756155,0.0694178196191787,-0.0581555180251598,0.0206519141793251,-0.0161089859902858,standing,2026-03-04_13-57-37
1772632661791145500,4.7361455078125,-0.1120692311321385,0.0799783766001462,-0.119785486331582,-0.0380642674863338,0.0206557773053646,-0.0214995741844177,standing,2026-03-04_13-57-37
1772632661801093600,4.74609375,-0.1541860791106708,0.077281977123022,-0.1743167024642229,-0.0162290073931217,0.0054914718493819,-0.0294589642435312,standing,2026-03-04_13-57-37
1772632661811042600,4.75604248046875,-0.0877590936042368,0.0339322263486683,-0.2122328838825225,0.0032174659427255,0.0056331511586904,-0.0239341370761394,standing,2026-03-04_13-57-37
1772632661820991500,4.765991455078125,-0.0111863607291132,0.061294280526787,-0.1963677907526493,0.0099699106067419,0.0097216358408331,-0.016434408724308,standing,2026-03-04_13-57-37
1772632661830940400,4.7759404296875,-0.0150147599108517,0.0932975846394896,-0.144603116723895,0.0091001950204372,-0.0018609842518344,-0.0147240292280912,standing,2026-03-04_13-57-37
1772632661840888600,4.785888671875,-0.0021249745310284,0.0412402112744748,-0.0280886148869991,0.0019762394949793,-0.015765082091093,-0.0091646807268261,standing,2026-03-04_13-57-37
1772632661850837800,4.795837646484375,0.0204444568093866,0.0394230788499116,0.0117664256393909,-0.0014740559272468,-0.0227739885449409,-0.0096349110826849,standing,2026-03-04_13-57-37
1772632661860786700,4.80578662109375,-0.0592774790779687,0.0435379668228328,-0.032909751433134,0.0014700684696435,-0.018063124269247,-0.0125119239091873,standing,2026-03-04_13-57-37
1772632661870735600,4.815735595703125,-0.0636516755742021,0.0565994007088243,-0.118534024965763,0.0093568991869688,0.0005172193050384,-0.0099181458353996,standing,2026-03-04_13-57-37
1772632661880684500,4.8256845703125,-0.0397879483732394,0.0873195331431925,-0.1881990973442792,0.0199940968304872,0.0260047372430562,-0.004541756119579,standing,2026-03-04_13-57-37
1772632661890633500,4.835633544921875,-0.0398389661744236,0.1047008760549128,-0.1678138964414596,0.0253062322735786,0.0310138761997222,-0.0033141369931399,standing,2026-03-04_13-57-37
1772632661900581600,4.84558154296875,-0.0789022900675423,0.0568742721274495,-0.0913689546644687,0.0267994664609432,0.0240734126418828,-0.0042989738285541,standing,2026-03-04_13-57-37
1772632661910530600,4.855530517578125,-0.0480090660885907,0.0063237961940467,0.0076981532871723,0.0238728709518909,0.0114413723349571,-0.0078371232375502,standing,2026-03-04_13-57-37
1772632661920479500,4.8654794921875,-0.0434249897013418,0.0004961129538714,0.0970347253412008,0.0156194679439067,-0.0103741781786084,-0.0118070980533957,standing,2026-03-04_13-57-37
1772632661930428400,4.875428466796875,-0.0485744996853172,-0.0001353168174624,0.1413204417914152,0.0108138192445039,-0.0147047424688935,-0.0114691564813256,standing,2026-03-04_13-57-37
1772632661940377600,4.885377685546875,-0.0376384056565351,0.0164190737508237,0.1009814171403646,0.0073687536641955,-0.0073237917385995,-0.0041017876937985,standing,2026-03-04_13-57-37
1772632661950325500,4.895325439453125,-0.0094172686973586,0.0602739975683391,0.0560585718303918,-0.0015234933234751,-0.0045284060761332,0.013320823200047,standing,2026-03-04_13-57-37
1772632661960274700,4.905274658203125,0.0586312535963021,0.1186057750277221,0.0276186592876911,-0.0139332916587591,0.0042690802365541,0.0313672013580799,standing,2026-03-04_13-57-37
1772632661970223600,4.9152236328125,0.0990834745645523,0.1206285130269825,-0.0155015205144882,-0.0215015597641468,0.0077602183446288,0.0374511070549488,standing,2026-03-04_13-57-37
1772632661980172500,4.925172607421875,-0.0027534086276777,0.0919299495480954,-0.0600707300812006,-0.0198195073753595,0.0124825360253453,0.0245755240321159,standing,2026-03-04_13-57-37
1772632661990120700,4.93512060546875,-0.1141782043764367,0.0478550993695855,-0.1636117685765027,-0.0055881310254335,0.0331125780940055,0.0158487241715192,standing,2026-03-04_13-57-37
1772632662000069600,4.945069580078125,-0.0579952024487778,0.0837805453620851,-0.240859843429923,0.0154761411249637,0.0542732551693916,0.0198506563901901,standing,2026-03-04_13-57-37
1772632662010018600,4.9550185546875,0.0338005627930164,0.159804777508974,-0.2141594680309295,0.0308289751410484,0.0553466454148292,0.0294980686157941,standing,2026-03-04_13-57-37
1772632662019967500,4.964967529296875,0.0699737364688888,0.1738316954262554,-0.0640074850082397,0.0411178320646286,0.0309401080012321,0.0342664569616317,standing,2026-03-04_13-57-37
1772632662029916400,4.97491650390625,0.0981804430439136,0.1443937117569148,0.1153548104077577,0.0382015258073806,-0.008943261578679,0.0311425440013408,standing,2026-03-04_13-57-37
1772632662039864600,4.984864501953125,0.0612693104823119,0.0764513715177774,0.2394324409753084,0.0277829729020595,-0.0449768975377082,0.0242593362927436,standing,2026-03-04_13-57-37
1772632662049813500,4.9948134765625,0.004728654223401,0.0410606169238686,0.3178220870792865,0.0149998255074024,-0.0589257329702377,0.0349481850862503,standing,2026-03-04_13-57-37
1772632662059762400,5.004762451171875,0.0766377974679693,0.0910334390997886,0.2691729147225618,0.0052585145458579,-0.0375903509557247,0.0510744266211986,standing,2026-03-04_13-57-37
1772632662069711600,5.014711669921875,0.1171756143604405,0.1483542859509587,0.1626946537315845,-0.0030450043268501,-0.0116434404626488,0.0591193288564682,standing,2026-03-04_13-57-37
1772632662079660500,5.02466064453125,0.0238515801054425,0.1394789055779576,0.1107277351289987,-0.0079606659710407,0.0080224061384797,0.0553043521940708,standing,2026-03-04_13-57-37
1772632662089609700,5.034609619140625,-0.0575476961432956,0.0778055626057088,0.1144768585294485,-0.0104911075904965,-0.0019785629119724,0.0510271340608596,standing,2026-03-04_13-57-37
1772632662099557600,5.0445576171875,-0.0763452807947993,0.0249922563068568,0.1791325783133506,-0.0189815312623977,-0.0402063764631748,0.0426658727228641,standing,2026-03-04_13-57-37
1772632662109506600,5.054506591796875,-0.0952204059282317,-0.0464176139123737,0.2158686100363731,-0.0273219458758831,-0.0846414789557457,0.0296119544655084,standing,2026-03-04_13-57-37
1772632662119455500,5.06445556640625,-0.1513490838527679,-0.0930032778680324,0.1578963135391473,-0.0303664691746234,-0.0937558859586715,0.0220427177846431,standing,2026-03-04_13-57-37
1772632662129404700,5.07440478515625,-0.178592407022044,-0.0662228229701519,0.0160562317878007,-0.040745947510004,-0.0704770684242248,0.0169949606060981,standing,2026-03-04_13-57-37
1772632662139352600,5.0843525390625,-0.1930270289573818,0.0059068859562277,-0.0840291132956743,-0.0627987831830978,-0.0229351092129945,0.0332064181566238,standing,2026-03-04_13-57-37
1772632662149301500,5.094301513671875,-0.0667627750657498,0.0708979751743376,-0.1701876398354768,-0.0813187956809997,0.052593071013689,0.0533000007271766,standing,2026-03-04_13-57-37
1772632662159250400,5.10425048828125,-0.0646080812498927,0.0974424293592572,-0.2219868006557226,-0.0910417363047599,0.0955868735909462,0.0546574145555496,standing,2026-03-04_13-57-37
1772632662169199600,5.11419970703125,-0.1694225372144952,0.0540358338311314,-0.1910533177316188,-0.0882406234741211,0.1056331172585487,0.043627131730318,standing,2026-03-04_13-57-37
1772632662179148800,5.124148681640625,-0.2206118225080892,-0.0282797535449266,-0.1486392403721809,-0.0679691731929779,0.0803117826581001,0.0238696727901697,standing,2026-03-04_13-57-37
1772632662189097700,5.13409765625,-0.2285646264097653,-0.0738990566864609,-0.0977460884809494,-0.0304096359759569,0.0301201194524765,0.0054619889706373,standing,2026-03-04_13-57-37
1772632662199045600,5.144045654296875,-0.1959002463061362,-0.0908819017998874,-0.0878776054173707,0.0108997197821736,-0.0192804541438817,-0.011100742034614,standing,2026-03-04_13-57-37
1772632662208994600,5.15399462890625,-0.1719005081679672,-0.0701715605959296,-0.0791167913347482,0.0505591742694377,-0.0534786358475685,-0.018583595752716,standing,2026-03-04_13-57-37
1772632662218943500,5.163943603515625,-0.094323237892799,-0.043472208110243,-0.0564864418536424,0.0822382718324661,-0.0768337622284889,-0.018614487722516,standing,2026-03-04_13-57-37
1772632662228892700,5.173892578125,-0.0330212489835917,-0.0021108546741306,-0.0235018716186285,0.0867452099919319,-0.072629302740097,-0.0170147269964218,standing,2026-03-04_13-57-37
1772632662238841600,5.183841552734375,-0.0388106095073744,0.0519990673065185,0.0986333927094936,0.0618715547025203,-0.0489988029003143,-0.0059389062225818,standing,2026-03-04_13-57-37
1772632662248789500,5.19378955078125,-0.0007559877327643,0.0605143821954727,0.2077794116050005,0.0153311006724834,-0.0213083177804946,0.0005439578089863,standing,2026-03-04_13-57-37
1772632662258738400,5.203738525390625,-0.0415639450698159,0.0360198462776839,0.2937526447057724,-0.0429260805249214,0.0012481233570724,-0.0049775741063058,standing,2026-03-04_13-57-37
1772632662268687400,5.213687255859375,-0.077803206251841,0.0278922155320644,0.2923363481670618,-0.0849582031369209,0.0279574990272521,-0.0062838695012032,standing,2026-03-04_13-57-37
1772632662278636800,5.22363671875,-0.0670593103269115,0.0161693367734551,0.1696820284008979,-0.1083703190088272,0.0620840415358543,-0.0100823361426591,standing,2026-03-04_13-57-37
1772632662288585700,5.233585693359375,-0.057833417749498,0.0441936542525887,0.0118529348790645,-0.1149841547012329,0.0863098874688148,-0.0160526391118764,standing,2026-03-04_13-57-37
1772632662298533600,5.24353369140625,-0.0686075626822188,0.0545737401001155,-0.1027694696009159,-0.1152438148856163,0.1116072535514831,-0.0244365353137254,standing,2026-03-04_13-57-37
1772632662308482600,5.253482666015625,-0.1114029309768229,0.0321821678109467,-0.1386298875331878,-0.1137894392013549,0.1358501464128494,-0.0171118900179862,standing,2026-03-04_13-57-37
1772632662318431500,5.263431396484375,-0.0799608044108375,0.0409328988909721,-0.1471165608495473,-0.0989340618252754,0.1273488104343414,-0.0117086023092269,standing,2026-03-04_13-57-37
1772632662328380700,5.273380615234375,-0.0534682082773186,0.0121416886925697,-0.1500274798601865,-0.0762902125716209,0.1003063917160034,-0.0159353613853454,standing,2026-03-04_13-57-37
1772632662338329600,5.28332958984375,-0.0774140425374731,-0.0042287236109375,-0.1395633689910173,-0.0347337163984775,0.0616423599421978,-0.0111904069781303,standing,2026-03-04_13-57-37
1772632662348277500,5.293277587890625,-0.0355961957718245,0.0251294728204607,-0.1964227358102798,0.0178158283233642,0.0204465854912996,-0.0069954511709511,standing,2026-03-04_13-57-37
1772632662358226400,5.303226318359375,-0.000592997457087,0.0427016621291637,-0.2566092012256383,0.0688774138689041,-0.0161772053688764,-0.0056699961423873,standing,2026-03-04_13-57-37
1772632662368797400,5.31379736328125,0.0114662919153459,0.0638930648483336,-0.2432142976015806,0.1048564985394477,-0.0407668352127075,-0.0003200985956937,standing,2026-03-04_13-57-37
1772632662378746600,5.32374658203125,0.0241660711484029,0.0694350630149245,-0.198943778720498,0.1157429739832878,-0.0525401383638381,0.0004607404116541,standing,2026-03-04_13-57-37
1772632662388695600,5.333695556640625,0.0072551770263351,0.0494119734227657,-0.0496264929562807,0.1067139878869056,-0.0524329468607902,0.0012126208748668,standing,2026-03-04_13-57-37
1772632662398643500,5.3436435546875,0.0027721133281476,0.031101679097861,0.0647550885051488,0.0801199302077293,-0.0347705967724323,-0.0004971285816282,standing,2026-03-04_13-57-37
1772632662408592600,5.353592529296875,-0.0116753315561451,0.0273211376458406,0.136747727048397,0.0468160808086395,-0.0177512671798467,0.0026863582897931,standing,2026-03-04_13-57-37
1772632662418541600,5.36354150390625,-0.0242806009061634,0.0285008489497005,0.1845388212710619,0.0108069460839033,-0.0010716232936829,0.0030386948492377,standing,2026-03-04_13-57-37
1772632662428490800,5.37349072265625,-0.0289786407955922,0.0300567000895738,0.1778092207551002,-0.0130004826933145,0.0113162053748965,0.0059004705399274,standing,2026-03-04_13-57-37
1772632662438439700,5.383439697265625,-0.0249609843857586,0.0448231843277812,0.1266074413061141,-0.0262398533523082,0.0200204793363809,0.012184465304017,standing,2026-03-04_13-57-37
1772632662448387600,5.3933876953125,-0.0106193744961172,0.0632762481242418,0.0444873765021562,-0.024687984958291,0.0273336544632911,0.015779411420226,standing,2026-03-04_13-57-37
1772632662458336500,5.40333642578125,-0.0409889581934548,0.0818881557442247,-0.0248924491941928,-0.0103937331587076,0.0267685316503047,0.0172039363533258,standing,2026-03-04_13-57-37
1772632662468285400,5.413285400390625,-0.074243230481632,0.0845621972590684,-0.0614560469597578,0.0093583036214113,0.016221348196268,0.0157375149428844,standing,2026-03-04_13-57-37
1772632662478234600,5.423234619140625,-0.0761859437809325,0.0751427731372416,-0.0388671985328197,0.0273562110960483,0.0043159518390893,0.0123414527624845,standing,2026-03-04_13-57-37
1772632662488183600,5.43318359375,-0.0806120713938027,0.0568543983832001,-0.0019604864180088,0.0382356643676757,-0.007856692187488,0.0100815780460834,standing,2026-03-04_13-57-37
1772632662498131500,5.44313134765625,-0.0773797201427631,0.0707195498675107,0.0657253948420286,0.0395736396312713,-0.0266753863543272,0.0089707737788558,standing,2026-03-04_13-57-37
1772632662508080400,5.453080322265625,-0.0441727758613415,0.0378757032774388,0.0986123499214649,0.0372224748134613,-0.0363573059439659,0.0043502445332705,standing,2026-03-04_13-57-37
1772632662518029600,5.463029541015625,-0.0435129419794306,0.0353000075705349,0.1051017119407653,0.0275147203356027,-0.030196351930499,0.0077100880444049,standing,2026-03-04_13-57-37
1772632662527978800,5.472978759765625,-0.0254770806817337,0.0551131076738238,0.0925660554945468,0.0151482848450541,-0.0216822270303964,0.011370631866157,standing,2026-03-04_13-57-37
1772632662537927700,5.482927734375,-0.0192331265245564,0.0826302062831819,0.0838256996780633,0.000111011788249,-0.0130839440971612,0.0158042628318071,standing,2026-03-04_13-57-37
1772632662547875600,5.49287548828125,-0.0582435694529674,0.0743482617586851,0.0836567728519439,-0.0113896802067756,-9.3444250524e-05,0.0156341008841991,standing,2026-03-04_13-57-37
1772632662557824500,5.502824462890625,-0.0857111663647927,0.0583326542422175,0.0512917958199977,-0.0208689365535974,0.0079066921025514,0.0126566868275403,standing,2026-03-04_13-57-37
1772632662567773700,5.512773681640625,-0.1096648368715308,0.0546776388660073,0.0255944599837064,-0.024227250367403,0.0160106923431158,0.0110100265592336,standing,2026-03-04_13-57-37
1772632662577722600,5.52272265625,-0.0737734392791055,0.0552006398268044,-0.0194411980509758,-0.0207696687430143,0.014190686866641,0.0134787764400243,standing,2026-03-04_13-57-37
1772632662587671600,5.532671630859375,-0.02585007871259,0.0715324736855924,-0.0402910938560962,-0.0124722337350249,-0.0054914047941565,0.0177901815623044,standing,2026-03-04_13-57-37
1772632662597619500,5.542619384765625,-0.0067777139740064,0.0602034165501594,-0.0656347939491271,0.0086682057008147,-0.0242895931005477,0.01890604570508,standing,2026-03-04_13-57-37
1772632662607568400,5.552568359375,-0.0275474206823855,0.0758577895388007,-0.1504068345665931,0.0348802469670772,-0.0374353565275669,0.0188014116138219,standing,2026-03-04_13-57-37
1772632662617517800,5.562517822265625,-0.0743856894259341,0.0848421832442283,-0.2045475900769233,0.0562135018408298,-0.0440043099224567,0.013210104778409,standing,2026-03-04_13-57-37
1772632662627466800,5.572466796875,-0.1050704582859761,0.0779316732034087,-0.1931277859181165,0.0695733949542045,-0.0392981059849262,0.0090361610054969,standing,2026-03-04_13-57-37
1772632662637415000,5.582414794921875,-0.1117196687757968,0.0539179065398871,-0.1636994468599557,0.0676367431879043,-0.0247857421636581,0.0110026393085718,standing,2026-03-04_13-57-37
1772632662647363000,5.592363037109375,-0.090671400854364,0.0615418255470693,-0.1016571244448423,0.06287132948637,-0.0092950649559497,0.0138324573636055,standing,2026-03-04_13-57-37
1772632662657312000,5.60231201171875,-0.042393308566045,0.0627246055908501,-0.0618430004507303,0.0502186529338359,0.0126046407967805,0.0172207970172166,standing,2026-03-04_13-57-37
1772632662667261000,5.612260986328125,-0.0288655540762469,0.0598449585013091,0.0351882177591323,0.0334207639098167,0.0189307145774364,0.0227870699018239,standing,2026-03-04_13-57-37
1772632662677209900,5.6222099609375,0.0071620188501663,0.0407851609833538,0.0926373671650886,0.0215675961226224,0.0155612835660576,0.0245775710791349,standing,2026-03-04_13-57-37
1772632662687159000,5.632158935546875,-0.050074382854253,0.0104416067764163,0.1063800613135099,0.0170189887285232,0.0117674767971038,0.0143517609685659,standing,2026-03-04_13-57-37
1772632662697107200,5.642107177734375,-0.1024792544826865,-0.0195804603911936,0.1049094042390584,0.0161151122301816,0.0088063068687915,0.0107889845967292,standing,2026-03-04_13-57-37
1772632662707056000,5.65205615234375,-0.0642090354623273,-0.0059289516575634,0.114580318903923,0.0099998349323868,-0.0015335485804826,0.0076056644320487,standing,2026-03-04_13-57-37
1772632662717625900,5.6626259765625,-0.0416062315752729,-0.0159618315026164,0.1364817695885896,0.0049672592431306,-0.0125699546188116,0.0030612465925514,standing,2026-03-04_13-57-37
1772632662727575000,5.672574951171875,-0.0791234950701706,-0.0090266254119575,0.1333446406066417,0.001337397377938,-0.0119715416803956,0.0007832350675016,standing,2026-03-04_13-57-37
1772632662737524000,5.68252392578125,-0.0945382871492765,0.0018655016109347,0.1130477025091648,-0.0032850513234734,-0.005958923138678,-0.002202701056376,standing,2026-03-04_13-57-37
1772632662747473000,5.692472900390625,-0.1145510014778934,0.0069851827122271,0.0856114140510559,-0.0072090881876647,0.0012125712819397,-0.003583506681025,standing,2026-03-04_13-57-37
1772632662757422000,5.702422119140625,-0.1146764910210855,0.0280865690603852,0.0184773214548826,-0.0027666692622005,0.0123099638149142,-0.0014018450165167,standing,2026-03-04_13-57-37
1772632662767370000,5.712369873046875,-0.0983274868317879,0.0577552927456796,-0.0113432317912578,0.0054679601453244,0.0107811745256185,-0.0016431710682809,standing,2026-03-04_13-57-37
1772632662777319000,5.72231884765625,-0.1047421396470628,0.0511097172513604,-0.0005634791016578,0.0087899873033165,0.0159168150275945,0.0001299616415053,standing,2026-03-04_13-57-37
1772632662787267800,5.732267822265625,-0.0758045797805301,0.0702238753050565,0.0198579621583223,0.0132627664133906,0.0121364574879407,0.001461275620386,standing,2026-03-04_13-57-37
1772632662797216800,5.742216796875,-0.072663888868317,0.0550379966109991,0.0720399848163127,0.0075396331958472,-0.0057914108037948,-0.0024543697945773,standing,2026-03-04_13-57-37
1772632662807166000,5.752166015625,-0.0811407531767152,0.0103713180191814,0.1642190868198871,-0.0046647391282022,-0.0210654381662607,-0.0082754231989383,standing,2026-03-04_13-57-37
1772632662817113900,5.76211376953125,-0.0670543418908491,0.0089040219455957,0.196319859957695,-0.0162044819444417,-0.0268948320299386,-0.0051294309087097,standing,2026-03-04_13-57-37
1772632662827063000,5.77206298828125,-0.0776591946712695,0.0408197939053177,0.1531587636232376,-0.0209801141172647,-0.0281314700841903,-0.005655082874,standing,2026-03-04_13-57-37
1772632662837012000,5.782011962890625,-0.0887568359373137,0.0816289202861487,0.0607417612105607,-0.0166924241930246,-0.0151408370584249,-0.0058028884232044,standing,2026-03-04_13-57-37
1772632662846961000,5.7919609375,-0.0927469102204777,0.1131988014176487,-0.0311538476765155,-0.0150295160710811,0.0025056682061403,-0.0069393003359436,standing,2026-03-04_13-57-37
1772632662856910000,5.80191015625,-0.1093636254352517,0.09639745035097,-0.0448690692961216,-0.0131144374608993,0.0142339644953608,-0.009163306094706,standing,2026-03-04_13-57-37
1772632662866858000,5.81185791015625,-0.097232695598714,0.0631086364723741,-0.0173041860222816,-0.0168967507779598,0.0195070225745439,-0.0086475359275937,standing,2026-03-04_13-57-37
1772632662876807000,5.821806884765625,-0.058829479582142,0.0209663617916405,0.0347539179950952,-0.0254851803183555,0.0137665783986449,-0.008796140551567,standing,2026-03-04_13-57-37
1772632662886755800,5.831755859375,-0.0607532324526459,-0.0043869829125702,0.1196235737681388,-0.0381411798298358,-0.0011319438926875,-0.0121784955263137,standing,2026-03-04_13-57-37
1772632662896705000,5.841705078125,-0.0531149013276211,-0.0314225816152989,0.1334475164592266,-0.0441415458917617,-0.0100785670801997,-0.0101025607436895,standing,2026-03-04_13-57-37
1772632662906654000,5.851654052734375,-0.0303722505784593,-0.0386712375693023,0.0892886412590742,-0.0459419675171375,-0.0109432954341173,-0.0096094850450754,standing,2026-03-04_13-57-37
1772632662916601900,5.861601806640625,-0.0679210234564729,-0.01447699977234,0.0078255790591239,-0.0357428602874279,-0.0149273844435811,-0.0118390833958983,standing,2026-03-04_13-57-37
1772632662926550800,5.87155078125,-0.0839886534211225,-0.0092436291635036,-0.0804237822800874,-0.0203528143465518,-0.0095459353178739,-0.0092074312269687,standing,2026-03-04_13-57-37
1772632662936500000,5.8815,-0.0496118433764204,0.0204961139313876,-0.1779723023623228,-0.0008299783803522,-0.0023239746224135,-0.005175138823688,standing,2026-03-04_13-57-37
1772632662946449200,5.89144921875,-0.0533025511205196,0.0520639492362737,-0.1832990503430366,0.0126480907201766,-0.0004317979328334,-0.006236842367798,standing,2026-03-04_13-57-37
1772632662956398000,5.901398193359375,-0.0790306839538738,0.0264449393332004,-0.1304518417745828,0.0232437439262866,-0.0072095431387424,-0.010053152218461,standing,2026-03-04_13-57-37
1772632662966347000,5.911346923828125,-0.0871490536808036,0.0065912149585783,-0.0577723900109529,0.0247951485216617,-0.0137659795582294,-0.0152161531150341,standing,2026-03-04_13-57-37
1772632662976295000,5.921294921875,-0.0805572907329536,0.027770781109482,0.0318272168934345,0.0213727205991745,-0.0204694233834743,-0.0169543996453285,standing,2026-03-04_13-57-37
1772632662986243800,5.931243896484375,-0.0481300073208287,0.0587966184921562,0.0549210922330617,0.0142221087589859,-0.0211473312228918,-0.0179151557385921,standing,2026-03-04_13-57-37
1772632662996193000,5.941193115234375,-0.0155029818192124,0.0753641608029603,0.0752022482395172,-0.000364024657756,-0.0158100891858339,-0.0158248394727706,standing,2026-03-04_13-57-37
1772632663006142000,5.951141845703125,0.0112457444998435,0.1099621575839817,0.0943798269182443,-0.0183967221528291,0.0038409770932048,-0.0067690405994653,standing,2026-03-04_13-57-37
1772632663016091000,5.9610908203125,0.0252159820601344,0.112834644280374,0.0805097069978714,-0.0300043765455484,0.0194015596061944,-0.0015670883003622,standing,2026-03-04_13-57-37
1772632663026038800,5.971038818359375,-0.0263175683601759,0.1116318443618714,0.0709866763710975,-0.0388008914887905,0.0192606784403324,-0.0005474474746733,standing,2026-03-04_13-57-37
1772632663035988000,5.980988037109375,-0.0348256497907452,0.105871673399955,0.0620902532100677,-0.0361944548785686,0.0266893003135919,0.0031942939385771,standing,2026-03-04_13-57-37
1772632663045937200,5.990937255859375,-0.0174918540814891,0.0868042770974338,0.0282329917937517,-0.0277865640819072,0.0363473854959011,0.0060501554980874,standing,2026-03-04_13-57-37
1772632663055886000,6.000885986328125,-0.0284925925780087,0.0804762431196868,0.0112380178511142,-0.0131857860833406,0.0251908749341964,0.0072397897019982,standing,2026-03-04_13-57-37
1772632663065835000,6.0108349609375,-0.0320184651492163,0.0461442037984728,0.0626502251803874,-0.0001220414415001,-0.0107249161228537,0.0024058427661657,standing,2026-03-04_13-57-37
1772632663075783000,6.020782958984375,-0.0203021439955569,-0.0253647428810596,0.0816588770329952,0.0100102210417389,-0.0481484532356262,-0.0033045071177184,standing,2026-03-04_13-57-37
1772632663085732000,6.030732177734375,-0.0577158557844348,-0.0572097876921296,0.0554775570720434,0.0102299870923161,-0.0682846158742904,-0.0089494958519935,standing,2026-03-04_13-57-37
1772632663095681000,6.040680908203125,-0.0653181657480076,-0.043273616798222,-0.000872691181302,0.0040189633145928,-0.0563861429691314,-0.0037123900838196,standing,2026-03-04_13-57-37
1772632663105630000,6.0506298828125,-0.1019663730571046,-0.0216657422326505,-0.0658230099976062,-0.0069098039530217,-0.0261286403983831,-0.0049613704904913,standing,2026-03-04_13-57-37
1772632663115579000,6.060578857421875,-0.1364268245309591,-0.0150268887400627,-0.1107820956647396,-0.017165370285511,0.002848683623597,-0.0068863034248352,standing,2026-03-04_13-57-37
1772632663125526800,6.07052685546875,-0.1686228930030949,-0.0359479500852525,-0.1444996563494205,-0.0187108032405376,0.0387049540877342,-0.0052916025742888,standing,2026-03-04_13-57-37
1772632663135476000,6.08047607421875,-0.1419138228409923,0.0028333237297832,-0.1536374870508909,-0.0125136282294988,0.0510441772639751,-0.00342419417575,standing,2026-03-04_13-57-37
1772632663145425200,6.090425048828125,-0.1123725066613405,0.0401833956979215,-0.0970867477893829,0.000565000809729,0.0381960235536098,-0.0040775779634714,standing,2026-03-04_13-57-37
1772632663155374000,6.1003740234375,-0.0514559368731454,0.0259174083277583,-0.0769417853832244,0.0167546235024929,0.0182923562824726,-0.0060603013262152,standing,2026-03-04_13-57-37
1772632663165323000,6.110322998046875,-0.0472537359429523,0.0242560509867966,-0.0567249267846345,0.0338702574372291,0.004814495332539,-0.0100160930305719,standing,2026-03-04_13-57-37
1772632663175272000,6.12027197265625,-0.0412102910602465,0.0452602605707943,-0.0411427422493696,0.042344968765974,-0.0058911461383104,-0.0112517997622489,standing,2026-03-04_13-57-37
1772632663185220000,6.13022021484375,-0.0098910054226405,0.047885786768794,0.0173754976928234,0.0347625166177749,-0.0123485121876001,-0.0114700244739651,standing,2026-03-04_13-57-37
1772632663195169000,6.1401689453125,0.0067049409987404,0.0565185905575752,0.0848953747361898,0.0217156931757926,-0.0119341239333152,-0.0076779490336775,standing,2026-03-04_13-57-37
1772632663205118000,6.150117919921875,0.0052306306624785,0.068463441503793,0.1663093370974064,-0.0011354428716003,-0.0074162050150334,-0.0059514502063393,standing,2026-03-04_13-57-37
1772632663215067000,6.16006689453125,-0.0062883047555573,0.0688036332435906,0.2048211463212967,-0.0207940991967916,-0.0071797161363065,-0.0044827172532677,standing,2026-03-04_13-57-37
1772632663225015800,6.170015869140625,-0.0258607279707677,0.0826630856394767,0.1808949118107557,-0.0341438688337802,-0.0104370284825563,-0.006347055081278,standing,2026-03-04_13-57-37
1772632663234964000,6.1799638671875,-0.0286168765448033,0.0771045747295021,0.0652951867312192,-0.0284878481179475,0.0006100302562117,-0.0038218458648771,standing,2026-03-04_13-57-37
1772632663244913000,6.189912841796875,-0.0260759050914086,0.1082245201364159,-0.0952665466248989,-0.0130602177232503,0.028593199327588,0.0023497364018112,standing,2026-03-04_13-57-37
1772632663254862000,6.199862060546875,-0.0483364531457424,0.1534543855689465,-0.1710094776123762,0.0064335889182984,0.0412075258791446,0.003678387729451,standing,2026-03-04_13-57-37
1772632663264811000,6.20981103515625,-0.0308115553111769,0.1065541027061641,-0.1525818405181169,0.0172518268227577,0.0321017801761627,0.0023236928973346,standing,2026-03-04_13-57-37
1772632663274760000,6.219760009765625,-0.027487287992984,0.0402269425787031,-0.0472743768721818,0.0189772881567478,0.0109528163447976,-0.0017879614606499,standing,2026-03-04_13-57-37
1772632663284708000,6.2297080078125,-0.0210512270634993,-0.0145484575733542,0.0564864418536424,0.0113390907645225,-0.0114365126937627,-0.0035996274091303,standing,2026-03-04_13-57-37
1772632663294657000,6.239656982421875,-0.0444012143223546,-0.0282923207655549,0.0984843396276235,0.0039999512955546,-0.0238204784691333,-0.0050103040412068,standing,2026-03-04_13-57-37
1772632663304606000,6.24960595703125,-0.0341380145864561,-0.0437985174551606,0.0658580813109874,0.0033882320858538,-0.0143225789070129,-0.0049359300173819,standing,2026-03-04_13-57-37
1772632663314555000,6.259554931640625,-0.0578091418247669,2.49883107841e-05,-0.0245440741479396,0.0036473576910793,-0.0040150810964405,-0.0049670888110995,standing,2026-03-04_13-57-37
1772632663324503800,6.26950390625,-0.094574838033691,0.0175499774768948,-0.0726116472244262,0.0037979048211127,0.0065185213461518,-0.0094200614839792,standing,2026-03-04_13-57-37
1772632663334452000,6.279451904296875,-0.1250194597286172,-0.0083064944438636,-0.057686465293169,-9.72342677414e-05,0.0185858383774757,-0.0141381183639168,standing,2026-03-04_13-57-37
1772632663344401000,6.28940087890625,-0.1325892373957671,-0.0026513912916183,-0.0677794047623872,0.0033171677496284,0.0299480780959129,-0.0191331021487712,standing,2026-03-04_13-57-37
1772632663354350000,6.29935009765625,-0.0754644063070416,0.012963526469469,-0.0496475357443094,0.0038761652540415,0.032564103603363,-0.0138661684468388,standing,2026-03-04_13-57-37
1772632663364299000,6.309299072265625,-0.0421698020084761,0.033645518361777,0.004209142127633,0.0062941429205238,0.0264172628521919,-0.0044637080281972,standing,2026-03-04_13-57-37
1772632663374248000,6.319248046875,0.0092404690920375,0.0430332321710884,0.0361719680994749,0.0154317151755094,0.0095416102558374,-0.0001557783689349,standing,2026-03-04_13-57-37
1772632663384197000,6.329197021484375,-0.0062224912440404,0.0317092896021902,0.0211824887603521,0.0258687976747751,-0.0037893785629421,-0.0017306616064161,standing,2026-03-04_13-57-37
1772632663394145000,6.33914501953125,-0.0602645356202498,0.059971069099009,0.0098310736626386,0.0331650599837303,-0.0146356346085667,-0.0082447538152337,standing,2026-03-04_13-57-37
1772632663404094000,6.349093994140625,-0.1025204084769822,0.0431635805524885,0.0502297195464372,0.0323624052107334,-0.020054766908288,-0.0103333164006471,standing,2026-03-04_13-57-37
1772632663414043000,6.35904296875,-0.1031957504552789,0.0179598734520375,0.0948965442687273,0.0224487893283367,-0.0191303845494985,-0.0144473686814308,standing,2026-03-04_13-57-37
1772632663423991800,6.36899169921875,-0.098398889833875,0.0008114625133574,0.1399187582999467,0.007212218362838,-0.0256814938038587,-0.0207120049744844,standing,2026-03-04_13-57-37
1772632663433941000,6.37894091796875,-0.1119251830189488,0.0059106853485107,0.1395475868999958,-0.0063957362435758,-0.0185327716171741,-0.0221351981163024,standing,2026-03-04_13-57-37
1772632663443889000,6.388888916015625,-0.1109988984868861,0.0136132225498557,0.1002864206135272,-0.0226048380136489,-0.0006590958219021,-0.0236336328089237,standing,2026-03-04_13-57-37
1772632663453837800,6.398837890625,-0.1209769063395447,0.0365830331183969,0.0796130504190921,-0.0314212329685688,0.006539162248373,-0.0223358720541,standing,2026-03-04_13-57-37
1772632663463787000,6.408787109375,-0.0931070305034518,0.0283767841786146,0.0161585231184959,-0.028737049549818,0.0150895044207572,-0.0205420404672622,standing,2026-03-04_13-57-37
1772632663473736000,6.41873583984375,-0.0763556925909593,0.0576093084037303,-0.0363625222355127,-0.0144622381776571,0.0169233568012714,-0.020388375967741,standing,2026-03-04_13-57-37
1772632663483685000,6.42868505859375,-0.0862609640009701,0.080745269319415,-0.0918190365195274,0.0031855325214564,0.0116479005664587,-0.0212293751537799,standing,2026-03-04_13-57-37
1772632663493633000,6.438633056640625,-0.0450031074719503,0.0765386114098131,-0.1053285064339637,0.0185154862701892,0.0019153782632201,-0.0228102263063192,standing,2026-03-04_13-57-37
1772632663503582000,6.44858203125,-0.0344727446998469,0.0856597832374274,-0.0856102450072765,0.0254206284880638,-0.0077135469764471,-0.0234754011034965,standing,2026-03-04_13-57-37
1772632663513531000,6.45853076171875,-0.0028497634079307,0.0932414705380797,-0.0659451750725507,0.0259966701269149,-0.0058437413536012,-0.0187988895922899,standing,2026-03-04_13-57-37
1772632663523480000,6.46847998046875,0.0299584273468703,0.1096017998389899,-0.0178021986722946,0.0203595161437988,0.0002237388398498,-0.0136147513985633,standing,2026-03-04_13-57-37
1772632663533429000,6.478428955078125,0.0271297797922044,0.0963482043817639,0.0325642989963293,0.0100781163200736,0.00375322625041,-0.0142387300729751,standing,2026-03-04_13-57-37
1772632663543378000,6.4883779296875,0.0168810469730757,0.0521552807815372,0.0426198290646076,0.0032742111943662,0.018392626196146,-0.0116107491776347,standing,2026-03-04_13-57-37
1772632663553325800,6.498325927734375,0.0153901325618848,0.0307832607984542,0.0082528645604848,0.0010680486448109,0.0325031168758869,-0.008024270646274,standing,2026-03-04_13-57-37
1772632663563274800,6.508274658203125,0.0120348673172295,0.0449777903676033,0.0144821143388748,-0.0008953916840255,0.0239274706691503,-0.0092897359281778,standing,2026-03-04_13-57-37
1772632663573224200,6.51822412109375,0.0086949275058694,-0.0076383859239518,0.05622983674407,-0.0016474681906402,0.0027548070065677,-0.0133286863565444,standing,2026-03-04_13-57-37
1772632663583173000,6.528173095703125,0.0062712074902839,-0.047336482322961,0.0856593448460102,-0.0068335905671119,-0.0202973820269107,-0.015819301828742,standing,2026-03-04_13-57-37
1772632663593122000,6.5381220703125,-0.0226422956472262,-0.0213157597512006,0.0969511387109756,-0.0082139065489172,-0.0349729992449283,-0.0223560314625501,standing,2026-03-04_13-57-37
1772632663603070000,6.548070068359375,-0.0584882466627284,-0.0300667830921709,0.0626560703992843,-0.0111289303749799,-0.0376663878560066,-0.0235835537314414,standing,2026-03-04_13-57-37
1772632663613019000,6.558018798828125,-0.1066016499086283,-0.0082014266341924,-0.0042728550136089,-0.0085954666137695,-0.0197315923869609,-0.024787301197648,standing,2026-03-04_13-57-37
1772632663622968000,6.567968017578125,-0.1173926363782957,0.0348576706305146,-0.103242932331562,0.0015964512713253,0.0026743791531771,-0.0223273392766714,standing,2026-03-04_13-57-37
1772632663632917200,6.577917236328125,-0.1191340732181444,0.0834542360171675,-0.169517777749896,0.0116277802735567,0.0224672593176364,-0.0175946354866027,standing,2026-03-04_13-57-37
1772632663642866200,6.5878662109375,-0.0732986796405166,0.120642541552335,-0.1710223370939493,0.0184011533856391,0.0300436876714229,-0.0068483180366456,standing,2026-03-04_13-57-37
1772632663652814000,6.59781396484375,-0.0401788656532764,0.1086398229390382,-0.110960374841094,0.0207183696329593,0.0278037041425704,6.6587235778e-06,standing,2026-03-04_13-57-37
