time,seconds_elapsed,acc_x,acc_y,acc_z,gyr_x,gyr_y,gyr_z,activity,session
1772632301110607000,0.061607177734375,-0.0867438338807784,-0.0010104922167956,-0.1819885522663593,-0.0532450936734676,-0.0153159070760011,-0.0368307158350944,standing,2026-03-04_13-51-41
1772632301120556000,0.07155615234375,-0.0263938849993981,0.0928556860908865,-0.3682441143274307,-0.0181944072246551,0.0137879736721515,-0.0182519983500242,standing,2026-03-04_13-51-41
1772632301130504200,0.081504150390625,0.0138723484100773,0.160699972783029,-0.4682750988751649,0.0235735476016998,0.035333476960659,-0.0039478931576013,standing,2026-03-04_13-51-41
1772632301140453000,0.091453125,-0.0044805612138472,0.1343526486054062,-0.4320645523309707,0.0541955083608627,0.0299691595137119,-0.0003960651811212,standing,2026-03-04_13-51-41
1772632301150401000,0.101401123046875,-0.030374588666018,0.0740115771502256,-0.2873819406300783,0.0723196491599083,0.0114021310582757,-0.006620405241847,standing,2026-03-04_13-51-41
1772632301160350200,0.11135009765625,-0.0252011680834926,0.0162307115718722,-0.1384469321817159,0.0710537880659103,0.0024642792996019,-0.0158303007483482,standing,2026-03-04_13-51-41
1772632301170298000,0.121298095703125,-0.0106658074537292,-0.0094382749527692,0.0049584991902112,0.0500622242689132,0.0024040916468948,-0.0209912396967411,standing,2026-03-04_13-51-41
1772632301180247300,0.131247314453125,-0.0233603990550152,-0.0229041979864239,0.1124883150607347,0.0212496947497129,0.0132428742945194,-0.0253190286457538,standing,2026-03-04_13-51-41
1772632301190195200,0.1411953125,0.0307877360441721,-0.0226353179171681,0.1660632533818483,-0.0064493110403418,0.0298005435615777,-0.0206387881189584,standing,2026-03-04_13-51-41
1772632301200144400,0.151144287109375,0.0612729820104315,0.0212612530849874,0.1593582027852535,-0.0284614562988281,0.0444998741149902,-0.0140537563711404,standing,2026-03-04_13-51-41
1772632301210092300,0.16109228515625,0.06272769259708,0.058710255382955,0.1760568241298198,-0.0377217978239059,0.0348677560687065,-0.0138854440301656,standing,2026-03-04_13-51-41
1772632301220041200,0.171041259765625,0.0457708587077446,0.0408409828238189,0.158100311678648,-0.0326416566967964,0.0162547957152128,-0.0150780659168958,standing,2026-03-04_13-51-41
1772632301229989400,0.1809892578125,0.0422748332855291,0.0273170459926128,0.0936304698556661,-0.0161561593413352,0.0077481265179812,-0.012931291013956,standing,2026-03-04_13-51-41
1772632301239938300,0.190938232421875,0.0378114606685005,0.0555545678310096,0.0115694417625665,0.0004390096291899,0.0135488891974091,-0.0109487250447273,standing,2026-03-04_13-51-41
1772632301249886200,0.20088623046875,0.0195781588362529,0.0976769687674939,-0.0346481195330619,0.0125321578234434,0.0193487200886011,-0.0071079148910939,standing,2026-03-04_13-51-41
1772632301259835100,0.210835205078125,0.0100955150187946,0.0990212229833006,-0.0173848500430583,0.0168561190366745,0.0147096011787652,0.0005509774200618,standing,2026-03-04_13-51-41
1772632301269783300,0.220783203125,0.0520254621230997,0.1063243856035172,0.026374796706438,0.011904502287507,0.0120823923498392,0.0086493836715817,standing,2026-03-04_13-51-41
1772632301279732200,0.230732177734375,0.00724023518553,0.104508276092261,0.0908814634084701,0.0053435945883393,0.0015026174951344,0.0058066020719707,standing,2026-03-04_13-51-41
1772632301289680100,0.24068017578125,-0.0191430553546175,0.0780909554183483,0.1352022511720657,-0.0068086753599345,-0.0170148741453886,0.0013439431786537,standing,2026-03-04_13-51-41
1772632301299629300,0.25062939453125,-0.0062018503148108,0.0465451858147978,0.1423299110949039,-0.0225929655134677,-0.0196151845157146,0.0023713908158242,standing,2026-03-04_13-51-41
1772632301309577200,0.2605771484375,-0.0036176790405064,0.0495617571569979,0.0632563743799924,-0.0296056028455495,-0.0072293551638722,0.0051669110544025,standing,2026-03-04_13-51-41
1772632301319526100,0.270526123046875,-0.0359139930167235,0.068143561899662,-0.0298293210744857,-0.0341610647737979,0.0120485313236713,0.0093757938593626,standing,2026-03-04_13-51-41
1772632301330095400,0.281095458984375,-0.045940461387299,0.0569692569345235,-0.1024327849924564,-0.0281577687710523,0.0290650650858879,0.0175120178610086,standing,2026-03-04_13-51-41
1772632301340044300,0.291044189453125,-0.0657040049941279,0.0478001543119549,-0.1590799703657627,-0.0126408617943525,0.0416831225156784,0.0183511786162853,standing,2026-03-04_13-51-41
1772632301349992200,0.3009921875,-0.0682900211656466,0.0224573310017585,-0.1393506030231714,0.0036326716654002,0.0347139462828636,0.0171947684139013,standing,2026-03-04_13-51-41
1772632301359941000,0.310941162109375,-0.0907235876993276,-0.0488457178421318,-0.0668266340821981,0.0177612751722335,0.0115612242370843,0.010165886953473,standing,2026-03-04_13-51-41
1772632301369889300,0.32088916015625,-0.0685599058819003,-0.0738164929695427,0.0282008430898189,0.0256347618997097,-0.0158774089068174,0.0047343987971544,standing,2026-03-04_13-51-41
1772632301379838200,0.330838134765625,-0.0714262550984509,-0.0898958133719861,0.0693675507366657,0.0237638913094997,-0.0253670513629913,-0.0011067122686654,standing,2026-03-04_13-51-41
1772632301389786400,0.340786376953125,-0.0807721207937225,-0.075829147966206,0.0579044919580221,0.015988353639841,-0.008565604686737,-0.0030044084414839,standing,2026-03-04_13-51-41
1772632301399735300,0.3507353515625,-0.1038917881617322,-0.0730989923499524,0.0251467162162065,0.0059700747951865,0.0108176805078983,-0.0042225383222103,standing,2026-03-04_13-51-41
1772632301409683200,0.36068310546875,-0.1122211702908389,-0.0686266692414879,0.008082768690586,-0.0089272744953632,0.0166856944561004,-0.0107698701322078,standing,2026-03-04_13-51-41
1772632301419632000,0.370632080078125,-0.1320270004031248,-0.0844040840879082,0.0378764339298009,-0.0184547342360019,0.0155863407999277,-0.0193854626268148,standing,2026-03-04_13-51-41
1772632301429580300,0.380580322265625,-0.1403478704322129,-0.0853184224538505,0.0270446587920188,-0.0197175499051809,0.0139686083421111,-0.0264240391552448,standing,2026-03-04_13-51-41
1772632301439529200,0.390529296875,-0.1171524709468707,-0.0606250029630959,-0.0003887070566415,-0.0180312376469373,0.0027021050918847,-0.0296368766576051,standing,2026-03-04_13-51-41
1772632301449477000,0.40047705078125,-0.0889748808684758,-0.0351474473573267,-0.0409177013218402,-0.0076801120303571,0.0021833330392837,-0.0263288617134094,standing,2026-03-04_13-51-41
1772632301459426300,0.41042626953125,-0.0508696248851716,0.000934358240664,-0.0948030207663774,0.0086421351879835,0.0044590039178729,-0.0259570851922035,standing,2026-03-04_13-51-41
1772632301469374200,0.420374267578125,-0.0364994647544808,0.0601719984985888,-0.1286737261861562,0.0203988682478666,0.0041789412498474,-0.0206223856657743,standing,2026-03-04_13-51-41
1772632301479323400,0.430323486328125,-0.0397185911977663,0.061683133713901,-0.1079383966714143,0.0308792069554328,0.0162760838866233,-0.0153293516486883,standing,2026-03-04_13-51-41
1772632301489271300,0.440271240234375,-0.0314503646713681,0.0678944094441831,-0.1087239940911531,0.0307711940258741,0.0287053547799587,-0.0158286597579717,standing,2026-03-04_13-51-41
1772632301499220500,0.450220458984375,-0.0709076197855174,0.0758984138101339,-0.0312204831719398,0.0252041220664978,0.0315376296639442,-0.0168654285371303,standing,2026-03-04_13-51-41
1772632301509168400,0.46016845703125,-0.0459705825309269,0.0419683794185519,0.0817325267910957,0.0094552999362349,0.0210186354815959,-0.02257533185184,standing,2026-03-04_13-51-41
1772632301519117300,0.470117431640625,-0.0193226862378418,0.0151620594270527,0.1454027426689863,-0.0031619584187865,0.0078959092497825,-0.0250763054937124,standing,2026-03-04_13-51-41
1772632301529065500,0.4800654296875,-0.0119943161111325,0.0193134800180792,0.1468628783494234,-0.0135930515825748,0.0051482757553458,-0.0252874307334423,standing,2026-03-04_13-51-41
1772632301539014400,0.490014404296875,-0.0390534418199211,0.0466435316227376,0.0821072053223848,-0.0141264833509922,0.0197439957410097,-0.0252392254769802,standing,2026-03-04_13-51-41
1772632301548962300,0.49996240234375,-0.0515811341553926,0.0791698366962373,0.0290787949681282,-0.0065468773245811,0.0361578278243541,-0.0205776169896125,standing,2026-03-04_13-51-41
1772632301558911200,0.5099111328125,-0.0381825407369062,0.0896096899069845,0.0052472530037164,0.0015717688947916,0.0371445305645465,-0.0131756253540515,standing,2026-03-04_13-51-41
1772632301568859400,0.519859375,0.0114780554183758,0.0701670305512845,0.0277080911368131,0.0100735798478126,0.022047022357583,-0.0042509762570261,standing,2026-03-04_13-51-41
1772632301578808300,0.529808349609375,0.0332948234942741,0.0614703677460551,0.0858604203760623,0.0172590538859367,-0.0047294632531702,-0.0001427840907126,standing,2026-03-04_13-51-41
1772632301588756200,0.539756103515625,0.0371834466969594,0.0181555421546101,0.1283002166986465,0.0176834091544151,-0.0297780558466911,-0.0063662896864116,standing,2026-03-04_13-51-41
1772632301598705400,0.549705322265625,0.007671027818229,-0.0361349970899522,0.1434884334802627,0.0036922264844179,-0.0425039716064929,-0.0152013264596462,standing,2026-03-04_13-51-41
1772632301608653300,0.5596533203125,-0.0834039123357273,-0.0592731499627232,0.1165454814970493,-0.0123861897736787,-0.038937646895647,-0.0263267084956169,standing,2026-03-04_13-51-41
1772632301618602200,0.569602294921875,-0.1006238541406579,-0.0322488033063709,0.0652864189028739,-0.0294368118047714,-0.0232223346829414,-0.0288391336798667,standing,2026-03-04_13-51-41
1772632301628550400,0.57955029296875,-0.0874596357336267,0.0101668814882636,-0.032214170384407,-0.0399451479315757,0.0043129553087055,-0.0225223116576671,standing,2026-03-04_13-51-41
1772632301638499300,0.589499267578125,-0.0574305543033406,0.0540149371735751,-0.1407955411344766,-0.0371011607348918,0.032877754420042,-0.0057976613752543,standing,2026-03-04_13-51-41
1772632301648447200,0.599447265625,-0.0399513039750978,0.0790377347491681,-0.216952313619852,-0.0202667862176895,0.0460699871182441,0.0049146376550197,standing,2026-03-04_13-51-41
1772632301658396200,0.609396240234375,-0.0614262363433837,0.0704340109243989,-0.2396826163440942,0.0032819490879774,0.0435615554451942,0.0073543596081435,standing,2026-03-04_13-51-41
1772632301668344300,0.61934423828125,-0.1194846767541021,0.0142275550559163,-0.2103530614852905,0.0293693542480468,0.0263613499701023,-0.0043657082132995,standing,2026-03-04_13-51-41
1772632301678293200,0.629293212890625,-0.1755353575389832,-0.0449644924946129,-0.1491366685003042,0.0494202934205532,0.0099594742059707,-0.0213958248496055,standing,2026-03-04_13-51-41
1772632301688241200,0.6392412109375,-0.2077713196300901,-0.0928827202282845,-0.0795627815365791,0.0568201653659343,-0.0005579718854278,-0.0342160388827323,standing,2026-03-04_13-51-41
1772632301698190300,0.6491904296875,-0.1588189630757085,-0.0859495599642395,0.0029132570981979,0.0478181466460228,0.0027661859057843,-0.0385021306574344,standing,2026-03-04_13-51-41
1772632301708138200,0.65913818359375,-0.1003101302826777,-0.0738055331841111,0.0840758750468492,0.0267239846289157,0.009471327997744,-0.0325759388506412,standing,2026-03-04_13-51-41
1772632301718087200,0.669087158203125,-0.0336918051889166,-0.0570873303562402,0.1365191789895296,0.0032641985453665,0.0208536777645349,-0.0242381170392036,standing,2026-03-04_13-51-41
1772632301728035300,0.679035400390625,-0.0232328636852093,-0.0529107753239572,0.1516296543598174,-0.010506528429687,0.0322596877813339,-0.0234281159937381,standing,2026-03-04_13-51-41
1772632301737984300,0.688984375,-0.0857472605914808,-0.0739727064445614,0.1431996796667575,-0.0147050013765692,0.0321699380874633,-0.0315701961517334,standing,2026-03-04_13-51-41
1772632301747932200,0.69893212890625,-0.1424591817640699,-0.0912802534677088,0.1159440084725618,-0.0139073692262172,0.0215762350708246,-0.0439131967723369,standing,2026-03-04_13-51-41
1772632301757881300,0.70888134765625,-0.1509584770999849,-0.1033110291317105,0.1072539215385913,-0.0087520219385623,-0.0008060371037572,-0.0579597763717174,standing,2026-03-04_13-51-41
1772632301767829200,0.718829345703125,-0.1538150173085741,-0.1040581942372024,0.0543166965991258,0.0051963934674859,-0.0050729475915431,-0.0623938851058483,standing,2026-03-04_13-51-41
1772632301777778400,0.7287783203125,-0.0946682519381865,-0.0623087182663381,-0.0196504568874835,0.0203116964548826,0.0103880343958735,-0.0564063005149364,standing,2026-03-04_13-51-41
1772632301787726300,0.738726318359375,-0.0601736424664035,0.0077796940907835,-0.0227238729834556,0.0299533363431692,0.0147930039092898,-0.0478036366403102,standing,2026-03-04_13-51-41
1772632301797675300,0.74867529296875,-0.0257661632888019,0.0220782685562968,0.0157213007450103,0.0318252742290496,0.0055505037307739,-0.0467213280498981,standing,2026-03-04_13-51-41
1772632301807623400,0.75862353515625,-0.0137119519502855,0.0022701368890702,0.081153850120306,0.027797557413578,-0.0100580286234617,-0.0494615547358989,standing,2026-03-04_13-51-41
1772632301817571300,0.7685712890625,-0.0534765559805557,-0.0105709322445094,0.1217243454396724,0.0187851544469594,-0.0233690403401851,-0.0550549924373626,standing,2026-03-04_13-51-41
1772632301827520300,0.778520263671875,-0.077085449903924,-0.0200702897347509,0.0843172825872898,0.0104804364964365,-0.0216931868344545,-0.0619186274707317,standing,2026-03-04_13-51-41
1772632301837469400,0.788469482421875,-0.0999866339493542,0.0005503273591399,0.029073534271121,-0.001501124817878,-0.0044340379536151,-0.066360518336296,standing,2026-03-04_13-51-41
1772632301847417300,0.798417236328125,-0.0333309359872713,0.0280960675410926,-0.005548281776905,-0.0149165075272321,0.0127397002652287,-0.0590430274605751,standing,2026-03-04_13-51-41
1772632301857366300,0.8083662109375,0.0046488304528407,0.0651522711291909,-0.0096557170957326,-0.0222862735390663,0.0155131174251437,-0.0462404116988182,standing,2026-03-04_13-51-41
1772632301867314400,0.818314453125,0.0353940973284654,0.0716590226747095,-0.0361649538367986,-0.0223639346659183,0.0201068986207246,-0.0377749502658844,standing,2026-03-04_13-51-41
1772632301877262300,0.828262451171875,0.0505844147356227,0.0687194620914757,-0.1070832411468029,-0.0082885958254337,0.0265759844332933,-0.0289034247398376,standing,2026-03-04_13-51-41
1772632301887211300,0.838211181640625,0.0152852474153041,0.0724691700138151,-0.1457405963212251,0.0088136447593569,0.0190760921686887,-0.0255495831370353,standing,2026-03-04_13-51-41
1772632301897159400,0.848159423828125,0.0104916381969116,0.0635641251549124,-0.1165226851433515,0.0255018100142478,0.0028601041994988,-0.0247700735926628,standing,2026-03-04_13-51-41
1772632301907108400,0.8581083984375,0.0075257010634057,0.0224646375253796,-0.1199760404676199,0.0409153364598751,-0.0059997509233653,-0.0294390693306922,standing,2026-03-04_13-51-41
1772632301917056300,0.86805615234375,-0.0231283073321916,0.0228596281923353,-0.0996592286258935,0.0506939329206943,-0.0055656554177403,-0.0297392047941684,standing,2026-03-04_13-51-41
1772632301927005200,0.878005126953125,-0.0143344494964927,0.022528204280883,-0.0740232675880193,0.050601527094841,-0.0082885902374982,-0.0314265936613082,standing,2026-03-04_13-51-41
1772632301936953300,0.887953369140625,0.0373893993315286,0.0314874635450541,-0.0315460618644952,0.038127813488245,-0.0025225800927728,-0.022244544699788,standing,2026-03-04_13-51-41
1772632301946902300,0.89790234375,0.0685371277945116,0.0547955661572515,-0.012267945420742,0.0241292119026184,0.0160336047410964,-0.0126995891332626,standing,2026-03-04_13-51-41
1772632301956850200,0.90785009765625,0.0763193791685625,0.0815516172662377,0.0166080204516649,0.0080533055588603,0.0336581394076347,-0.0016535953618586,standing,2026-03-04_13-51-41
1772632301966799400,0.91779931640625,0.0512879598950967,0.0817145527429878,0.0479009843379259,-0.004591915756464,0.0455928295850753,-0.0016117837512865,standing,2026-03-04_13-51-41
1772632301976747300,0.927747314453125,-0.0202663054971955,0.0406973365694284,0.0682242259204387,-0.005933616310358,0.0400675721466541,-0.0091144405305385,standing,2026-03-04_13-51-41
1772632301986696200,0.9376962890625,-0.0590152114125899,0.0117776776857674,0.0641629678308963,-0.0009951572865247,0.0230544917285442,-0.0154506834223866,standing,2026-03-04_13-51-41
1772632301996644400,0.947644287109375,-0.0243586893773637,0.0264955004766583,0.0776841281831264,0.0108513822779059,0.0051742945797741,-0.0094383312389254,standing,2026-03-04_13-51-41
1772632302006593300,0.95759326171875,0.0078650342866778,0.048393151769042,0.0686146865427494,0.0250793434679508,-0.0110912891104817,-0.0042473343200981,standing,2026-03-04_13-51-41
1772632302016541200,0.967541259765625,0.0229103171999566,0.0774215317241847,0.0624058950304985,0.0316453650593757,-0.0182173755019903,-8.93408432602e-05,standing,2026-03-04_13-51-41
1772632302026490000,0.977489990234375,0.0200520051593892,0.0559542346730828,0.0591378331452608,0.0335053727030754,-0.0136501844972372,0.0060257026925683,standing,2026-03-04_13-51-41
1772632302036438300,0.987438232421875,-0.0386232885080389,0.0504866169169545,0.0539484478086233,0.0261182971298694,-0.0055461856536567,-0.0001413801219314,standing,2026-03-04_13-51-41
1772632302046387200,0.99738720703125,-0.1087027138411067,0.0427466703146696,0.0652080929696559,0.0146207744255661,-0.0018484210595488,-0.0114486664533615,standing,2026-03-04_13-51-41
1772632302056335000,1.007335205078125,-0.1069823563219048,-0.0078951371639966,0.0655243193119764,0.0043300534598529,0.0058851325884461,-0.0103370631113648,standing,2026-03-04_13-51-41
1772632302066284300,1.0172841796875,-0.0681884056883864,0.0103346392706036,0.0309293912708759,-0.0025654099881649,0.0184880997985601,-0.0041803447529673,standing,2026-03-04_13-51-41
1772632302076232200,1.027232177734375,-0.056477272166498,0.0415207817815244,0.0026204116314649,-0.0007499330677092,0.0261806398630142,0.0015158907044678,standing,2026-03-04_13-51-41
1772632302086181400,1.037181396484375,-0.054222826036904,0.0378590444035828,-0.0196095403552055,0.0035755729768425,0.0256011355668306,0.0036940902937203,standing,2026-03-04_13-51-41
1772632302096129300,1.04712939453125,-0.0701437410072423,0.0040747020930051,-0.0169254158377647,0.0102750211954116,0.0218705795705318,0.0056840041652321,standing,2026-03-04_13-51-41
1772632302106078500,1.057078369140625,-0.0584424347596243,-0.0182585641376674,0.0372989263027906,0.0153266210108995,0.0136842047795653,0.0016264398582279,standing,2026-03-04_13-51-41
1772632302116026400,1.0670263671875,-0.0641300702082924,-0.0744751030087471,0.0933183351665735,0.0150017142295837,-0.0036447176244109,-0.0063238949514925,standing,2026-03-04_13-51-41
1772632302125975300,1.076975341796875,-0.0634585276222787,-0.0942440717093646,0.1341559569895267,0.01207628659904,-0.0228236019611358,-0.0141739370301365,standing,2026-03-04_13-51-41
1772632302135923500,1.08692333984375,-0.0350884471790865,-0.1174327857255935,0.1479845758557319,0.0087955389171838,-0.029016250744462,-0.0226057693362236,standing,2026-03-04_13-51-41
1772632302145872400,1.096872314453125,-0.0588455356677994,-0.1103805291265249,0.133047703486681,-0.0010787579230964,-0.0302719082683324,-0.03049305267632,standing,2026-03-04_13-51-41
1772632302155820300,1.1068203125,-0.052871904618293,-0.080369567874819,0.1118453409820795,-0.014234771952033,-0.0350264497101306,-0.0332925654947757,standing,2026-03-04_13-51-41
1772632302165769200,1.116769287109375,-0.0289094662832096,-0.0441452850662171,0.0544540592432022,-0.0228121448308229,-0.0351998843252658,-0.0299740247428417,standing,2026-03-04_13-51-41
1772632302175717400,1.12671728515625,-0.0309191073388792,0.0063429392859339,-0.0392559055894613,-0.0221010819077491,-0.0178619064390659,-0.0190529339015483,standing,2026-03-04_13-51-41
1772632302185666300,1.136666259765625,-0.0231996555353514,0.0698711163446307,-0.1563315484404563,-0.009098888374865,0.0057533849030733,-0.0089861191809177,standing,2026-03-04_13-51-41
1772632302195614500,1.146614501953125,-0.0416583636213094,0.1063330073013901,-0.2468938628971576,0.0097847869619727,0.0184326935559511,-0.0044805826619267,standing,2026-03-04_13-51-41
1772632302205563400,1.1565634765625,-0.0847044004750438,0.0932896935939788,-0.2563561032474041,0.0300501193851232,0.0202780552208423,-0.0036185479257255,standing,2026-03-04_13-51-41
1772632302215511300,1.16651123046875,-0.0468917159638367,0.0676353201165795,-0.2415881577044725,0.0508273020386695,0.0239191316068172,-0.0004666969180107,standing,2026-03-04_13-51-41
1772632302225460200,1.176460205078125,-0.0548358981676399,0.0678806731797754,-0.1914607294887304,0.0631784498691558,0.0240972768515348,-0.0027917877305299,standing,2026-03-04_13-51-41
1772632302235408400,1.186408447265625,-0.0403699860448949,0.0618416852764785,-0.0782633893758058,0.0632698014378547,0.0149399982765316,0.0012977626174688,standing,2026-03-04_13-51-41
1772632302245357300,1.196357421875,-0.0074845105364918,0.0154112118825316,0.0610761077314615,0.0534294210374355,0.007012034766376,-0.0021470363717526,standing,2026-03-04_13-51-41
1772632302255305200,1.20630517578125,-0.0024731303815729,-0.0276923090457916,0.1675812567293644,0.0328051000833511,0.0017016914207488,-0.0051497505046427,standing,2026-03-04_13-51-41
1772632302265254100,1.216254150390625,-0.0252899240791797,-0.025043255841732,0.2600748315095901,0.0084329806268215,-0.005801067687571,-0.0121276210993528,standing,2026-03-04_13-51-41
1772632302275201800,1.226201904296875,-0.0314451770395971,-0.04925473703444,0.2948696660369634,-0.0130965458229184,-0.0066982861608266,-0.0153050385415554,standing,2026-03-04_13-51-41
1772632302285151000,1.23615087890625,-0.0354019701076671,-0.0374972253538668,0.2462234162896871,-0.0218774024397134,-0.0012796653900295,-0.0170549564063549,standing,2026-03-04_13-51-41
1772632302295099100,1.24609912109375,-0.0363630154258571,0.0041251171059906,0.1820820757687091,-0.0250273887068033,-0.0015614277217537,-0.0188946686685085,standing,2026-03-04_13-51-41
1772632302305048000,1.256048095703125,-0.0181830694823525,0.0213464471504092,0.0971013608366251,-0.0142764467746019,-0.0017952034249901,-0.016130905598402,standing,2026-03-04_13-51-41
1772632302314996000,1.265995849609375,-0.0123616881188005,0.0436588167235255,0.0053460372030735,-0.0012533236294984,0.0045519084669649,-0.0139042362570762,standing,2026-03-04_13-51-41
1772632302324945000,1.27594482421875,-0.003993910208065,0.0524761832989752,-0.0314022694796323,0.0108144180849194,0.0053920107893645,-0.0153032522648572,standing,2026-03-04_13-51-41
1772632302334893000,1.28589306640625,-0.0111754557426087,0.0561900892555713,-0.0019347674548625,0.0103185372427105,-0.0048126894980669,-0.0172683987766504,standing,2026-03-04_13-51-41
1772632302344842000,1.295842041015625,0.0035316995237953,0.029609686974436,0.0455710800856351,0.004673967603594,-0.0123992357403039,-0.0197414122521877,standing,2026-03-04_13-51-41
1772632302354790000,1.305789794921875,0.022666480240412,0.0253923615403473,0.0473918657720088,-0.0056918542832136,-0.0073863686993718,-0.0173027552664279,standing,2026-03-04_13-51-41
1772632302364738800,1.31573876953125,0.0483003406527452,0.066919134671241,0.0265618437111377,-0.0099962670356035,0.006670078728348,-0.0082854069769382,standing,2026-03-04_13-51-41
1772632302374687000,1.32568701171875,0.0956823791504837,0.1230786826580762,-0.0093915132015943,-0.0109502114355564,0.0214655362069606,0.0067697088234126,standing,2026-03-04_13-51-41
1772632302384636000,1.335635986328125,0.1200884695998392,0.1245619069531559,-0.0613812281578779,-0.0104191768914461,0.0338316597044467,0.0162111483514308,standing,2026-03-04_13-51-41
1772632302394584000,1.345583984375,0.0960891698530875,0.1281190149128437,-0.0305284092545509,-0.0075536160729825,0.0334082171320915,0.0192892290651798,standing,2026-03-04_13-51-41
1772632302404533000,1.355532958984375,0.064081408760976,0.0913704159691929,0.0151473002493381,-0.0084019396454095,0.0173051115125417,0.0151884611696004,standing,2026-03-04_13-51-41
1772632302414481000,1.36548095703125,0.0360968570366501,0.033467385315895,0.0415846407979726,-0.0099598886445164,0.0102410772815346,0.0126328896731138,standing,2026-03-04_13-51-41
1772632302424429800,1.375429931640625,0.0327140096653252,0.0365469388917088,0.0313777195602655,-0.0118201486766338,0.0117761921137571,0.0198029894381761,standing,2026-03-04_13-51-41
1772632302434378000,1.3853779296875,0.0472584486506879,0.0464288659587502,0.0240203425347805,-0.0107724610716104,0.0148135274648666,0.0239889472723007,standing,2026-03-04_13-51-41
1772632302444327000,1.395326904296875,0.0392524167244322,0.0607739099144935,0.0114034375458955,-0.0103126261383295,0.015199176967144,0.031610582023859,standing,2026-03-04_13-51-41
1772632302454274800,1.40527490234375,0.0376927113933488,0.0442563442252576,0.0020493337452411,-0.0061256038025021,0.0128055270761251,0.0353547222912311,standing,2026-03-04_13-51-41
1772632302464223700,1.4152236328125,-0.0032147059964947,0.0280054666481912,-0.0094435356497764,-0.0013907407410442,0.0163044650107622,0.0396386012434959,standing,2026-03-04_13-51-41
1772632302474172000,1.425171875,-0.0480296522188931,-0.0134903268225491,-0.0331184257477521,-0.0005390620790421,0.0182048976421356,0.035930149257183,standing,2026-03-04_13-51-41
1772632302484120800,1.435120849609375,-0.0953908123253844,-0.0576304973222315,-0.0375192910552024,0.0011667506769299,0.0165305845439434,0.0260342601686716,standing,2026-03-04_13-51-41
1772632302494068700,1.44506884765625,-0.1337555229624733,-0.095540395130217,-0.0309656316280364,-0.004309507086873,0.0172443129122257,0.0180756691843271,standing,2026-03-04_13-51-41
1772632302504017000,1.455016845703125,-0.1440902535646222,-0.0951173474125564,-0.0320335531204938,-0.0007965378463268,0.018130850046873,0.0163542162626981,standing,2026-03-04_13-51-41
1772632302513965800,1.4649658203125,-0.1017889341309666,-0.0874663942679762,-0.019192776247859,-0.0011411504819989,0.0171947497874498,0.0216989144682884,standing,2026-03-04_13-51-41
1772632302523914000,1.4749140625,-0.0651877260350622,-0.0702143768243491,-0.0321241540133953,0.0044034989550709,0.0141185438260436,0.0304293893277645,standing,2026-03-04_13-51-41
1772632302533863000,1.48486279296875,-0.0649520358493551,-0.0722379916064441,-0.0361573550522327,0.0107149239629507,0.0073940623551607,0.0319537818431854,standing,2026-03-04_13-51-41
1772632302543810800,1.494810791015625,-0.1108768795424141,-0.0894544993452727,-0.0197632696121931,0.0185791850090026,-0.0012082315515726,0.0258525963872671,standing,2026-03-04_13-51-41
1772632302553759700,1.504759765625,-0.1529785299518145,-0.1174018060654401,-0.0381418068677186,0.0206503234803676,-0.0054117650724947,0.0122252013534307,standing,2026-03-04_13-51-41
1772632302563708000,1.5147080078125,-0.2165384538556449,-0.1472508547537028,-0.0505710803300142,0.0214964188635349,-0.0021018120460212,-0.0042555257678031,standing,2026-03-04_13-51-41
1772632302573656800,1.52465673828125,-0.2573101343029178,-0.1513933613859117,-0.0648351680040359,0.023907646536827,0.0065561244264245,-0.016750544309616,standing,2026-03-04_13-51-41
1772632302583604700,1.534604736328125,-0.2094104651392437,-0.1189772386886179,-0.0809247175395488,0.0208071842789649,0.0218169260770082,-0.0203702915459871,standing,2026-03-04_13-51-41
1772632302593554000,1.544553955078125,-0.1263895790380425,-0.0636601328752934,-0.0702297205239534,0.0177682507783174,0.0355476550757885,-0.0132420752197504,standing,2026-03-04_13-51-41
1772632302603501800,1.554501708984375,-0.0538777206599712,-0.0061915481165051,-0.0188227738916873,0.0159398987889289,0.0374822244048118,-0.0074353972449898,standing,2026-03-04_13-51-41
1772632302613451000,1.564450927734375,-0.0400668566461652,0.0233117558740079,0.0277361481875181,0.0093720108270645,0.0205961856991052,-0.0064391088671982,standing,2026-03-04_13-51-41
1772632302623399000,1.57439892578125,-0.0281033375320956,0.0026056524537503,0.1040583403676748,0.0072043547406792,0.007587170228362,-0.0091318823397159,standing,2026-03-04_13-51-41
1772632302633348000,1.58434814453125,-0.072937335514836,-0.0089767949208617,0.0681324559837579,0.01081427000463,0.0165497735142707,-0.0155932428315281,standing,2026-03-04_13-51-41
1772632302643296000,1.5942958984375,-0.1028899176428094,0.0450571392141282,0.0036322190225124,0.0198156405240297,0.0303210914134979,-0.0158281773328781,standing,2026-03-04_13-51-41
1772632302653245000,1.604244873046875,-0.0608321794403716,0.0852569015249609,0.0138245272129774,0.0247901584953069,0.0323192588984966,-0.0070914104580879,standing,2026-03-04_13-51-41
1772632302663193000,1.614193115234375,0.0365406918140128,0.0894993614003062,0.0711304687559604,0.0244050659239292,0.021672474220395,0.0024949039798229,standing,2026-03-04_13-51-41
1772632302673142000,1.62414208984375,0.097562621672824,0.0816805043429136,0.1608534097790718,0.0183450430631637,-0.003023283323273,0.0099147371947765,standing,2026-03-04_13-51-41
1772632302683090000,1.63408984375,0.0911689020477235,0.0647403293274343,0.2559130356550216,0.003302174154669,-0.0357438251376152,0.0081988703459501,standing,2026-03-04_13-51-41
1772632302693038800,1.644038818359375,0.0504811735568568,0.0326072613552212,0.3003483897089958,-0.0214367285370826,-0.0621725022792816,0.0018650735728442,standing,2026-03-04_13-51-41
1772632302702987000,1.653987060546875,0.0150128236820921,0.0057004035986959,0.2460907298207283,-0.0372817367315292,-0.0697774291038513,-0.0036745676770806,standing,2026-03-04_13-51-41
1772632302712936000,1.66393603515625,-0.02295344395563,0.0404294794134795,0.0564718288064002,-0.0372524410486221,-0.0478111393749713,-0.0005743820220232,standing,2026-03-04_13-51-41
1772632302722883800,1.6738837890625,-0.0670792023374699,0.1090688620060682,-0.1239905368059873,-0.0302132610231637,-0.0177069846540689,0.0066331177949905,standing,2026-03-04_13-51-41
1772632302732833000,1.6838330078125,-0.0354254057821817,0.156284640558809,-0.2667214299172163,-0.0127213541418313,0.007728069089353,0.0303019639104604,standing,2026-03-04_13-51-41
1772632302742781000,1.693781005859375,0.0327547618008218,0.1979746414273977,-0.3315846549719571,0.0153278987854719,0.024736188352108,0.0532484613358974,standing,2026-03-04_13-51-41
1772632302752729900,1.703729736328125,0.0485044483901001,0.1797701455645263,-0.3018593787938356,0.0427033305168151,0.0212575681507587,0.0632774010300636,standing,2026-03-04_13-51-41
1772632302762678000,1.713677978515625,-0.0113171657682396,0.1040111402250826,-0.2220078434437513,0.0586973652243614,0.0113677652552723,0.0599934086203575,standing,2026-03-04_13-51-41
1772632302772627000,1.723626953125,-0.1077418146533891,-0.0013689502656459,-0.0845060831576585,0.0618500150740146,-0.0028593740426003,0.0443041920661926,standing,2026-03-04_13-51-41
1772632302782574800,1.733574951171875,-0.1884768183071166,-0.0996345325760543,0.069553428697586,0.0527945235371589,-0.0238883569836616,0.02166348695755,standing,2026-03-04_13-51-41
1772632302792523800,1.743523681640625,-0.1852363202822394,-0.1336984224803745,0.1789420241773128,0.038033153861761,-0.0348784253001213,0.0130979623645544,standing,2026-03-04_13-51-41
1772632302802472000,1.753471923828125,-0.0873219990949146,-0.0954927565962076,0.2143482686012983,0.023051381111145,-0.0324629321694374,0.0209644585847854,standing,2026-03-04_13-51-41
1772632302812420900,1.7634208984375,-0.0389236414277926,-0.0514111844159662,0.2380278348743915,0.0048204455524683,-0.0343638956546783,0.0257051512598991,standing,2026-03-04_13-51-41
1772632302822368800,1.77336865234375,-0.065206394202914,-0.037926702812314,0.2413584406018257,-0.0149959130212664,-0.0424123406410217,0.0189115218818187,standing,2026-03-04_13-51-41
1772632302832318000,1.78331787109375,-0.1338956803518347,-0.0646978053599596,0.1975064393937587,-0.0281298235058784,-0.0375581979751586,0.0067752297036349,standing,2026-03-04_13-51-41
1772632302842265900,1.793265869140625,-0.2046470501297153,-0.1113384143732488,0.0874433056533336,-0.0309952404350042,-0.0114613845944404,-0.0074298409745097,standing,2026-03-04_13-51-41
1772632302852214800,1.80321484375,-0.2148163610370829,-0.068012921257317,-0.0212263279020786,-0.0247708987444639,0.0099355168640613,-0.0122757293283939,standing,2026-03-04_13-51-41
1772632302862163000,1.813162841796875,-0.1375644319924525,-0.0209051331236958,-0.0521206478595733,-0.0137131605297327,0.0176195930689573,-0.0087918099015951,standing,2026-03-04_13-51-41
1772632302872111900,1.82311181640625,-0.0246618370424024,0.0252941618628799,-0.0105623105466365,-0.0040514785796403,0.002113071270287,-0.0014049994060769,standing,2026-03-04_13-51-41
1772632302882059800,1.833059814453125,0.0456326558134518,0.040450083810091,0.0817962396770715,0.0034628163557499,-0.0294562336057424,0.0048501025885343,standing,2026-03-04_13-51-41
1772632302892009000,1.843009033203125,0.0594614390764385,0.0426426254183053,0.1249088206946849,0.0102171255275607,-0.0519618093967437,0.0048285312950611,standing,2026-03-04_13-51-41
1772632302901956900,1.852956787109375,0.0317062208622694,0.0178194420680403,0.1094675059348344,0.0121182482689619,-0.0577057190239429,-0.0032752519473433,standing,2026-03-04_13-51-41
1772632302911906000,1.862906005859375,-0.0409500144225545,0.0225344878911972,0.0693640436053276,0.0043676509521901,-0.0533527843654155,-0.0129891317337751,standing,2026-03-04_13-51-41
1772632302921854000,1.87285400390625,-0.0637104382904246,0.0215749952092766,0.0515928245931863,-0.0119603984057903,-0.0453097559511661,-0.0124374404549598,standing,2026-03-04_13-51-41
1772632302931803000,1.882802978515625,-0.0058221485485322,0.0294799231149256,0.024174071791768,-0.0308038610965013,-0.0256135482341051,-0.004666868597269,standing,2026-03-04_13-51-41
1772632302941751000,1.8927509765625,0.0428048485090024,0.0595879150003194,-0.0435270070374012,-0.0368444435298442,-0.0022666791919618,0.0080217625945806,standing,2026-03-04_13-51-41
1772632302951700000,1.902699951171875,0.0753943367455154,0.1068305815599858,-0.1093026707619428,-0.0340246856212616,0.0159272383898496,0.0224840566515922,standing,2026-03-04_13-51-41
1772632302961647900,1.91264794921875,0.0773475531725212,0.0908054755628108,-0.1378325996756553,-0.0192393027245998,0.0169009976089,0.0324242115020751,standing,2026-03-04_13-51-41
1772632302971597000,1.92259716796875,0.0478291977433487,0.0437897496268153,-0.1508785437315702,-0.0004251338541507,0.0035878552589565,0.0271463599056005,standing,2026-03-04_13-51-41
1772632302981545000,1.932544921875,0.00228460380584,-0.0271902047425508,-0.1070388174831867,0.0210096109658479,-0.0098185585811734,0.0212604738771915,standing,2026-03-04_13-51-41
1772632302991494000,1.942493896484375,-0.010367007170245,-0.0569565435834229,-0.0741816730201244,0.0342891961336135,-0.0185755640268325,0.020954743027687,standing,2026-03-04_13-51-41
1772632303001442000,1.952442138671875,0.0236416454154998,-0.0455859853938221,-0.0133124860376119,0.0369885005056858,-0.0204835012555122,0.0203892141580581,standing,2026-03-04_13-51-41
1772632303011391000,1.962390869140625,0.0636007491045631,-0.0225585994191467,0.0655927083730697,0.0263283997774124,-0.0269541833549737,0.028657529503107,standing,2026-03-04_13-51-41
1772632303021339000,1.9723388671875,0.080234397187829,-0.0074836337536573,0.1574392174214124,0.0088480990380048,-0.0332605801522731,0.0335041843354702,standing,2026-03-04_13-51-41
1772632303031287800,1.982287841796875,0.0590228832623921,-0.0194645789265632,0.1768400834619999,-0.0098076099529862,-0.0367698296904563,0.0296210274100303,standing,2026-03-04_13-51-41
1772632303041236000,1.992236083984375,0.0179768611194565,-0.014218787227571,0.1602759021520614,-0.0236484259366989,-0.0341120921075344,0.0273095965385437,standing,2026-03-04_13-51-41
1772632303051183900,2.002183837890625,-0.0093080909681506,-0.0036183366276323,0.0884895998358726,-0.0328733474016189,-0.0201696418225765,0.0283168070018291,standing,2026-03-04_13-51-41
1772632303061132800,2.0121328125,0.0007069974918849,0.0393834774918854,-0.0019832827717065,-0.0317292585968971,-0.0036997376009821,0.0348902940750122,standing,2026-03-04_13-51-41
1772632303071081000,2.0220810546875,0.000302910203021,0.0826440886780619,-0.0638648616671562,-0.0193588770925998,0.0064820596016943,0.0412856079638004,standing,2026-03-04_13-51-41
1772632303081030000,2.03202978515625,0.0144223835082724,0.0796728177823126,-0.1081289508074521,-0.0060001946985721,0.002210201928392,0.0434510298073291,standing,2026-03-04_13-51-41
1772632303090977800,2.041977783203125,-0.0075276738247834,0.062716276153922,-0.0629267040342092,0.0052788248285651,-0.0119905723258852,0.0432771258056163,standing,2026-03-04_13-51-41
1772632303100927000,2.051927001953125,-0.0044026188731193,0.0558203791603445,-0.0226198280870914,0.0138836652040481,-0.0293345041573047,0.0444299355149269,standing,2026-03-04_13-51-41
1772632303110875000,2.061875,-0.0004033749028109,0.066244011888653,0.0014274024546146,0.0212907157838344,-0.0357902720570564,0.0452967956662178,standing,2026-03-04_13-51-41
1772632303120823800,2.07182373046875,0.003142718472518,0.058818391932547,-0.005841127243638,0.0211844481527805,-0.0278036296367645,0.0502668097615242,standing,2026-03-04_13-51-41
1772632303130772000,2.08177197265625,0.0008421499125659,0.069959963671863,0.0020440730482339,0.0132247917354106,-0.0122358538210392,0.053875658661127,standing,2026-03-04_13-51-41
1772632303140721000,2.091720947265625,-0.0278945353533141,0.0506000141635537,0.0339928704947233,-0.0014538308605551,0.0008507329039275,0.0523051023483276,standing,2026-03-04_13-51-41
1772632303150668800,2.101668701171875,-0.0498016668600961,0.0257629484184086,0.0803489634782075,-0.0156988129019737,0.0082308845594525,0.0472147352993488,standing,2026-03-04_13-51-41
1772632303160617700,2.11161767578125,-0.0547717468902468,-0.0112380178511142,0.1285293492794036,-0.0283552482724189,0.0090443938970565,0.0426687598228454,standing,2026-03-04_13-51-41
1772632303170566000,2.12156591796875,-0.0454622311499901,-0.0246986801877617,0.1442442202836275,-0.0341628044843673,0.0013614413328468,0.0401787050068378,standing,2026-03-04_13-51-41
1772632303180514800,2.131514892578125,-0.0277935957294888,-0.0126741881340742,0.1555599795460701,-0.0352433919906616,-0.0178707800805568,0.041062094271183,standing,2026-03-04_13-51-41
1772632303190462700,2.141462646484375,-0.0027101357415318,0.0003371229998767,0.1373982999116182,-0.0309285372495651,-0.0303490199148654,0.0458627082407474,standing,2026-03-04_13-51-41
1772632303200412000,2.151411865234375,0.0081463171797804,0.0172957104548811,0.0467179120332002,-0.0223985519260168,-0.0225229412317276,0.0529107227921485,standing,2026-03-04_13-51-41
1772632303210359800,2.16135986328125,-0.019939302032534,0.0164944770745933,-0.0381885686188936,-0.0059609883464872,-0.0071977823972702,0.0558668300509452,standing,2026-03-04_13-51-41
1772632303220309000,2.17130908203125,-0.0551779165383428,0.0139572136819362,-0.0432785852342844,0.006253523286432,0.0013302438892424,0.0511223338544368,standing,2026-03-04_13-51-41
1772632303230257000,2.1812568359375,-0.0781452428888529,-0.0452266505621373,0.007327566409111,0.0090541038662195,-0.0129323154687881,0.0421775728464126,standing,2026-03-04_13-51-41
1772632303240206000,2.1912060546875,-0.0840426120980642,-0.0848358996339142,0.1080313356518745,-0.002815106883645,-0.0469884909689426,0.0347324758768081,standing,2026-03-04_13-51-41
1772632303250154000,2.201154052734375,-0.0383941924598999,-0.1116995027706027,0.2060480577677488,-0.0222196988761425,-0.0760190784931182,0.0279086586087942,standing,2026-03-04_13-51-41
1772632303260102700,2.2111025390625,-0.0145606960004195,-0.1063550730027258,0.174917006444931,-0.0385392121970653,-0.0768312960863113,0.0225925929844379,standing,2026-03-04_13-51-41
1772632303270050800,2.22105078125,-0.0528048855303786,-0.0544873769909143,0.0309551102340221,-0.046755064278841,-0.0484571792185306,0.0242743790149688,standing,2026-03-04_13-51-41
1772632303279999700,2.230999755859375,-0.0746025470470078,0.0002820318117737,-0.1037111343652009,-0.0491420701146125,-0.0166003555059433,0.0297879427671432,standing,2026-03-04_13-51-41
1772632303289947600,2.24094775390625,-0.0609503989925608,0.0386927187487483,-0.2229080071538686,-0.0411270223557949,0.0121503304690122,0.0375505238771438,standing,2026-03-04_13-51-41
1772632303299896800,2.250896728515625,-0.0561952768873423,0.0484220856025814,-0.2639408592879772,-0.0226870290935039,0.0289960112422704,0.0450704991817474,standing,2026-03-04_13-51-41
1772632303309844700,2.2608447265625,-0.0570236357365734,0.0394026205837726,-0.2798573903441429,0.0012191017158329,0.0295866969972848,0.0436885841190815,standing,2026-03-04_13-51-41
1772632303319794000,2.2707939453125,-0.0922422121013514,-0.0041369536742568,-0.1934019266843795,0.0185792483389377,0.0117353098466992,0.0356936454772949,standing,2026-03-04_13-51-41
1772632303329741800,2.280741943359375,-0.0855283936764113,-0.0436966645158827,-0.0826870510369539,0.0254925489425659,-0.0093265660107135,0.0296847559511661,standing,2026-03-04_13-51-41
1772632303339691000,2.29069091796875,-0.0431483464507386,-0.0736724083237349,-0.0166273096740245,0.0299602039158344,-0.019655268639326,0.0289234817028045,standing,2026-03-04_13-51-41
1772632303349639000,2.300638916015625,-0.0396701124135404,-0.043168256727606,0.0388420640915632,0.0237750113010406,-0.0271510016173124,0.0278438348323106,standing,2026-03-04_13-51-41
1772632303359587800,2.310587890625,-0.0244369422453455,-0.0197606392636895,0.0806704505175352,0.012203149497509,-0.0285116340965032,0.0306719094514846,standing,2026-03-04_13-51-41
1772632303369536000,2.320535888671875,-0.0097917280329391,-0.0210439570724964,0.1096785183370113,-0.0027169436216354,-0.0230239238590002,0.0294148996472358,standing,2026-03-04_13-51-41
1772632303379485000,2.33048486328125,-0.0650700362058356,-0.019616993009299,0.0978729297310113,-0.0146162072196602,-0.0197126381099224,0.0221945140510797,standing,2026-03-04_13-51-41
1772632303389432800,2.340432861328125,-0.1047522774485871,-0.0145003806479275,0.0709083504378795,-0.0180285163223743,-0.00844107568264,0.0128036765381693,standing,2026-03-04_13-51-41
1772632303399381800,2.3503818359375,-0.135860514151398,-0.0153678111322224,0.0339408480465412,-0.0211015958338975,-0.00034188805148,0.0045242900960147,standing,2026-03-04_13-51-41
1772632303409330000,2.360329833984375,-0.1083174956494942,0.00184168234393,0.0084621233969926,-0.0165824778378009,0.010540853254497,0.0048883440904319,standing,2026-03-04_13-51-41
1772632303419278800,2.37027880859375,-0.0560620424291118,0.0603078998379409,0.0003974748849868,-0.009004128165543,0.0115006733685731,0.0140819931402802,standing,2026-03-04_13-51-41
1772632303429226800,2.380226806640625,0.0148872976062819,0.0712827367082238,0.0022445640563964,0.0004343814216554,0.0007167356088757,0.0201300308108329,standing,2026-03-04_13-51-41
1772632303439176000,2.390176025390625,0.024252744784858,0.0800393130071461,0.0382686481177806,0.0063192723318934,-0.0149510484188795,0.0242023281753063,standing,2026-03-04_13-51-41
1772632303449123800,2.400123779296875,-0.0107850681855343,0.0695167499490082,0.072350950461626,0.0039786202833056,-0.0338317938148975,0.0154634332284331,standing,2026-03-04_13-51-41
1772632303459072800,2.41007275390625,-0.0321232772305607,0.0270776842787861,0.0789671537309885,-0.001868191640824,-0.0362126678228378,0.0065407273359596,standing,2026-03-04_13-51-41
1772632303469021000,2.42002099609375,-0.0755810366903431,0.001758534105122,0.0396077877670526,-0.0120726265013217,-0.0233163107186555,-0.0039089838974177,standing,2026-03-04_13-51-41
1772632303478969900,2.429969970703125,-0.1084814540395513,-4.80769254267e-05,0.013843816435337,-0.024071205407381,-0.0113421473652124,-0.0062749632634222,standing,2026-03-04_13-51-41
1772632303488917800,2.439917724609375,-0.0574830151429399,0.0354683498747646,-0.0207692317843437,-0.0282856561243534,-0.0022208211012184,0.0038037695921957,standing,2026-03-04_13-51-41
1772632303498866700,2.44986669921875,0.0120878213471733,0.0572498274415731,-0.0768248810052871,-0.0204539522528648,0.014856812544167,0.0188804138451814,standing,2026-03-04_13-51-41
1772632303508814800,2.45981494140625,0.0122371666899882,0.0837369984813034,-0.148055303004384,-0.0030304873362183,0.0262319725006818,0.0275806933641433,standing,2026-03-04_13-51-41
1772632303518763800,2.469763671875,-0.0280117685248143,0.0576633766785264,-0.1481459038972854,0.0116794211789965,0.0180563181638717,0.0276646986603736,standing,2026-03-04_13-51-41
1772632303528711700,2.479711669921875,-0.0800372489142231,-0.0261693372622132,-0.0933282720386981,0.0210612043738365,0.0037151942960917,0.0176948867738246,standing,2026-03-04_13-51-41
1772632303538660900,2.489660888671875,-0.1291799038763157,-0.1044246894620358,-0.0204594351828098,0.0217318050563335,-0.0083358474075794,-0.000892125070095,standing,2026-03-04_13-51-41
1772632303548608800,2.49960888671875,-0.1448387155780568,-0.1194058393642306,0.024808278042078,0.0101710222661495,-0.0137993218377232,-0.0120302634313702,standing,2026-03-04_13-51-41
1772632303558556700,2.509556640625,-0.1186666566357947,-0.1325762865826487,0.0925648864507675,-0.0049122930504381,-0.0073810252360999,-0.0140540804713964,standing,2026-03-04_13-51-41
1772632303568505900,2.519505859375,-0.067734286979027,-0.1188360766522586,0.1139998886674642,-0.017563372850418,-0.0026760185137391,-0.0112921148538589,standing,2026-03-04_13-51-41
1772632303578453800,2.529453857421875,-0.0234914963550865,-0.0881906168892979,0.0542839633733034,-0.0206571668386459,0.0055716168135404,-0.0012117604492232,standing,2026-03-04_13-51-41
1772632303588402700,2.539402587890625,-0.0055336321970447,-0.0283092719003558,-0.0110088852703571,-0.0146512044593691,0.0101594440639019,0.0046791518107056,standing,2026-03-04_13-51-41
1772632303598350800,2.549350830078125,-0.0375640252460725,-0.025229718324542,-0.0605839403003454,-0.0013958509080111,0.0079951491206884,-0.0012189820408821,standing,2026-03-04_13-51-41
1772632303608299800,2.5592998046875,-0.0841735815339721,-0.0323658538147807,-0.0682972911566495,0.0111950412392616,-0.0007125884294509,-0.0090614594519138,standing,2026-03-04_13-51-41
1772632303618247700,2.56924755859375,-0.1075689423045143,-0.0641106531217694,-0.0701367815434932,0.0157484803348779,-0.0031520039774477,-0.0133735621348023,standing,2026-03-04_13-51-41
1772632303628196600,2.579196533203125,-0.0711619050738401,-0.0477582148663699,-0.0653197366505861,0.0205006245523691,-0.0015037734992802,-0.0127924596890807,standing,2026-03-04_13-51-41
1772632303638144800,2.589144775390625,-0.0513178070440888,-0.0003263093449175,-0.0302934314548969,0.0174277462065219,-0.0010854254942387,-0.0085492832586169,standing,2026-03-04_13-51-41
1772632303648094000,2.599093994140625,-0.0306834719520993,0.0187726511396467,0.0103296708345413,0.0139741580933332,-0.0091992784291505,-0.0021198794711381,standing,2026-03-04_13-51-41
1772632303658041600,2.60904150390625,-0.0102150680115446,0.0199034087352454,0.0029518355429172,0.0162516999989748,-0.0099344290792942,0.0045039281249046,standing,2026-03-04_13-51-41
1772632303667991000,2.618990966796875,-0.0180951720031909,0.0541286266811192,-0.0286164381533861,0.024885669350624,-0.0011044524144381,0.0048421490937471,standing,2026-03-04_13-51-41
1772632303677939000,2.62893896484375,-0.0606371135259978,0.0781043994218111,-0.0501233365625143,0.0314459837973117,0.0061577782034873,0.0032160109840333,standing,2026-03-04_13-51-41
1772632303687888000,2.638887939453125,-0.0736525528457947,0.0680862787544727,-0.0012023615270853,0.0287332870066165,0.0117216538637876,0.0011203696485608,standing,2026-03-04_13-51-41
1772632303697836000,2.6488359375,-0.0525908043882809,0.0565728049628436,0.0557324086159467,0.0203301608562469,0.0110449846833944,1.0980758816e-05,standing,2026-03-04_13-51-41
1772632303707785000,2.658784912109375,-0.0437447962402366,0.0514727053448557,0.1531090792626142,0.0032089634332805,0.0005159105639904,-0.0059552988968789,standing,2026-03-04_13-51-41
1772632303717732900,2.66873291015625,-0.0351705725045874,0.0499045792452991,0.2105062062203884,-0.013770380988717,-0.0112817231565713,-0.0040152580477297,standing,2026-03-04_13-51-41
1772632303727681800,2.678681884765625,-0.0125659785192459,0.0382949516028165,0.1916565443217754,-0.0224813148379325,-0.0127757564187049,0.0007328917272388,standing,2026-03-04_13-51-41
1772632303737630000,2.6886298828125,-0.0099742449929937,0.0624278146013617,0.1017418801188468,-0.0175029728561639,0.0041232812218368,0.0041351597756147,standing,2026-03-04_13-51-41
1772632303747579000,2.698578857421875,-0.035170079314243,0.1183349952623248,-0.0042097266495227,-0.0056037036702036,0.0246011242270469,0.0101030375808477,standing,2026-03-04_13-51-41
1772632303757526800,2.70852685546875,-0.041832551144436,0.0963924819149077,-0.0205506205976009,0.004960311576724,0.0317780934274196,0.0086983703076839,standing,2026-03-04_13-51-41
1772632303767476000,2.71847607421875,-0.0339714989131316,0.0428789183922111,0.0322568404823541,0.010713804513216,0.0231097713112831,0.0058533153496682,standing,2026-03-04_13-51-41
1772632303777424000,2.728423828125,-0.0248272750034928,-0.0077655194349586,0.111999070239067,0.0063088368624448,-0.0035729482769966,-0.0010648427996784,standing,2026-03-04_13-51-41
1772632303787372800,2.738372802734375,-0.022286632343661,-0.0476829576730728,0.2088876651078462,-0.0108991786837577,-0.0381929762661457,-0.0105757899582386,standing,2026-03-04_13-51-41
1772632303797321000,2.748321044921875,-0.0168238734257407,-0.0874000510334968,0.2483247724831104,-0.0305336527526378,-0.0628824830055236,-0.0166972242295742,standing,2026-03-04_13-51-41
1772632303807270000,2.758269775390625,-0.0183958171838894,-0.0863587252870202,0.1701169126868248,-0.0453152619302272,-0.0571782551705837,-0.0153531264513731,standing,2026-03-04_13-51-41
1772632303817217800,2.7682177734375,-0.0561234263606835,-0.0276657132998108,0.0014729951620101,-0.0473780333995819,-0.0277762711048126,-0.0087127573788166,standing,2026-03-04_13-51-41
1772632303827166700,2.778166748046875,-0.0694829390109516,0.0260676304534077,-0.1788327185839414,-0.034901387989521,0.0140476077795028,0.0028898362070322,standing,2026-03-04_13-51-41
1772632303837115000,2.788114990234375,-0.06420859707091,0.0826356131106615,-0.299307356223464,-0.0114801283925771,0.0490372329950332,0.0148847922682762,standing,2026-03-04_13-51-41
1772632303847063800,2.798063720703125,-0.0859322252369485,0.0764563399538397,-0.3035954088062048,0.0129905929788947,0.0568671897053718,0.0169993434101343,standing,2026-03-04_13-51-41
1772632303857011700,2.80801171875,-0.0983144994860514,0.0387897493824362,-0.2019540664523839,0.0323544926941394,0.0360218472778797,0.008996695280075,standing,2026-03-04_13-51-41
1772632303866960600,2.817960693359375,-0.0745548354477621,-0.0489751894406974,-0.0508130723923444,0.0448308736085891,0.0020159443374723,0.0016772630624473,standing,2026-03-04_13-51-41
1772632303876908800,2.82790869140625,-0.0656566769873723,-0.10488777692914,0.059409635823965,0.0476866886019706,-0.0165846329182386,-0.0038386257365345,standing,2026-03-04_13-51-41
1772632303886857700,2.837857666015625,-0.0460882175612263,-0.0662847822904586,0.1125198792427778,0.0397880189120769,-0.0269041154533624,-0.0048120114952325,standing,2026-03-04_13-51-41
1772632303896806000,2.847805908203125,-0.0262316984413191,-0.0331590500190854,0.1573275737404823,0.0207976512610912,-0.0331765338778495,-0.006938221398741,standing,2026-03-04_13-51-41
1772632303906754800,2.8577548828125,-0.0094888178299181,-0.0410328521341085,0.1777764875292778,-0.0054848180152475,-0.0228442680090665,-0.0042385747656226,standing,2026-03-04_13-51-41
1772632303916702700,2.86770263671875,-0.0456649141152389,-0.0367602893814444,0.1268687225908041,-0.0281023513525724,0.0072479965165257,-0.0055268034338951,standing,2026-03-04_13-51-41
1772632303926651600,2.877651611328125,-0.1101932811924256,-0.0338002705320715,0.063009121620655,-0.0410863235592842,0.0296097584068775,-0.0078338999301195,standing,2026-03-04_13-51-41
1772632303936599800,2.887599853515625,-0.1395065973024815,-0.0315370017752051,0.0041460137635469,-0.0427437685430049,0.0329512357711792,-0.013767372816801,standing,2026-03-04_13-51-41
1772632303946549000,2.897549072265625,-0.1095185785349458,-0.0348541634991765,-0.0082388360351324,-0.0306197311729192,0.0250877179205417,-0.0148209193721413,standing,2026-03-04_13-51-41
1772632303956496600,2.90749658203125,-0.063515792501159,-0.019287761054933,-0.0699690237611532,-0.0063712801784276,0.0272626988589763,-0.003872865345329,standing,2026-03-04_13-51-41
1772632303966445800,2.91744580078125,-0.004220211510919,0.0163483466021716,-0.1130973868697881,0.0248393714427948,0.0268214140087366,0.0066005480475723,standing,2026-03-04_13-51-41
1772632303976394000,2.92739404296875,-0.0080438249196857,0.0167804544091224,-0.0829559311062097,0.0436649657785892,0.0047244364395737,0.005657862406224,standing,2026-03-04_13-51-41
1772632303986343000,2.937343017578125,-0.0217741710431873,-0.0263220436058938,0.0101075525164604,0.0407525338232517,-0.0160599388182163,-0.0002490289043635,standing,2026-03-04_13-51-41
1772632303996290800,2.947290771484375,-0.030215142054297,-0.0893197670497,0.1447515852838754,0.026718869805336,-0.0222814120352268,-0.0078478492796421,standing,2026-03-04_13-51-41
1772632304006240000,2.957239990234375,-0.0523953183487988,-0.1042693527698516,0.1952840871691703,0.0026742541231215,-0.016095420345664,-0.0122332759201526,standing,2026-03-04_13-51-41
1772632304016188000,2.96718798828125,-0.0508805846706032,-0.0747210405938327,0.2330173132359981,-0.022129338234663,-0.0205577556043863,-0.0172437764704227,standing,2026-03-04_13-51-41
1772632304026136800,2.97713671875,-0.0492184601446613,-0.0561253534562885,0.2321849540650844,-0.0448445007205009,-0.0188831593841314,-0.0170485656708478,standing,2026-03-04_13-51-41
1772632304036085000,2.9870849609375,-0.0273439705321565,-0.0104721480451524,0.1239876141965389,-0.0541152507066726,0.0075263138860464,-0.0077818175777792,standing,2026-03-04_13-51-41
1772632304046034000,2.997033935546875,-0.0211324208072386,0.0350827115580439,-0.0079068276017904,-0.0470421612262725,0.0341371521353721,-0.0034930626861751,standing,2026-03-04_13-51-41
1772632304055981800,3.00698193359375,-0.0322956746554002,0.0643007688663899,-0.0715893184393644,-0.0340709798038005,0.0263353642076253,-0.0077098817564547,standing,2026-03-04_13-51-41
1772632304065930800,3.0169306640625,-0.0470506328525952,0.0456584661081433,-0.0793546917438507,-0.0168848019093275,0.0056255585514009,-0.0052003851160407,standing,2026-03-04_13-51-41
1772632304075879000,3.02687890625,0.0061650985009968,0.0609755699664354,-0.1069663367688655,0.0050480356439948,0.0074747162871062,0.0047167520970106,standing,2026-03-04_13-51-41
1772632304085827800,3.036827880859375,0.0365582457370124,0.117108229946345,-0.1245405719041824,0.0208451077342033,0.0108963456004858,0.0124439131468534,standing,2026-03-04_13-51-41
1772632304095775700,3.046775634765625,0.0224180401709862,0.1438381237007677,-0.0318143574118614,0.0223956666886806,-0.0040993075817823,0.0116389617323875,standing,2026-03-04_13-51-41
1772632304105725000,3.056724853515625,0.0431593610350973,0.1046278108187019,0.051015316966176,0.0094236768782138,-0.0159671530127525,0.0165759287774562,standing,2026-03-04_13-51-41
1772632304115672800,3.0666728515625,0.028597002800554,0.0666026160679757,0.10910276427567,-0.0107857203111052,-0.0068695275112986,0.0190255045890808,standing,2026-03-04_13-51-41
1772632304125620700,3.076620849609375,0.0027326398342847,0.0695092972949147,0.1556535030484199,-0.0324127189815044,-0.004796256776899,0.0164723321795463,standing,2026-03-04_13-51-41
1772632304135570000,3.08656982421875,-0.001911697106529,0.0650312750980258,0.1526654271483421,-0.0502897799015045,0.0012459056451916,0.0216807909309864,standing,2026-03-04_13-51-41
1772632304145517800,3.096517822265625,0.0045845695775933,0.0599970803231,0.0747007284581661,-0.0542267337441444,0.0245874486863613,0.0343268103897571,standing,2026-03-04_13-51-41
1772632304155466800,3.106466796875,-0.0032517500712536,0.0923885069705545,-0.0259597861647605,-0.0427630953490734,0.0348795168101787,0.0407651551067829,standing,2026-03-04_13-51-41
1772632304165415000,3.116414794921875,-0.0246829528956674,0.0760863375976681,-0.01810907266438,-0.0352947898209095,0.0008286056108772,0.0379219613969326,standing,2026-03-04_13-51-41
1772632304175363800,3.12636376953125,-0.0323615794984623,0.0090026600144803,0.0323310747623443,-0.0234455484896898,-0.0353535264730453,0.0352840088307857,standing,2026-03-04_13-51-41
1772632304185311700,3.136311767578125,-0.0454035962979309,-0.0566452856771647,-0.0184393275320529,-0.0041347001679241,-0.0314879491925239,0.0334754548966884,standing,2026-03-04_13-51-41
1772632304195260700,3.1462607421875,-0.1105463324137963,-0.0370686246782541,-0.1296627372235059,0.013852035626769,-0.006453139707446,0.0308141466230154,standing,2026-03-04_13-51-41
1772632304205208800,3.156208740234375,-0.1553504101823083,-0.0278418005190789,-0.1650765804320573,0.0189653038978576,0.0061795650981366,0.0267560202628374,standing,2026-03-04_13-51-41
1772632304215157800,3.16615771484375,-0.1191832826547324,-0.0898439370542764,-0.1059106902360916,0.0139565821737051,0.0128943054005503,0.0310655049979686,standing,2026-03-04_13-51-41
1772632304225105700,3.176105712890625,-0.0699777550568804,-0.114182113366574,-0.0336672918021678,0.0073894928209483,0.0201287828385829,0.0323494151234626,standing,2026-03-04_13-51-41
1772632304235054800,3.186054931640625,-0.1046834317297674,-0.1012852223925292,0.03886661401093,-0.0029654586687684,0.0018123716581612,0.0180549994111061,standing,2026-03-04_13-51-41
1772632304245002800,3.196002685546875,-0.1634252147621475,-0.1702189117565751,0.1006838954985141,-0.0153044154867529,-0.0208974666893482,0.0053093750029802,standing,2026-03-04_13-51-41
1772632304254951700,3.20595166015625,-0.1490639868565835,-0.2216851873606443,0.0510790298521518,-0.0117064444348216,-0.0095243602991104,-0.0006761571858078,standing,2026-03-04_13-51-41
1772632304264899800,3.21589990234375,-0.152344816891849,-0.1684206301629543,-0.0863163474500179,-0.0049417484551668,0.0232556909322738,-0.0031449075322598,standing,2026-03-04_13-51-41
1772632304274849000,3.22584912109375,-0.1876700137025676,-0.0968064695432782,-0.1597106694847345,0.0065910774283111,0.0463441424071788,-0.0016945726238191,standing,2026-03-04_13-51-41
1772632304284796700,3.235796630859375,-0.1324863067442551,-0.1048009754285216,-0.1111532670646905,0.0134393963962793,0.049506913870573,0.0025774042587727,standing,2026-03-04_13-51-41
1772632304294745900,3.245745849609375,-0.0854459578236565,-0.1199408230237662,0.0181698629409074,0.0131465028971433,0.0308785028755664,-5.04448544234e-05,standing,2026-03-04_13-51-41
1772632304304694000,3.255694091796875,-0.0842458613188937,-0.1407869194366037,0.148769588753581,0.0104023814201354,-0.0142487622797489,-0.0120202880352735,standing,2026-03-04_13-51-41
1772632304314643000,3.265642822265625,-0.092256605952885,-0.165093093175441,0.2176917338103055,0.0072876517660915,-0.0591884143650531,-0.0236004553735256,standing,2026-03-04_13-51-41
1772632304324590800,3.2755908203125,-0.0994119758665561,-0.1658674385488033,0.1813543460160493,0.0058841658756136,-0.0707326829433441,-0.0335817150771617,standing,2026-03-04_13-51-41
1772632304334539800,3.285539794921875,-0.1069373298700898,-0.1126756543263793,0.0393856694489717,0.002322984393686,-0.0471453890204429,-0.0424220487475395,standing,2026-03-04_13-51-41
1772632304344488000,3.295488037109375,-0.151197656150721,-0.0229690799161791,-0.0804448250681161,-0.0028259716928005,-0.014059342443943,-0.0419445410370826,standing,2026-03-04_13-51-41
1772632304354436900,3.305436767578125,-0.1165270690575241,0.0493710568904876,-0.1434983703523874,-0.009551303461194,0.0114464703947305,-0.030672637745738,standing,2026-03-04_13-51-41
1772632304364384800,3.315384765625,-0.0460001739515922,0.1010984676487743,-0.1616553738117218,-0.0075893527828156,0.029124267399311,-0.0165229961276054,standing,2026-03-04_13-51-41
1772632304374334000,3.325333984375,0.0026258549915626,0.1203853519208729,-0.1828366935282945,0.0107676722109317,0.0452358908951282,-0.0005178938154131,standing,2026-03-04_13-51-41
1772632304384281900,3.33528173828125,0.0239544559580273,0.1271171443939208,-0.2067822172611951,0.0416957587003707,0.0525683723390102,0.0065341563895344,standing,2026-03-04_13-51-41
1772632304394230800,3.345230712890625,-0.0022203246642835,0.1215064649052918,-0.1768102728456258,0.0655343383550643,0.0357693955302238,0.0033682552166283,standing,2026-03-04_13-51-41
1772632304404179000,3.355178955078125,-0.0220286389946006,0.0761199476063251,-0.0193839149057865,0.0732511207461357,0.0056157568469643,-0.0038965819403529,standing,2026-03-04_13-51-41
1772632304414127900,3.3651279296875,0.0016647000755183,0.0010626607954502,0.1335807874500751,0.0678102821111679,-0.0190917216241359,-0.0090681742876768,standing,2026-03-04_13-51-41
1772632304424075800,3.37507568359375,-0.0058293820069171,-0.0228635737150907,0.2303600767254829,0.0462527908384799,-0.0263115502893924,-0.0150866517797112,standing,2026-03-04_13-51-41
1772632304434024700,3.385024658203125,-0.0066177193730138,-0.0026592823371291,0.3214046217411756,0.011406660079956,-0.0236521176993846,-0.0172371547669172,standing,2026-03-04_13-51-41
1772632304443972900,3.394972900390625,0.0035422757167369,0.0005520809248089,0.3495440900325774,-0.0267191529273986,-0.0228073634207248,-0.0179415605962276,standing,2026-03-04_13-51-41
1772632304453921800,3.404921875,-0.0076776767547242,-0.0153740947425365,0.2859381715625524,-0.0472068041563034,-0.0090541588142514,-0.0205989573150873,standing,2026-03-04_13-51-41
1772632304463869700,3.41486962890625,-0.0170609518509358,0.0129684949055314,0.1160410391062498,-0.0484433099627494,0.0140729984268546,-0.0169158037751913,standing,2026-03-04_13-51-41
1772632304473819000,3.42481884765625,-0.0298651961054652,0.074041533897072,-0.0124941553920507,-0.0404879562556743,0.0219501368701457,-0.0107057597488164,standing,2026-03-04_13-51-41
1772632304483766800,3.434766845703125,-0.0178076237660832,0.0798186559937894,-0.0702706370562314,-0.0245920792222023,0.0197282619774341,-0.0066167418844997,standing,2026-03-04_13-51-41
1772632304493715700,3.4447158203125,0.0026389336688444,0.0438781585626304,-0.1253378597617149,-0.0016465121880173,0.0130769768729805,-0.0070677013136446,standing,2026-03-04_13-51-41
1772632304503663900,3.454663818359375,-0.0279744687217287,0.048181408714503,-0.1410445474594831,0.018310684710741,0.0052613979205489,-0.0078868903219699,standing,2026-03-04_13-51-41
1772632304513612800,3.46461279296875,-0.0226777870857156,0.0306578808531165,-0.0894715966105461,0.0303473733365535,-0.0051443721167743,-0.007993415929377,standing,2026-03-04_13-51-41
1772632304523560700,3.474560791015625,-0.0305646130790933,-0.000782236418873,-0.0396148020297288,0.0306698828935623,-0.0166774578392505,-0.0141509100794792,standing,2026-03-04_13-51-41
1772632304533509600,3.484509521484375,-0.0560567086668685,-0.0102197807192802,-0.0131996733129024,0.0255859103053808,-0.018385462462902,-0.0201246552169322,standing,2026-03-04_13-51-41
1772632304543457800,3.494457763671875,-0.0596340374306775,-0.0073582538083195,-0.0284597862869501,0.0171210542321205,-0.0052704587578773,-0.019408531486988,standing,2026-03-04_13-51-41
1772632304553406700,3.50440673828125,-0.0237028740834444,0.0164252112306654,-0.0396995577037334,0.0052612572908401,0.0157232582569122,-0.0108710844069719,standing,2026-03-04_13-51-41
1772632304563354600,3.514354736328125,-0.0159003105737268,0.0279670343339443,-0.0180313312530517,-0.0066800899803638,0.0372304134070873,-0.006060083862394,standing,2026-03-04_13-51-41
1772632304573304000,3.524303955078125,-0.0405745687062852,0.0027734102360904,-0.0086900869339704,-0.0112490095198154,0.0464758425951004,-0.0050768447108566,standing,2026-03-04_13-51-41
1772632304583251700,3.534251708984375,-0.0670158913102932,-0.0300362418234348,0.0029120880544185,-0.0097389966249465,0.0394051484763622,-0.0105850603431463,standing,2026-03-04_13-51-41
1772632304593201000,3.544200927734375,-0.0798210306139662,-0.0780699126303196,0.040968554726243,-0.0033034733496606,0.0235682502388954,-0.0179849117994308,standing,2026-03-04_13-51-41
1772632304603149000,3.554149169921875,-0.076523669569008,-0.0807851629383862,0.0331084888756275,0.0102192591875791,0.0116918832063674,-0.0215135999023914,standing,2026-03-04_13-51-41
1772632304613098000,3.564097900390625,-0.0725545650086365,-0.0667506462365388,0.0402303035795688,0.0185277890413999,-0.0028923859354108,-0.0282687097787857,standing,2026-03-04_13-51-41
1772632304623046000,3.5740458984375,-0.0437839774731546,-0.0584358223557472,0.0414577995479106,0.021561661735177,-0.0128920227289199,-0.0250646583735942,standing,2026-03-04_13-51-41
1772632304632994800,3.583994873046875,-0.0001194251285865,-0.0363750894561409,0.0429915849864482,0.0192933995276689,-0.0056325010955333,-0.0171624273061752,standing,2026-03-04_13-51-41
1772632304642943000,3.59394287109375,-0.0077505958604626,-0.0001468611247837,0.0387047014474868,0.015265367925167,-0.0014279023744165,-0.0172473825514316,standing,2026-03-04_13-51-41
1772632304652892000,3.603891845703125,-0.058288139247056,0.0091033439099788,0.0506938299268484,0.0034843913745135,-0.000273699639365,-0.0231162905693054,standing,2026-03-04_13-51-41
1772632304662839800,3.61383984375,-0.0474382987296208,-0.0268304315194487,0.0413046548128128,-0.0074092685244977,0.0074862195178866,-0.0210994780063629,standing,2026-03-04_13-51-41
1772632304672788700,3.623788818359375,-0.0405035858293063,-0.0199159759558737,0.0331745398491621,-0.0119504956528544,0.018773466348648,-0.023309888318181,standing,2026-03-04_13-51-41
1772632304682737000,3.63373681640625,-0.0539939857170917,0.0036992929093539,-0.0050344870358705,-0.0080425729975104,0.0145939011126756,-0.0293163824826478,standing,2026-03-04_13-51-41
1772632304692685800,3.643685791015625,-0.0680117156809195,-0.0097075934134423,-0.0221890354543924,-0.003240252379328,0.0049632648006081,-0.0316500663757324,standing,2026-03-04_13-51-41
1772632304702634000,3.653634033203125,-0.0234158555692993,0.0137922323785722,-0.0328133053213357,0.0009885812178254,0.0094192661345005,-0.0247386321425437,standing,2026-03-04_13-51-41
1772632304712583000,3.6635830078125,0.0216752407133579,0.0352658130399882,-0.0754231975138187,0.010365517809987,0.0203279703855514,-0.015423584729433,standing,2026-03-04_13-51-41
1772632304722530800,3.67353076171875,-0.0055212841721251,0.0818809953510761,-0.0948275706857442,0.0186831019818782,0.0136189358308911,-0.0155807118862867,standing,2026-03-04_13-51-41
1772632304732479700,3.683479736328125,-0.0290422075510956,0.055726271136105,-0.0686801529943943,0.0251932069659233,0.0065642492845654,-0.0148930978029966,standing,2026-03-04_13-51-41
1772632304742428000,3.693427978515625,-0.0033098004014231,0.0463663221165537,-0.0521849452674388,0.0294454768300056,0.017509575933218,-0.0096948742866516,standing,2026-03-04_13-51-41
1772632304752376800,3.703376953125,-0.0086190857906825,0.0557948063276708,-0.0276940626114606,0.0311927963048219,0.0292754508554935,-0.0091233728453516,standing,2026-03-04_13-51-41
1772632304762324700,3.71332470703125,-0.0254881500650197,0.0569854774169623,0.0481406383126974,0.0253088064491748,0.0219482947140932,-0.0144931050017476,standing,2026-03-04_13-51-41
1772632304772273000,3.72327294921875,-0.0267222401709295,0.0336944720700383,0.1353916362643241,0.0113795986399054,0.0054355850443243,-0.0176847744733095,standing,2026-03-04_13-51-41
1772632304782221800,3.733221923828125,-0.0556973007699474,0.0058832128196954,0.1799362959116697,-0.004965019878,0.0118324980139732,-0.0174080729484558,standing,2026-03-04_13-51-41
1772632304792169700,3.743169677734375,-0.0454931194785982,0.0040245793409645,0.1595575247496366,-0.0166740920394659,0.0242610443383455,-0.0173008404672145,standing,2026-03-04_13-51-41
1772632304802118700,3.75311865234375,-0.046017746140901,0.0121143622942268,0.1272925009608268,-0.0170770287513732,0.0291111953556537,-0.0187104512006044,standing,2026-03-04_13-51-41
1772632304812066800,3.76306689453125,-0.0297785955342464,0.0094661858730018,0.101853523799777,-0.0104319602251052,0.03052294626832,-0.0149259995669126,standing,2026-03-04_13-51-41
1772632304822015700,3.773015625,-0.0016103760723955,0.0231609492264688,0.0560492194801569,0.0040649566799402,0.0286957509815692,-0.0119280777871608,standing,2026-03-04_13-51-41
1772632304831964000,3.7829638671875,0.0101177451169118,0.016789660628885,0.0612754296958446,0.0119623467326164,0.0013693119399249,-0.0129718724638223,standing,2026-03-04_13-51-41
1772632304841912800,3.792912841796875,-0.0179561105923727,-0.0260392811417579,0.1305915425062179,0.0089364629238843,-0.0399565584957599,-0.0272762421518564,standing,2026-03-04_13-51-41
1772632304851860700,3.80286083984375,-0.033880477895122,-0.0948253787286579,0.1754255404889583,-0.0064003490842878,-0.0573091357946395,-0.0376025140285491,standing,2026-03-04_13-51-41
1772632304861809700,3.8128095703125,-0.0314434965391643,-0.0794942463450133,0.1392722770899534,-0.0279874000698328,-0.0463968329131603,-0.0388739071786403,standing,2026-03-04_13-51-41
1772632304871757800,3.8227578125,-0.0420367502133361,-0.032341011634469,0.0402092607915401,-0.0445351190865039,-0.0228358712047338,-0.0372072346508502,standing,2026-03-04_13-51-41
1772632304881706800,3.832706787109375,-0.0609187434789724,0.0253564134441316,-0.0789262371987104,-0.0513599999248981,0.0121665885671973,-0.0282925702631473,standing,2026-03-04_13-51-41
1772632304891654700,3.842654541015625,-0.0313174224740825,0.0748788615040481,-0.2086217076480388,-0.0440536141395568,0.0480863898992538,-0.0109921498224139,standing,2026-03-04_13-51-41
1772632304901603800,3.852603759765625,-0.0358315754302777,0.1024701943933963,-0.281455473190546,-0.0188332144170999,0.0556351169943809,-0.0043939021416008,standing,2026-03-04_13-51-41
1772632304911551700,3.8625517578125,-0.0664986077042296,0.0621942981064319,-0.3182400202304125,0.020723408088088,0.037708044052124,-0.0066190240904688,standing,2026-03-04_13-51-41
1772632304921501000,3.8725009765625,-0.0900832257028669,-0.0012413783632218,-0.2772667893290519,0.0563583672046661,0.0238465555012226,-0.0122944861650466,standing,2026-03-04_13-51-41
1772632304931448800,3.88244873046875,-0.0839072222153656,-0.0296980959102511,-0.1938923405498266,0.0790635719895362,0.0140242790803313,-0.0187026336789131,standing,2026-03-04_13-51-41
1772632304941398000,3.89239794921875,-0.0861719888095743,-0.0380475527130067,-0.0569341856211423,0.0772006884217262,-0.0067129568196833,-0.0226832628250122,standing,2026-03-04_13-51-41
1772632304951346000,3.902345947265625,-0.0476537681112065,-0.0451337115816771,0.1092921493679285,0.0525235757231712,-0.0102211385965347,-0.0212494172155857,standing,2026-03-04_13-51-41
1772632304961294800,3.912294921875,-0.0195720578890293,-0.0448528488136827,0.2234247245043516,0.0160177592188119,0.0031002592295408,-0.0157308131456375,standing,2026-03-04_13-51-41
1772632304971243000,3.922242919921875,-0.0142313544481992,-0.0276319571606814,0.2573947986453771,-0.0170143283903598,0.0068064555525779,-0.0198057740926742,standing,2026-03-04_13-51-41
1772632304981192000,3.93219189453125,-0.0425711493509821,-0.0408634869165718,0.2473380995333194,-0.0400562658905983,0.0036652572453022,-0.0236801393330097,standing,2026-03-04_13-51-41
1772632304991139800,3.942139892578125,-0.0584331372083164,-0.0531160886377096,0.1681827297538518,-0.0423987358808517,0.0097866412252187,-0.0290704723447561,standing,2026-03-04_13-51-41
1772632305001088800,3.9520888671875,-0.0545425777768716,-0.0155251936510205,0.0699374595791101,-0.031727448105812,0.0154277486726641,-0.0323392339050769,standing,2026-03-04_13-51-41
1772632305011037000,3.962036865234375,-0.0506775729117915,0.0073081310562789,-0.0171434425026178,-0.0129860918968915,0.0057253143750131,-0.0355507917702198,standing,2026-03-04_13-51-41
1772632305020985900,3.97198583984375,-0.0533808405211195,0.0267540052823722,-0.0810182410418987,0.0075775058940052,0.006476059090346,-0.0348554402589798,standing,2026-03-04_13-51-41
1772632305030933800,3.981933837890625,-0.0027231596198864,0.0763796214558184,-0.1041845970958471,0.025357412174344,0.0137080261483788,-0.0248943772166967,standing,2026-03-04_13-51-41
1772632305040883000,3.991883056640625,0.0391109989597462,0.1117931724034249,-0.0763508337527513,0.0324723124504089,0.0029286153148859,-0.0167522933334112,standing,2026-03-04_13-51-41
1772632305050830800,4.001830810546875,0.0325169892558828,0.0913492270506918,0.005372925209999,0.0272050164639949,-0.0119738783687353,-0.0159558076411485,standing,2026-03-04_13-51-41
1772632305060779800,4.01177978515625,0.034999581585545,0.070955988971889,0.0463660298556089,0.0187569353729486,-0.0097943469882011,-0.0139592355117201,standing,2026-03-04_13-51-41
1772632305070728000,4.02172802734375,0.0068684061984531,0.065947367029637,0.0271779297828674,0.0089872861281037,-0.0013675787486135,-0.0143193453550338,standing,2026-03-04_13-51-41
1772632305080676900,4.0316767578125,-0.0204694816527888,0.0932845790274441,0.0377577759861946,-0.0037881638854742,0.0035803082864731,-0.0131981540471315,standing,2026-03-04_13-51-41
1772632305090624800,4.041624755859375,-0.0038894999855197,0.0833148275464773,0.0380149656176567,-0.0119309350848197,0.0116928350180387,-0.009287784807384,standing,2026-03-04_13-51-41
1772632305100573700,4.05157373046875,-0.010739932135865,0.0610768383838236,-0.0026700959920883,-0.0155901182442903,0.0270456932485103,-0.0080424901098012,standing,2026-03-04_13-51-41
1772632305110521900,4.06152197265625,-0.0528582596854306,0.057401949263364,-0.0023000936359167,-0.0199044533073902,0.0189693327993154,-0.0110441092401742,standing,2026-03-04_13-51-41
1772632305120470800,4.071470703125,-0.0688459014827385,0.0187976394504308,0.0148638071328401,-0.0162958689033985,0.0076170763932168,-0.0111919147893786,standing,2026-03-04_13-51-41
1772632305130418700,4.081418701171875,-0.0317353373588994,0.0066815235905349,-0.0391676427841186,-0.002333169337362,0.0080171413719654,-0.0055151507258415,standing,2026-03-04_13-51-41
1772632305140368000,4.091367919921875,-0.0182185426545329,0.0331266090542078,-0.0843435860723257,0.0171534456312656,0.0146617274731397,-0.0001326357014477,standing,2026-03-04_13-51-41
1772632305150315800,4.101315673828125,-0.0680584226331673,0.0424881655089557,-0.0753138919204473,0.0322814285755157,0.0058111185207962,-0.0023364587686955,standing,2026-03-04_13-51-41
1772632305160264700,4.1112646484375,-0.0818676609454676,-0.0037136136956512,-0.0332166254252195,0.0419990383088588,-0.0018715678015723,-0.003068295540288,standing,2026-03-04_13-51-41
1772632305170212900,4.121212890625,-0.0734222877538763,-0.0358050344832241,0.032027707901597,0.0402551889419555,-0.0022223345004022,-0.0085168424993753,standing,2026-03-04_13-51-41
1772632305180161800,4.131161865234375,-0.1170168436021543,-0.0480954839967191,0.0639630613446235,0.0325503982603549,-0.0050434209406375,-0.0211783088743686,standing,2026-03-04_13-51-41
1772632305190109700,4.141109619140625,-0.1532406697530299,-0.0835807850062847,0.1167594165086746,0.0145667660981416,-0.0105706704780459,-0.029561199247837,standing,2026-03-04_13-51-41
1772632305200059000,4.151058837890625,-0.1011023949052207,-0.0975451590813696,0.1456371359467506,-0.0094259176403284,-0.007711234036833,-0.0289939455687999,standing,2026-03-04_13-51-41
1772632305210006800,4.1610068359375,-0.0665910717606544,-0.0605902239106595,0.1445838275015354,-0.0274089723825454,0.0001441275235265,-0.0268124286085367,standing,2026-03-04_13-51-41
1772632305219956000,4.1709560546875,-0.0532921575906686,-0.041153994295746,0.0842804577082395,-0.0350312069058418,0.0130266360938549,-0.0254893694072961,standing,2026-03-04_13-51-41
1772632305229904000,4.18090380859375,-0.0866013018712401,-0.0217978441797196,0.0084282211273908,-0.0310902576893568,0.01655999943614,-0.0284590683877468,standing,2026-03-04_13-51-41
1772632305239852800,4.190852783203125,-0.0902634228416718,-0.0038641280822455,-0.0335959801316261,-0.016459384933114,0.0083454800769686,-0.0275003295391798,standing,2026-03-04_13-51-41
1772632305249801000,4.200801025390625,-0.0555701855252496,-0.0088391400158405,-0.0767693514257669,0.0048699770122766,0.0025146130938082,-0.0257961153984069,standing,2026-03-04_13-51-41
1772632305259750400,4.21075048828125,-0.0646987552080303,0.0280956291496753,-0.1004687914431095,0.0244005359709262,-0.0043422277085483,-0.0311442762613296,standing,2026-03-04_13-51-41
1772632305269698300,4.2206982421875,-0.0926034831617958,0.0301342953704297,-0.0716951169013977,0.0350316613912582,-0.0149159077554941,-0.0357966609299182,standing,2026-03-04_13-51-41
1772632305279647200,4.230647216796875,-0.0715307749188505,0.0300081847727298,-0.0277221196621656,0.0332566648721694,-0.0175766702741384,-0.0339159369468688,standing,2026-03-04_13-51-41
1772632305289595400,4.240595458984375,-0.0202655017795972,0.0427418480090796,0.0013420622587203,0.0261718556284904,-0.0029502052348107,-0.0281560439616441,standing,2026-03-04_13-51-41
1772632305299544300,4.25054443359375,-0.0158214549175463,0.0818513308651745,0.046408699953556,0.0093052573502063,0.0085077788680791,-0.0223857723176479,standing,2026-03-04_13-51-41
1772632305309492200,4.2604921875,-0.0167774404681287,0.079266428938508,0.0972632734000682,-0.0090272510424256,0.0091928858309984,-0.0201391875743865,standing,2026-03-04_13-51-41
1772632305319441400,4.27044140625,-0.0084176449344493,0.0598136865802109,0.1127028345942497,-0.0170068815350532,0.0084650442004203,-0.021334147080779,standing,2026-03-04_13-51-41
1772632305329389300,4.280389404296875,-0.0455929631238803,0.0298152925491332,0.0759609576523304,-0.0142274983227252,0.017484376206994,-0.0251011382788419,standing,2026-03-04_13-51-41
1772632305339338200,4.290338134765625,-0.0574231016492471,0.0404619203783571,0.0241290636062622,-0.004975143354386,0.0253071468323469,-0.0236550420522689,standing,2026-03-04_13-51-41
1772632305349286400,4.300286376953125,-0.012746230456978,0.0462951565764844,0.023937340426445,0.0022739279083907,0.0189926549792289,-0.0188053175806999,standing,2026-03-04_13-51-41
1772632305359235600,4.310235595703125,0.0127282929414883,0.039745150411129,0.069327803248167,0.0068686795420944,-0.0041454201564192,-0.0158143211156129,standing,2026-03-04_13-51-41
1772632305369183200,4.320183349609375,0.0436773935598321,-0.010334785401076,0.129116209256649,0.0066346446983516,-0.0235912725329399,-0.0149031030014157,standing,2026-03-04_13-51-41
1772632305379132400,4.33013232421875,0.0356501179161481,-0.0285655847489833,0.1611696361213922,0.0013392153196036,-0.041748970746994,-0.0237181670963764,standing,2026-03-04_13-51-41
1772632305389080600,4.34008056640625,-0.0351290531841106,-0.0714544400133192,0.1291805066645145,-0.0093173552304506,-0.0469105467200279,-0.0361360758543014,standing,2026-03-04_13-51-41
1772632305399029500,4.350029541015625,-0.0655253787579014,-0.0711589641980826,0.0654798956483602,-0.0239490289241075,-0.0406372062861919,-0.0405947417020797,standing,2026-03-04_13-51-41
1772632305408977400,4.359977294921875,-0.0268523876229301,-0.0348237683609128,0.0196124629646539,-0.035599198192358,-0.0236747525632381,-0.0323703028261661,standing,2026-03-04_13-51-41
1772632305418926600,4.369926513671875,0.0114546197438612,0.0279791631631553,-0.0637684155553579,-0.0375720672309398,0.0021067755296826,-0.0216071344912052,standing,2026-03-04_13-51-41
1772632305428874500,4.37987451171875,0.0152392893817275,0.0879867648802697,-0.1385311033338308,-0.0341661013662815,0.0205598063766956,-0.0083689289167523,standing,2026-03-04_13-51-41
1772632305438823400,4.389823486328125,-0.0009229783301241,0.0928368352599442,-0.1842746173769235,-0.0204793196171522,0.0159999411553144,-0.004528384655714,standing,2026-03-04_13-51-41
1772632305448771600,4.399771484375,-0.0486570086033083,0.0537087938338518,-0.1908937432557344,0.0005977912805974,0.0073453383520245,-0.0050286338664591,standing,2026-03-04_13-51-41
1772632305458720500,4.409720458984375,-0.060499933545012,0.0315071911588311,-0.1955547208040952,0.0204631090164184,0.009864954277873,-0.0047916127368807,standing,2026-03-04_13-51-41
1772632305468668400,4.41966845703125,-0.0643532845049165,0.0460742073021829,-0.1896054570108652,0.0406555123627185,0.0118367476388812,-0.0100903389975428,standing,2026-03-04_13-51-41
1772632305478617300,4.429617431640625,-0.087998290921282,0.023854192187637,-0.1309077688485384,0.0530157759785652,0.003960714675486,-0.0140967983752489,standing,2026-03-04_13-51-41
1772632305488565500,4.4395654296875,-0.0430023438424803,0.016496815162152,-0.021971593311429,0.0487087145447731,0.0008680375758558,-0.0097401915118098,standing,2026-03-04_13-51-41
1772632305498514400,4.449514404296875,-0.0052795843707397,0.0127592360690236,0.0815542476147413,0.0342789068818092,0.0055991439148783,-0.0037193170282989,standing,2026-03-04_13-51-41
1772632305508462300,4.45946240234375,0.0119559751284308,0.0159158004038035,0.1879156042277812,0.0109521280974149,0.0006323477718979,-0.0048868665471673,standing,2026-03-04_13-51-41
1772632305518411500,4.46941162109375,-0.0167773491365835,-0.0067127955116331,0.2775058587819338,-0.0220596194267272,-0.0126831904053688,-0.0108765820041298,standing,2026-03-04_13-51-41
1772632305528359400,4.479359375,-0.0443063025805167,-0.0552311810955405,0.3148667444050312,-0.0455243699252605,-0.0272863917052745,-0.0174830220639705,standing,2026-03-04_13-51-41
1772632305538308400,4.489308349609375,-0.036052104579471,-0.0517130899719893,0.2179179437816143,-0.0499548055231571,-0.0192108880728483,-0.0148398345336318,standing,2026-03-04_13-51-41
1772632305548256500,4.499256591796875,-0.0219849277170374,0.0375954250313341,0.0600777443438768,-0.0330519378185272,0.0045868409797549,-0.0058421799913048,standing,2026-03-04_13-51-41
1772632305558205400,4.509205322265625,-0.011110409416072,0.1069425175018608,-0.0765372962355613,-0.0123562486842274,0.0109493993222713,0.0023768681567162,standing,2026-03-04_13-51-41
1772632305568153300,4.5191533203125,0.0115192459452897,0.121991764204204,-0.0935521439224481,0.002965017221868,-0.0015308761503547,0.0078747700899839,standing,2026-03-04_13-51-41
1772632305578101500,4.5291015625,0.041677652843669,0.0807474612765014,-0.0492243418961763,0.0139079466462135,-0.0180235672742128,0.0139060299843549,standing,2026-03-04_13-51-41
1772632305588050400,4.539050537109375,0.0390135116683319,0.0631752719677984,0.0325005861103534,0.011127445846796,-0.032882135361433,0.0083736311644315,standing,2026-03-04_13-51-41
1772632305597998300,4.548998291015625,-0.0065840910980477,0.0272596167169511,0.0876017110854387,-0.0038930494338274,-0.0477308556437492,0.0007418100722134,standing,2026-03-04_13-51-41
1772632305607947300,4.558947265625,-0.0055482087116688,-0.0026810557775199,0.0902390738517046,-0.0154852923005819,-0.0363776125013828,0.0025014395359903,standing,2026-03-04_13-51-41
1772632305617895400,4.5688955078125,0.0130443548870272,0.019571254171431,0.0130243167459964,-0.018897334113717,-0.0004313304089009,0.0127684585750103,standing,2026-03-04_13-51-41
1772632305627844400,4.57884423828125,-0.0296087005937471,0.0738864894658327,-0.0592693505704402,-0.0216516368091106,0.0088489698246121,0.0145337162539362,standing,2026-03-04_13-51-41
1772632305637792300,4.588792236328125,-0.0315452581468969,0.0618156740523874,-0.02991466127038,-0.0232553929090499,-0.0010276292450726,0.0192855931818485,standing,2026-03-04_13-51-41
1772632305647741400,4.598741455078125,0.0057192909622564,0.0131475047342479,-0.0330237332016229,-0.0190832931548357,-0.0022182380780577,0.0274127852171659,standing,2026-03-04_13-51-41
1772632305657689300,4.608689453125,-7.46178724803e-05,0.0107328448079526,-0.0509364065110683,-0.0079800421372056,-0.0011633599642664,0.028706282377243,standing,2026-03-04_13-51-41
1772632305667638300,4.61863818359375,-0.0638985630073584,0.0043311610721051,-0.04069441395998,0.0016583665274083,-0.0168474912643432,0.0162125285714864,standing,2026-03-04_13-51-41
1772632305677586400,4.62858642578125,-0.0669419492912478,-0.065601476201415,-0.0432230556547641,0.00302350288257,-0.0208046827465295,0.0138455126434564,standing,2026-03-04_13-51-41
1772632305687535600,4.63853564453125,-0.009140497582592,-0.0681337711580097,-0.0838590174257755,0.0112647600471973,0.0030594954732805,0.0194041188806295,standing,2026-03-04_13-51-41
1772632305697483300,4.648483154296875,-0.0032743820281699,-0.0035636838309466,-0.1013034887015819,0.0152911925688385,0.0198930706828832,0.026829544454813,standing,2026-03-04_13-51-41
1772632305707432400,4.658432373046875,-0.0177911475553177,0.0135306588329374,-0.0120446580588817,0.0115484427660703,0.0020472453907132,0.0287106856703758,standing,2026-03-04_13-51-41
1772632305717380600,4.668380615234375,0.0344445780512876,-0.0320433438621461,0.1097194348692894,-0.0004951702430844,-0.0208567380905151,0.0316428281366825,standing,2026-03-04_13-51-41
1772632305727329500,4.67832958984375,0.0251947931416332,-0.0621997049339115,0.133909288752079,-0.0048965797759592,-0.0235349610447883,0.0255780182778835,standing,2026-03-04_13-51-41
1772632305737277400,4.68827734375,-0.0436667260353453,-0.0335604704268276,0.1036906760990619,-0.010760860517621,-0.0207498278468847,0.0201773941516876,standing,2026-03-04_13-51-41
1772632305747226400,4.698226318359375,-0.0791462000923231,-0.0351879254981875,0.1152279691576957,-0.0235254969447851,-0.0401036739349365,0.0088807400315999,standing,2026-03-04_13-51-41
1772632305757174500,4.708174560546875,-0.0573181982363574,-0.0660522887088358,0.0953565629959106,-0.0294568892568349,-0.0362580716609954,0.0138528617098927,standing,2026-03-04_13-51-41
1772632305767123500,4.71812353515625,-0.0207197483531199,-0.0017070961788296,-0.0510626632392406,-0.0181019641458988,0.0048029599711298,0.0230029411613941,standing,2026-03-04_13-51-41
1772632305777071400,4.7280712890625,-0.0281120505615137,0.0953697147384285,-0.1875923636227846,-0.001268655527383,0.024505291134119,0.0288491137325763,standing,2026-03-04_13-51-41
1772632305787020500,4.7380205078125,-0.0508246349659748,0.0948528512574732,-0.1646720912843942,0.0133699877187609,0.0031373789533972,0.0288612768054008,standing,2026-03-04_13-51-41
1772632305796968400,4.747968505859375,-0.022522998382803,0.0148773972667753,-0.0856003081351518,0.0219405721873044,-0.0114090740680694,0.0307135060429573,standing,2026-03-04_13-51-41
1772632305806917400,4.75791748046875,-0.0249303517854772,0.0117938981682062,-0.0643850861489772,0.0261523649096488,-0.0071892663836479,0.0322413481771945,standing,2026-03-04_13-51-41
1772632305816865500,4.767865478515625,-0.055390773837734,0.0353909007243812,-0.0430459455221891,0.0218044891953468,0.0014907747972756,0.0250398926436901,standing,2026-03-04_13-51-41
1772632305826814500,4.777814453125,-0.0613679485511966,0.0158441964723169,0.0035585692644119,0.0077100256457924,0.0073864688165485,0.0217944644391536,standing,2026-03-04_13-51-41
1772632305836762400,4.787762451171875,-0.0308407814056612,-0.0226071147359907,0.0810503897458314,-0.0110586024820804,0.0187469813972711,0.0236347094178199,standing,2026-03-04_13-51-41
1772632305846711300,4.797711181640625,-0.0287606871959753,-0.0123139765195548,0.119246557149291,-0.0205196905881166,0.0229492001235485,0.0253643169999122,standing,2026-03-04_13-51-41
1772632305856659500,4.807659423828125,-0.0569583702143281,0.0121558633483946,0.1442570797652006,-0.024112295359373,0.0047361087054014,0.0201937891542911,standing,2026-03-04_13-51-41
1772632305866608400,4.8176083984375,-0.0562048484332859,0.0056035190954804,0.137402391564846,-0.0169227644801139,-0.0126260854303836,0.0220080874860286,standing,2026-03-04_13-51-41
1772632305876556300,4.827556396484375,-0.0139538344147615,-0.001286824940145,0.0736953508079052,-0.0040160208009183,-0.0057756369933485,0.028333893045783,standing,2026-03-04_13-51-41
1772632305886505500,4.83750537109375,-0.0337346762162633,0.0400644454933702,0.0257616332441568,0.009246383793652,0.0119884815067052,0.0289640352129936,standing,2026-03-04_13-51-41
1772632305896453400,4.847453369140625,-0.0466869323730468,0.0445537197366356,0.0218564424991607,0.0098290834575891,-0.0020924503915011,0.0223426166921854,standing,2026-03-04_13-51-41
1772632305906402300,4.85740234375,-0.0708703017161227,-0.0140428461387753,0.1440852303296327,-0.0026305965147912,-0.0409757159650325,0.0123159438371658,standing,2026-03-04_13-51-41
1772632305916350500,4.8673505859375,-0.0370022449111565,-0.0664589698135852,0.2184264778256416,-0.0211859047412872,-0.0556239001452922,0.0113263130187988,standing,2026-03-04_13-51-41
1772632305926299400,4.87729931640625,0.0107964846286922,-0.0365359791062772,0.1417185011982917,-0.0339501090347766,-0.0371993370354175,0.0150666087865829,standing,2026-03-04_13-51-41
1772632305936247300,4.887247314453125,-0.011547759653721,0.0269416368089616,0.0312993936270475,-0.0422996506094932,-0.0208379365503788,0.019499173387885,standing,2026-03-04_13-51-41
1772632305946196200,4.8971962890625,-0.0331576069806702,0.0620091507978737,-0.065435471984744,-0.0469379350543022,-0.020506290718913,0.0159725863486528,standing,2026-03-04_13-51-41
1772632305956144400,4.907144287109375,-0.0585002658940851,0.0438607690364122,-0.1300204646199941,-0.03991624340415,-0.0027821538969874,0.0232528690248727,standing,2026-03-04_13-51-41
1772632305966093300,4.91709326171875,-0.034816936761327,0.0555428773932158,-0.2522030752211809,-0.0167512707412242,0.0356292687356472,0.0338626429438591,standing,2026-03-04_13-51-41
1772632305976041200,4.927041259765625,-0.0507195306236855,0.0996916695907711,-0.3228916454285383,0.0105416029691696,0.0539198592305183,0.0400616861879825,standing,2026-03-04_13-51-41
1772632305985990400,4.936990478515625,-0.0677803363441489,0.1032676283814013,-0.2224292837262153,0.0304160378873348,0.0191267728805542,0.0350409634411335,standing,2026-03-04_13-51-41
1772632305995938300,4.946938232421875,-0.054944052983541,-0.0052282560423016,-0.0589180529147386,0.0385000631213188,-0.0210866928100585,0.0294970609247684,standing,2026-03-04_13-51-41
1772632306005887500,4.956887451171875,-0.0244782789027318,-0.0596587882794439,0.0035346038669347,0.0424763746559619,-0.0238392055034637,0.0273844823241233,standing,2026-03-04_13-51-41
1772632306015835600,4.966835693359375,-0.0570219917687587,-0.0086262279175221,0.0216845930635929,0.0377825535833835,-0.0153748821467161,0.0202157851308584,standing,2026-03-04_13-51-41
1772632306025784600,4.97678466796875,-0.1067684030439704,-0.0053660570777952,0.0814753371596336,0.0163522101938724,-0.0117171443998813,0.0120039731264114,standing,2026-03-04_13-51-41
1772632306035732500,4.986732421875,-0.08961922492031,-0.039580899760127,0.13605214599967,-0.0089219864457845,0.0054440000094473,0.0153228044509887,standing,2026-03-04_13-51-41
1772632306045681400,4.996681396484375,-0.0682115308356471,-0.0182632403127849,0.1852349868416786,-0.0293767806142568,0.0238061938434839,0.0116622522473335,standing,2026-03-04_13-51-41
1772632306055629600,5.006629638671875,-0.1022655569330789,0.0048017011933028,0.2125619697064161,-0.0489012114703655,0.0049539441242814,0.001489776186645,standing,2026-03-04_13-51-41
1772632306065578500,5.01657861328125,-0.1261989883693866,-0.0083455112800002,0.2485392920166254,-0.0573090240359306,-0.0211687199771404,-0.0069490973837673,standing,2026-03-04_13-51-41
1772632306075526400,5.0265263671875,-0.0949502106847241,-0.0280593887925147,0.1266325757473707,-0.0477847568690776,-0.0053498093038797,-0.0020478155929595,standing,2026-03-04_13-51-41
1772632306085475300,5.036475341796875,-0.0773823322249576,0.0527969396859407,-0.0482616343438625,-0.0232316479086875,0.0194348469376564,0.0026378305628895,standing,2026-03-04_13-51-41
1772632306095423500,5.046423583984375,-0.0872290966470725,0.1449628899469971,-0.0864221459120511,-0.0041168075986206,0.0071957590989768,0.0034274575300514,standing,2026-03-04_13-51-41
1772632306105372400,5.056372314453125,-0.0199322329709306,0.094546415656805,-0.0231564191818237,0.0085764061659574,-0.0197233092039823,0.0073725408874452,standing,2026-03-04_13-51-41
1772632306115320300,5.0663203125,0.0137210303058847,0.065389733146876,0.0443804089963436,0.0112209245562553,-0.0339009128510952,0.0109630152583122,standing,2026-03-04_13-51-41
1772632306125269500,5.07626953125,-0.0170609883835539,0.0849659557543695,0.1055523783177137,0.0006174561567604,-0.0413536019623279,0.0051663061603903,standing,2026-03-04_13-51-41
1772632306135217400,5.086217529296875,-0.0533649305659346,0.0594287789158523,0.1415238554090261,-0.0213895738124847,-0.0428524278104305,0.0007513179443776,standing,2026-03-04_13-51-41
1772632306145166300,5.096166259765625,-0.0491613048636354,0.0236775204464793,0.1254419046580791,-0.0445711277425289,-0.0281947292387485,-0.0015875906683504,standing,2026-03-04_13-51-41
1772632306155114500,5.106114501953125,-0.081680997533258,0.0441343252807855,0.0587111321657896,-0.0584435313940048,-0.0007399343885481,0.0038130334578454,standing,2026-03-04_13-51-41
1772632306165063400,5.1160634765625,-0.0748705503334291,0.0823654178671538,-0.0302238733500242,-0.0625748187303543,0.0171705782413482,0.0117634832859039,standing,2026-03-04_13-51-41
1772632306175011300,5.12601123046875,-0.0164447013824246,0.09059723963961,-0.0577303044348955,-0.0521546714007854,0.0164757594466209,0.0229572802782058,standing,2026-03-04_13-51-41
1772632306184960300,5.135960205078125,0.014539032157883,0.072461863490194,-0.0713753834277391,-0.032685175538063,0.0075534153729677,0.0261337850242853,standing,2026-03-04_13-51-41
1772632306194908400,5.145908447265625,-0.0359932870643213,0.0419819695524871,-0.0818166979432106,-0.0113934678956866,-0.0174326281994581,0.0128813628107309,standing,2026-03-04_13-51-41
1772632306204857300,5.155857421875,-0.091370434235502,-0.0313994930006563,-0.0661462506026029,0.003602311713621,-0.0396361835300922,0.002255234401673,standing,2026-03-04_13-51-41
1772632306214805200,5.16580517578125,-0.0812696950523182,-0.0708252021990716,-0.0790852271527051,0.0144650787115097,-0.037337876856327,-0.0007613283814862,standing,2026-03-04_13-51-41
1772632306224754400,5.17575439453125,-0.0621055055781267,-0.0380436071902513,-0.0863017344027757,0.0183714069426059,-0.0237791631370782,0.001678378554061,standing,2026-03-04_13-51-41
1772632306234702300,5.185702392578125,-0.0387030940122902,-0.0093377371877431,-0.0339309111744165,0.0086442120373249,-0.0202033352106809,0.0086481375619769,standing,2026-03-04_13-51-41
1772632306244651300,5.1956513671875,-0.0108339853611774,-0.0089732877895236,0.0139788409918546,-0.006150288041681,-0.0171348471194505,0.0161566026508808,standing,2026-03-04_13-51-41
1772632306254599400,5.205599365234375,-0.010570457320474,-0.0374018021553754,0.0415174207806587,-0.0117035117000341,-0.0068161627277731,0.0140977129340171,standing,2026-03-04_13-51-41
1772632306264548000,5.215548095703125,-0.1068847411663271,-0.0642617520302534,-0.0085930563002824,-0.0106655731797218,0.0018486753106117,0.0035700369626283,standing,2026-03-04_13-51-41
1772632306274496000,5.22549609375,-0.1765337209265679,-0.0982329952150583,-0.0434819988518953,-0.0067975986748933,0.0011788900010287,-0.0069180242717266,standing,2026-03-04_13-51-41
1772632306284445000,5.23544482421875,-0.1664513941829092,-0.1283927172876894,-0.0398369203478097,-0.0022060954943299,-0.0042584743350744,-0.015522064641118,standing,2026-03-04_13-51-41
1772632306294393000,5.24539306640625,-0.1555801272849552,-0.120301180768758,-0.0244189864635467,0.0038496660999953,-0.008467867039144,-0.0181039981544017,standing,2026-03-04_13-51-41
1772632306304342000,5.255342041015625,-0.1154632940172217,-0.0822721866257488,0.0017371990561485,0.0040771141648292,-0.0136818941682577,-0.0187370534986257,standing,2026-03-04_13-51-41
1772632306314290000,5.2652900390625,-0.1143768504873849,-0.0732166273802518,-0.0042862990170717,0.0050427764654159,-0.0096546616405248,-0.020369304344058,standing,2026-03-04_13-51-41
1772632306324239000,5.275239013671875,-0.1066647052074782,-0.0488598924979567,-0.0078267481029033,0.0097769051790237,-0.0011763926595449,-0.0213719140738248,standing,2026-03-04_13-51-41
1772632306334187000,5.28518701171875,-0.0860987774428911,-0.0143219553411006,0.0045674540460109,0.0164278838783502,0.0011991471983492,-0.0197276789695024,standing,2026-03-04_13-51-41
1772632306344136000,5.295135986328125,-0.0587661685549654,0.0233398129247128,0.0091214640885591,0.0177588760852813,-0.002412648871541,-0.0191406030207872,standing,2026-03-04_13-51-41
1772632306354084000,5.305083984375,-0.0048127523102797,0.0128792091868817,0.0545493363112211,0.0131385587155818,-0.0090236794203519,-0.0178686752915382,standing,2026-03-04_13-51-41
1772632306364033000,5.315032958984375,0.0091676413178443,0.0267285785801708,0.1181529166936874,0.0092651806771755,-0.0205553527921438,-0.0195934306830167,standing,2026-03-04_13-51-41
1772632306375847200,5.32684716796875,0.0077859046358615,0.0271877205245196,0.1251841305047273,-0.0040203845128417,-0.0258285645395517,-0.0241405572742223,standing,2026-03-04_13-51-41
1772632306385796000,5.336796142578125,-0.0138213123425841,0.056055503090471,0.1155751751601695,-0.0087789203971624,-0.0145532749593257,-0.0218688808381557,standing,2026-03-04_13-51-41
1772632306395744000,5.346743896484375,0.0202290604930371,0.0927070714004337,0.0527560231536626,-0.0143159534782171,0.0060615870170295,-0.0094658993184566,standing,2026-03-04_13-51-41
1772632306405693000,5.35669287109375,0.0792436873837374,0.1328423901729285,0.0163619367361068,-0.0089273117482662,0.0289301518350839,0.0037156823091208,standing,2026-03-04_13-51-41
1772632306415641000,5.36664111328125,0.1050248473122715,0.149112703102827,0.0184586167544126,-7.55097717046e-05,0.0269676372408866,0.0118678994476795,standing,2026-03-04_13-51-41
1772632306425589000,5.376589111328125,0.1267936115279793,0.1189757773838937,0.106736035144329,-0.0010896413587033,-0.0048486138693988,0.0121941370889544,standing,2026-03-04_13-51-41
1772632306435538200,5.3865380859375,0.1165691181009635,0.0362343658111989,0.2124871509045362,-0.0104619972407817,-0.0415472351014614,0.0053208349272608,standing,2026-03-04_13-51-41
1772632306445486000,5.396486083984375,0.0832048460996709,-0.006911679084599,0.2150426806062459,-0.0221447516232728,-0.0649827867746353,-0.0054921321570873,standing,2026-03-04_13-51-41
1772632306455435000,5.40643505859375,0.0295811915323138,0.0001060907229781,0.1223094518512487,-0.0335920862853527,-0.0625360235571861,-0.0046135480515658,standing,2026-03-04_13-51-41
1772632306465383200,5.416383056640625,0.0608651501282118,0.0552164219178259,0.0027589433193206,-0.0416697189211845,-0.0351137146353721,0.0122362710535526,standing,2026-03-04_13-51-41
1772632306475332000,5.42633203125,0.1166137792265974,0.1171849484443664,-0.1412310099422931,-0.0348203815519809,0.0030277024488896,0.0327509604394435,standing,2026-03-04_13-51-41
1772632306485280000,5.436280029296875,0.0941996297794394,0.1412272105500102,-0.2343535302758216,-0.0233421567827463,0.0235345754772424,0.0468292273581028,standing,2026-03-04_13-51-41
1772632306495229000,5.44622900390625,0.0587031315224245,0.1284454703882336,-0.2421539748936891,0.0006938772276043,0.0283780470490455,0.0563187189400196,standing,2026-03-04_13-51-41
1772632306505177000,5.456177001953125,0.0481821302337106,0.0756095138661563,-0.244940390741825,0.0289351027458906,0.026135666295886,0.0534923076629638,standing,2026-03-04_13-51-41
1772632306515126000,5.4661259765625,-0.0085276446475647,0.022076953382045,-0.1886404113709926,0.0454018600285053,0.0139922089874744,0.0466393940150737,standing,2026-03-04_13-51-41
1772632306525074000,5.476073974609375,-0.059355914609041,-0.0416626744702458,-0.0797691177636384,0.0468506217002868,-0.0093453377485275,0.0361337587237358,standing,2026-03-04_13-51-41
1772632306535022800,5.48602294921875,-0.0408502255761995,-0.0805722508400678,0.0524316135048866,0.031952679157257,-0.0226310603320598,0.0275654718279838,standing,2026-03-04_13-51-41
1772632306544971000,5.495970947265625,-0.0302404226260259,-0.0874779385752975,0.095574005138874,0.0057602254673838,0.003031691070646,0.0204164795577526,standing,2026-03-04_13-51-41
1772632306554920000,5.505919921875,-0.0427431083844043,-0.0895132437951862,0.0683282708168029,-0.0291860997676849,0.0329494811594486,0.0279677305370569,standing,2026-03-04_13-51-41
1772632306564868000,5.5158681640625,-0.0667059120456688,-0.0089312022134661,0.0880056157112121,-0.0488514155149459,0.0346264727413654,0.0339811481535434,standing,2026-03-04_13-51-41
1772632306574817000,5.525817138671875,-0.0375371189728379,-0.0244005740240216,0.0341758258461952,-0.0471667498350143,0.0201700441539287,0.0300967618823051,standing,2026-03-04_13-51-41
1772632306584765000,5.535764892578125,-0.0448536890638992,-0.0575537788242101,-0.0670709642320871,-0.0276881251484155,0.0148517126217484,0.0267616845667362,standing,2026-03-04_13-51-41
1772632306594713900,5.5457138671875,-0.0814670442553237,-0.0124196288511157,-0.1601227574169635,0.0002207360230386,0.030409337952733,0.0293974317610263,standing,2026-03-04_13-51-41
1772632306604662000,5.555662109375,-0.0842367281643673,0.0058510641157627,-0.2232137121021747,0.0280454419553279,0.0371766984462738,0.0310520529747009,standing,2026-03-04_13-51-41
1772632306614611200,5.565611083984375,-0.0795456842713057,0.0053125733248889,-0.18954057508111,0.0482056848704814,0.0310786236077547,0.0270810481160879,standing,2026-03-04_13-51-41
1772632306624558800,5.575558837890625,-0.0507568121604621,-0.0053260173283517,-0.0539817655563354,0.0542662404477596,0.0148301469162106,0.0263132583349943,standing,2026-03-04_13-51-41
1772632306634508000,5.585508056640625,-0.0389920304888859,-0.0239832253947854,0.1093254671156406,0.0417051911354064,-0.0104577234014868,0.0189029928296804,standing,2026-03-04_13-51-41
1772632306644456200,5.595456298828125,-0.0849035763089545,-0.050036242800951,0.2159054349154233,0.022402599453926,-0.0349489524960517,0.0072061223909258,standing,2026-03-04_13-51-41
1772632306654405000,5.605405029296875,-0.106551655020751,-0.0647699938133359,0.1969248401135206,0.0047606797888875,-0.032534871250391,0.0016900615300983,standing,2026-03-04_13-51-41
1772632306664353000,5.61535302734375,-0.0910413484116084,-0.0054234863534569,0.1160755258977413,-0.0149725442752242,-0.0050462544895708,0.005486131645739,standing,2026-03-04_13-51-41
1772632306674302200,5.62530224609375,-0.0800052646070718,0.0453209047168493,0.0387017788380384,-0.0268759466707706,0.02395711094141,0.0128037137910723,standing,2026-03-04_13-51-41
1772632306684250000,5.63525,-0.0577449540147557,0.0867066619418561,-0.0199076465189456,-0.0280152447521686,0.0431843362748622,0.0182586647570133,standing,2026-03-04_13-51-41
1772632306694199000,5.645198974609375,-0.034542777728755,0.0861249165311455,-0.0221773450165987,-0.0189678110182285,0.0454746186733245,0.0210336428135633,standing,2026-03-04_13-51-41
1772632306704147200,5.655147216796875,-0.0444515380037948,0.068998571293801,-0.0174164142251014,-0.0062352390959858,0.0292905904352664,0.0157603174448013,standing,2026-03-04_13-51-41
1772632306714717200,5.66571728515625,-0.0834425273130647,0.0338255511038005,-0.0137397715389728,0.0130039695650339,0.0001366990618407,0.000123833771795,standing,2026-03-04_13-51-41
1772632306724666000,5.675666015625,-0.0748920863118022,0.0135649994939565,-0.0026472996383905,0.0285235419869422,-0.0141495624557137,-0.0007217198144644,standing,2026-03-04_13-51-41
1772632306734614000,5.685614013671875,-0.0229479640629142,0.0566584374196827,0.0028974750071763,0.0359163247048854,-0.0238118898123502,0.0061426213942468,standing,2026-03-04_13-51-41
1772632306744563200,5.695563232421875,0.0136933568476699,0.0889106017269194,0.0138286188662052,0.0313205085694789,-0.0253402777016162,0.0132412780076265,standing,2026-03-04_13-51-41
1772632306754511000,5.705510986328125,0.0404719851146452,0.0976500807605683,0.0185953948765993,0.0186270717531442,-0.0086023397743701,0.020991887897253,standing,2026-03-04_13-51-41
1772632306764460000,5.7154599609375,0.0003963241075165,0.0970741805687546,0.0196375974059104,0.0032947203144431,0.0140073662623763,0.0212832391262054,standing,2026-03-04_13-51-41
1772632306774408200,5.725408203125,-0.0697014771324582,0.0769695501729846,0.0467681809157133,-0.0146259078755974,0.0203631073236465,0.0148239135742187,standing,2026-03-04_13-51-41
1772632306784357000,5.735357177734375,-0.1071084486532956,0.0217784088268876,0.0753220752269029,-0.0274841822683811,0.0184158030897378,0.0064085922203958,standing,2026-03-04_13-51-41
1772632306794305000,5.745304931640625,-0.09663867522832,-0.0084197455599904,0.0388391414821147,-0.0234526842832565,0.0287998244166374,0.0099447621032595,standing,2026-03-04_13-51-41
1772632306804254000,5.75525390625,-0.0953117740061134,0.0180156952925026,0.0022287819653749,-0.0120961656793951,0.0220878608524799,0.0066640144214034,standing,2026-03-04_13-51-41
1772632306814202000,5.7652021484375,-0.1097471265938132,0.0149827573373913,0.0189431854009628,-0.006535168737173,-0.0111310612410306,-6.00514467805e-05,standing,2026-03-04_13-51-41
1772632306824151000,5.775151123046875,-0.0763880604906007,-0.0310549173466861,0.0395353070527315,-0.0001281360164284,-0.0249440800398588,0.0013460975605994,standing,2026-03-04_13-51-41
1772632306834099000,5.785098876953125,-0.0806220082659274,-0.0302937237158417,-0.0359451736062765,0.0146450549364089,-0.0021890792995691,0.0001101661473512,standing,2026-03-04_13-51-41
1772632306844048100,5.795048095703125,-0.1351842953902669,0.0241314016938209,-0.1185568213194608,0.0262290071696043,0.0161531753838062,-0.0069504063576459,standing,2026-03-04_13-51-41
1772632306853996000,5.80499609375,-0.157362115330901,0.0117016898401081,-0.0471036964803934,0.0219238474965095,0.0124693494290113,-0.0136218331754207,standing,2026-03-04_13-51-41
1772632306863945000,5.814945068359375,-0.1185115026067011,-0.0436924267321825,0.0526437949508428,0.0080184182152152,0.0082666166126728,-0.016275405883789,standing,2026-03-04_13-51-41
1772632306873893000,5.82489306640625,-0.0911863281065598,-0.0547951277658343,0.1057277348846197,-0.0063040568493306,0.0109224962070584,-0.0201481990516185,standing,2026-03-04_13-51-41
1772632306883842000,5.834842041015625,-0.1220251184845343,-0.0208998724266886,0.1338566817820072,-0.0179481972008943,0.0004176571965217,-0.0268324650824069,standing,2026-03-04_13-51-41
1772632306893790000,5.8447900390625,-0.1272508355098776,-0.0306837459467351,0.1282014324992895,-0.0273192264139652,-0.0019980003125965,-0.0261546205729246,standing,2026-03-04_13-51-41
1772632306903739000,5.85473876953125,-0.0728081013782881,-0.0182438049599528,0.0648018502563238,-0.023436602205038,0.0165511816740036,-0.020948139950633,standing,2026-03-04_13-51-41
1772632306913687000,5.86468701171875,-0.0900977291522547,0.0161081081055104,-0.0068441668063402,-0.0095417732372879,0.0273186266422271,-0.0233781244605779,standing,2026-03-04_13-51-41
1772632306923636000,5.874635986328125,-0.102936551529821,0.0109760059140622,-0.0084925185352563,0.0034669698216021,0.0226373206824064,-0.0262873601168394,standing,2026-03-04_13-51-41
1772632306933584000,5.884583984375,-0.038399087830726,-0.0308348448552191,0.0222200151145458,0.0080886222422122,0.0078191086649894,-0.0263358373194932,standing,2026-03-04_13-51-41
1772632306943533000,5.894532958984375,-0.0180689050507731,-0.0556568591617047,0.1132628065645694,0.0041055986657738,-0.0204269103705883,-0.039031658321619,standing,2026-03-04_13-51-41
1772632306953481000,5.90448095703125,-0.0842196674317121,-0.0683930066160857,0.1911567781060933,-0.0094385985285043,-0.0552274957299232,-0.0574923753738403,standing,2026-03-04_13-51-41
1772632306963430000,5.914429931640625,-0.0825807776508852,-0.1033691890597343,0.1499222659200429,-0.027456747367978,-0.0578480437397956,-0.0603787079453468,standing,2026-03-04_13-51-41
1772632306973378000,5.9243779296875,-0.0253286486543715,-0.0336928646348416,0.0454167663067579,-0.0404259674251079,-0.0225280150771141,-0.0507694333791732,standing,2026-03-04_13-51-41
1772632306983327200,5.9343271484375,-0.018525307048764,0.0699161245301365,-0.0741267279624939,-0.0450643971562385,0.0059630153700709,-0.0405855067074298,standing,2026-03-04_13-51-41
1772632306993275000,5.94427490234375,-0.0095632347729988,0.1031283660411834,-0.1593272231251001,-0.0362297892570495,0.0287641771137714,-0.0259473752230405,standing,2026-03-04_13-51-41
1772632307003224000,5.95422412109375,0.0192572928514331,0.0963520037740468,-0.2574105807363986,-0.0062670968472957,0.0532061383128166,-0.0132608748972415,standing,2026-03-04_13-51-41
1772632307013172200,5.964172119140625,0.0030449023875407,0.0860023130647838,-0.2913479216516018,0.0296686459332704,0.0533369965851306,-0.0123329544439911,standing,2026-03-04_13-51-41
1772632307023121200,5.97412109375,-0.0336034693183377,0.0601386807508766,-0.2059884365350008,0.056942343711853,0.0263525154441595,-0.0203442759811878,standing,2026-03-04_13-51-41
1772632307033069000,5.984069091796875,-0.027902481197752,-0.0257275848440825,-0.0852682997018098,0.0717668235301971,-0.0016423378838226,-0.029457364231348,standing,2026-03-04_13-51-41
1772632307043018000,5.99401806640625,-0.0322548677209764,-0.0814833743356168,0.036184827581048,0.0653536617755889,-0.0159096904098987,-0.039687629789114,standing,2026-03-04_13-51-41
1772632307052966100,6.003966064453125,-0.0353969834052957,-0.0865102625869214,0.1310714349776506,0.042379006743431,-0.0112801482900977,-0.0471269786357879,standing,2026-03-04_13-51-41
1772632307062915000,6.0139150390625,-0.0434503981372341,-0.09013561347723,0.1941886931478977,0.0046425461769104,0.0067854057997465,-0.0483371168375015,standing,2026-03-04_13-51-41
1772632307072863000,6.023863037109375,-0.0331273031739518,-0.0649126171544194,0.218740950602293,-0.0295975040644407,0.02462924644351,-0.0495202541351318,standing,2026-03-04_13-51-41
1772632307082812200,6.033812255859375,-0.0553975689047016,-0.0469946831479668,0.1912771896153688,-0.0514266341924667,0.037109088152647,-0.0515996478497982,standing,2026-03-04_13-51-41
1772632307092760000,6.043760009765625,-0.0586968479121103,-0.0460647088214755,0.1264005205571651,-0.0521486215293407,0.0371366068720817,-0.051647562533617,standing,2026-03-04_13-51-41
1772632307102709000,6.053708984375,-0.0511503963216207,-0.0162326112680137,0.0245019885718822,-0.0421921275556087,0.0277116820216178,-0.0523439794778823,standing,2026-03-04_13-51-41
1772632307112657200,6.0636572265625,-0.0393381770454347,0.0131640174776315,-0.0490191747128963,-0.0206509120762348,0.0203832704573869,-0.0494031719863414,standing,2026-03-04_13-51-41
1772632307122606000,6.073606201171875,-0.0324367636265233,0.0287729438893496,-0.1225479367822408,0.002372114919126,0.0157696101814508,-0.041923951357603,standing,2026-03-04_13-51-41
1772632307132554000,6.083553955078125,-0.0127758766765706,0.0564649606741964,-0.1414724174827337,0.0235305316746234,0.0198672264814376,-0.0344544202089309,standing,2026-03-04_13-51-41
1772632307142503000,6.0935029296875,0.0309074899663217,0.0857590058282017,-0.1030126307070255,0.0343509577214717,0.012593600898981,-0.023680068552494,standing,2026-03-04_13-51-41
1772632307152451000,6.103451171875,0.0753343867192044,0.0930775121480226,-0.0250876795053482,0.0334502309560775,-0.0056604640558362,-0.0139890052378177,standing,2026-03-04_13-51-41
1772632307162400000,6.11339990234375,0.0908652794586494,0.0992319431245326,0.051740708631277,0.0254399757832288,-0.0224168077111244,-0.0069398842751979,standing,2026-03-04_13-51-41
1772632307172348000,6.123347900390625,0.0874034850995987,0.0932503844968974,0.0714087011754512,0.0143819358199834,-0.021326407790184,0.0009602394420653,standing,2026-03-04_13-51-41
1772632307182297000,6.133297119140625,0.0765775551807135,0.1003707378961145,0.0557166265249252,0.0071485238149762,-0.0082092741504311,0.0061419517733156,standing,2026-03-04_13-51-41
1772632307192245000,6.143244873046875,0.0245454258548095,0.112690121243149,-0.0056815527677536,-0.0001903418451547,0.0065848808735609,0.0057427296414971,standing,2026-03-04_13-51-41
1772632307202194000,6.15319384765625,-0.0158132168121635,0.0947172421790659,-0.0308241773307323,-0.0047267698682844,0.0206911116838455,0.0047158147208392,standing,2026-03-04_13-51-41
1772632307212142000,6.16314208984375,-0.0179890082149766,0.0532009904421865,-0.0437152230858802,0.0007251924835145,0.0312173571437597,0.0054760030470788,standing,2026-03-04_13-51-41
1772632307222091000,6.173091064453125,-0.0239192750467918,0.0620468524597585,-0.0295879135340452,0.0031667784787714,0.0289395544677972,0.0020237476564943,standing,2026-03-04_13-51-41
1772632307232039000,6.183038818359375,-0.0209735221847891,0.0419197179712355,0.0198187991917133,0.0082647101953625,0.0158994849771261,0.0046512968838214,standing,2026-03-04_13-51-41
1772632307241987800,6.19298779296875,0.0227526789528317,0.0102671269923448,0.0521270776003599,0.0121579859405756,0.006857254076749,0.0099874725565314,standing,2026-03-04_13-51-41
1772632307251936000,6.20293603515625,0.0329404205660335,0.0201671742379665,0.0523924505382776,0.013969263061881,-0.000233304221183,0.0132774505764245,standing,2026-03-04_13-51-41
1772632307261885200,6.21288525390625,0.0105496885270811,0.0188189744994044,0.0676432111620903,0.0096757151186466,-0.0083303786814212,0.0086036026477813,standing,2026-03-04_13-51-41
1772632307271833000,6.2228330078125,-0.0140138392399996,-0.0281181332424283,0.0953945569187402,0.0053697982802987,-0.0017084975261241,0.006372848059982,standing,2026-03-04_13-51-41
1772632307281782300,6.2327822265625,-0.0688782145834528,-0.0472153401613235,0.0724824678868055,-0.0034844130277633,0.0120232934132218,-0.0025058647152036,standing,2026-03-04_13-51-41
1772632307291730400,6.24273046875,-0.1184885601225309,-0.0628553923636674,0.060571665340662,-0.009713489562273,0.0220841988921165,-0.011519182473421,standing,2026-03-04_13-51-41
1772632307301679400,6.252679443359375,-0.1243576348190195,-0.0588515635497868,0.0637134704977274,-0.0161237195134162,0.0200362280011177,-0.0128686055541038,standing,2026-03-04_13-51-41
1772632307311627300,6.262627197265625,-0.1035386273425072,-0.0614931640997528,0.0767944858670234,-0.0193662792444229,0.0104618482291698,-0.0168930944055318,standing,2026-03-04_13-51-41
1772632307321576400,6.272576416015625,-0.070019913698174,-0.0445991663135588,0.0286813200831413,-0.0146412979811429,0.0049938461743295,-0.0086183855310082,standing,2026-03-04_13-51-41
1772632307331524400,6.2825244140625,-0.0445477283872663,-0.0016283318541944,-0.0253559750527143,-0.0060414094477891,0.009645527228713,-0.0011892701731994,standing,2026-03-04_13-51-41
1772632307341473300,6.292473388671875,-0.0456125628734938,0.0138467390447854,-0.0792412944972515,0.0029454273171722,0.0159481652081012,-0.0001112224999815,standing,2026-03-04_13-51-41
1772632307351421400,6.30242138671875,-0.0928620610327459,0.0137862410292029,-0.0925280615717172,0.0085539352148771,0.01852423325181,-0.0040684640407562,standing,2026-03-04_13-51-41
1772632307361370400,6.312370361328125,-0.1177242246865294,-0.0123696522295475,-0.0478138905763626,0.0099707376211881,0.0171199478209018,-0.0111207803711295,standing,2026-03-04_13-51-41
1772632307371318300,6.322318359375,-0.1428065704296343,-0.0453511537246406,-0.0044312604457139,0.0063893124461174,0.0169229377061128,-0.0183799862861633,standing,2026-03-04_13-51-41
1772632307381267200,6.33226708984375,-0.1451278347177431,-0.0470749087773263,0.0694417850166559,-0.0054439115338027,0.011420315131545,-0.0213448833674192,standing,2026-03-04_13-51-41
1772632307391215400,6.34221533203125,-0.1062634491965174,-0.0322211846470832,0.1096750112056732,-0.0148054547607898,-0.0024100136943161,-0.0220367722213268,standing,2026-03-04_13-51-41
1772632307401164300,6.352164306640625,-0.0737751197795383,-0.0217059281125664,0.0813017341583967,-0.0141945257782936,0.0019850009121,-0.0175283066928386,standing,2026-03-04_13-51-41
1772632307411112200,6.3621123046875,-0.0721387507493607,0.0150524615727365,0.0018242928177118,-0.0058935619890689,0.0188035648316144,-0.0162665769457817,standing,2026-03-04_13-51-41
1772632307421061400,6.372061279296875,-0.094115988350287,0.0475657610341906,-0.0532949523359537,0.0041939597576856,0.0355282165110111,-0.0162745658308267,standing,2026-03-04_13-51-41
1772632307431009300,6.38200927734375,-0.0767842567339539,0.0267347160600125,-0.0594844546258449,0.0123397707939147,0.0439850576221942,-0.0101993465796113,standing,2026-03-04_13-51-41
1772632307440958200,6.391958251953125,-0.0150437485433183,0.0072886957034468,0.0358686012387275,0.0123032853007316,0.0274540167301893,-0.0102155916392803,standing,2026-03-04_13-51-41
1772632307450906400,6.40190625,-0.0324534042340703,-0.0341366628795862,0.171297062382102,0.0021339529193937,-0.0057430448941886,-0.0211451202630996,standing,2026-03-04_13-51-41
1772632307460855300,6.411855224609375,-0.0340860286708921,-0.0948842693090438,0.2505687520176172,-0.0106231216341257,-0.0389329567551612,-0.0308619309216737,standing,2026-03-04_13-51-41
1772632307470803200,6.42180322265625,-0.0289935095711611,-0.1259843409717083,0.2582867790490388,-0.0274215955287218,-0.0591528750956058,-0.0415757186710834,standing,2026-03-04_13-51-41
1772632307480752000,6.431752197265625,-0.0571955947699956,-0.096767598837614,0.1933884826809167,-0.0423070676624774,-0.0611350685358047,-0.0467278696596622,standing,2026-03-04_13-51-41
1772632307490700300,6.4417001953125,-0.0465971717303618,-0.0311848273366689,0.0438952558279037,-0.045685339719057,-0.0348752811551094,-0.0358892045915126,standing,2026-03-04_13-51-41
1772632307500649200,6.451649169921875,-0.0375234557736664,0.0493564438432455,-0.1539051980763673,-0.0365919768810272,0.0082665979862213,-0.0240724924951791,standing,2026-03-04_13-51-41
1772632307510597000,6.46159716796875,-0.0752978723674081,0.1083516536474227,-0.2741518721789121,-0.0209812745451927,0.0388000532984733,-0.0154503751546144,standing,2026-03-04_13-51-41
1772632307520546300,6.47154638671875,-0.10009296213435,0.0648055035181343,-0.2968365821957588,-0.0035492866300046,0.0482505448162555,-0.0160921961069107,standing,2026-03-04_13-51-41
1772632307530494200,6.481494140625,-0.1156337917459197,0.0163040690690279,-0.2218897700220346,0.0117033282294869,0.0389878004789352,-0.0160970408469438,standing,2026-03-04_13-51-41
1772632307540443100,6.491443115234375,-0.1070205329078249,-0.0223360427096486,-0.0972702876627445,0.0238127224147319,0.0191557705402374,-0.0217429436743259,standing,2026-03-04_13-51-41
1772632307550391300,6.501391357421875,-0.0795922816256992,-0.0344920521885156,-0.0255757552832365,0.0345243960618972,0.0004473887383937,-0.0243624355643987,standing,2026-03-04_13-51-41
1772632307560340200,6.51134033203125,-0.0614815284608863,-0.0479050759911537,0.0445733012199401,0.0346983037889003,-0.0063372803851962,-0.0246172994375228,standing,2026-03-04_13-51-41
1772632307570288000,6.5212880859375,-0.0355816192572005,-0.0306638722024857,0.0829056622236967,0.0284308567643165,-0.0101793501526117,-0.0251623336225748,standing,2026-03-04_13-51-41
1772632307580237300,6.5312373046875,-0.0442248713747598,-0.0325349267713725,0.1144961477518081,0.0166000295430421,-0.0046170717105269,-0.0280345529317855,standing,2026-03-04_13-51-41
1772632307590185500,6.541185546875,-0.0431170927959494,-0.0479565139174461,0.1477741479754447,-0.0020578075200319,0.0028412016108632,-0.0289519876241683,standing,2026-03-04_13-51-41
1772632307600134400,6.551134521484375,-0.049822070327308,-0.0478876864649355,0.1828057138681411,-0.0222453661262989,0.0029818164184689,-0.0362836681306362,standing,2026-03-04_13-51-41
1772632307610082300,6.561082275390625,-0.0599347191439941,-0.0601765285432338,0.1691851847946643,-0.0388811752200126,-0.0039523802697658,-0.0379894822835922,standing,2026-03-04_13-51-41
1772632307620031200,6.57103125,-0.0224483622440136,-0.0423290294244885,0.1259603755742311,-0.0459223091602325,-0.0024261227808892,-0.0351936966180801,standing,2026-03-04_13-51-41
1772632307629979400,6.5809794921875,0.0293534837236627,-0.0039066520497202,0.0108265144407749,-0.0325396619737148,0.0143617913126945,-0.0270524211227893,standing,2026-03-04_13-51-41
1772632307639928300,6.59092822265625,0.0199340413355268,0.057839317767322,-0.1039735846936702,-0.0135774221271276,0.0219587255269289,-0.022751148790121,standing,2026-03-04_13-51-41
