time,seconds_elapsed,acc_x,acc_y,acc_z,gyr_x,gyr_y,gyr_z,activity,session
1772632398702620700,0.06462060546875,0.0524654792418703,-0.0169166480094194,0.1047504142850637,-0.0082757556810975,-0.0604682639241218,-0.0112401023507118,standing,2026-03-04_13-53-18
1772632398712568800,0.07456884765625,0.0483145701074972,0.0374804203495383,0.0132528648048639,0.0012437948025763,-0.0807268545031547,-0.0144452881067991,standing,2026-03-04_13-53-18
1772632398722517800,0.084517822265625,0.0052684419222176,0.0427647904932498,-0.0327881708800792,-0.0032084779813885,-0.0664853304624557,-0.0164477191865444,standing,2026-03-04_13-53-18
1772632398732465700,0.094465576171875,0.0009460486784577,0.0471250315293669,-0.1292956574767828,-0.0104194330051541,-0.0153014697134494,-0.0086198588833212,standing,2026-03-04_13-53-18
1772632398742414600,0.10441455078125,-0.0271472789162769,0.089028675148636,-0.2441378421872854,-0.0193309038877487,0.0370312444865703,0.0037254909984767,standing,2026-03-04_13-53-18
1772632398752362800,0.11436279296875,-0.0482630225833505,0.1340305770441889,-0.257900410079956,-0.0220487192273139,0.063487559556961,0.0126784946769475,standing,2026-03-04_13-53-18
1772632398762311700,0.124311767578125,-0.0267327067660167,0.0988666169434785,-0.2277846732795238,-0.0123100718483328,0.0620941892266273,0.0230541694909334,standing,2026-03-04_13-53-18
1772632398772259800,0.134259765625,0.0204692989896982,0.0658158496044576,-0.1466366683781147,-0.0006902539171278,0.0413106568157672,0.0288647338747978,standing,2026-03-04_13-53-18
1772632398782208800,0.144208740234375,0.0196097960835322,0.0451645451113581,-0.0300794964432716,0.0085581056773662,0.0006236790213733,0.0204619280993938,standing,2026-03-04_13-53-18
1772632398792156700,0.15415673828125,-0.0420052408302202,-0.0359266150362789,0.0719464613139629,0.0179313998669385,-0.0287299044430255,-0.0034760297276079,standing,2026-03-04_13-53-18
1772632398802105600,0.164105712890625,-0.0981482030084356,-0.1505972425721585,0.0754834032684564,0.020035296678543,-0.0275599788874387,-0.0160341653972864,standing,2026-03-04_13-53-18
1772632398812053800,0.1740537109375,-0.1145453937210142,-0.1498966930873692,0.0436813208162784,0.0137523068115115,-0.0103263370692729,-0.0178022421896457,standing,2026-03-04_13-53-18
1772632398822002700,0.184002685546875,-0.0924502470951527,-0.071561115258187,0.0374240139871835,0.0024586399085819,-1.9104918465e-05,-0.0172469727694988,standing,2026-03-04_13-53-18
1772632398831952000,0.193951904296875,-0.0556305191440507,-0.0245173322714865,0.0521627334356308,-0.0103748021647334,0.0071682948619127,-0.0145294722169637,standing,2026-03-04_13-53-18
1772632398841899500,0.2038994140625,-0.0424951797716319,0.0039186347484588,0.0682411770552396,-0.0184572301805019,0.0147697562351822,-0.011586146429181,standing,2026-03-04_13-53-18
1772632398851849000,0.213848876953125,-0.0371196972783654,0.0149294197149574,0.0601829582840204,-0.0248987469822168,0.0156861003488302,-0.0115991085767745,standing,2026-03-04_13-53-18
1772632398861796900,0.223796875,-0.0477171522036194,0.0149720898129045,0.0686439126372337,-0.0212725847959518,0.0080055426806211,-0.017577638849616,standing,2026-03-04_13-53-18
1772632398871745800,0.233745849609375,-0.0475910050733014,-0.0097366733774542,0.0579752191066741,-0.0109590850770473,0.0133321536704897,-0.0182541515678167,standing,2026-03-04_13-53-18
1772632398881694000,0.24369384765625,-0.0270753461912274,-0.018615414751321,-0.0426420408964157,0.0072100646793842,0.0221107304096221,-0.0156607646495103,standing,2026-03-04_13-53-18
1772632398891643000,0.253642822265625,-0.0098360786313191,0.041943829499185,-0.053980596512556,0.0137498266994953,0.003744778688997,-0.0147698875516653,standing,2026-03-04_13-53-18
1772632398901590800,0.2635908203125,0.0082904566245153,0.0597663403071463,0.028584873971343,0.0113814771175384,-0.0242080278694629,-0.0151421967893838,standing,2026-03-04_13-53-18
1772632398911539700,0.273539794921875,0.0660461512289941,0.0153730718292295,0.0772083273649215,0.0045777452178299,-0.025435883551836,-0.0101700164377689,standing,2026-03-04_13-53-18
1772632398921488000,0.28348779296875,0.0605067468782886,0.0276418940328061,0.0440454779535531,-0.0036354432813823,-0.0011625031474977,-0.0073169721290469,standing,2026-03-04_13-53-18
1772632398931436800,0.293436767578125,0.0070500646419823,0.0566077301457524,-0.0105921211630105,-0.0151495179161429,0.0200719498097896,-0.0095771476626396,standing,2026-03-04_13-53-18
1772632398941384700,0.303384765625,-0.0412143096482381,0.0731708885423839,-0.0219862063586711,-0.0274677015841007,0.0300859697163105,-0.0101973973214626,standing,2026-03-04_13-53-18
1772632398951334000,0.313333984375,-0.0162872640646994,0.0221883048020303,0.0018862521380186,-0.0290106944739818,0.0328498147428035,-0.0044120643287897,standing,2026-03-04_13-53-18
1772632398961281800,0.32328173828125,0.022840119774267,0.0216765558876097,0.0422018959134817,-0.0243472345173358,0.0204400159418582,0.000862326240167,standing,2026-03-04_13-53-18
1772632398971230700,0.333230712890625,0.0268480402413755,0.0528705894440412,0.0563964254826307,-0.0103382505476474,0.0007534562610089,0.003434672486037,standing,2026-03-04_13-53-18
1772632398981179000,0.343178955078125,0.0154953465020284,0.0398683383993804,0.0344265857368707,0.0112147107720375,-0.0099074440076947,0.0054994211532175,standing,2026-03-04_13-53-18
1772632398991127800,0.3531279296875,0.0229070840632542,0.0270382290512323,-0.0229962601840496,0.0224054642021656,-0.0135840624570846,0.005924402270466,standing,2026-03-04_13-53-18
1772632399001075700,0.36307568359375,-0.0082332830771803,0.0397780297674238,0.0088859017670154,0.0190131291747093,-0.0216118954122066,0.0036274259909987,standing,2026-03-04_13-53-18
1772632399011024600,0.373024658203125,-0.019602453027293,0.0344455826982855,0.0720908382207155,0.0059593017213046,-0.0258453655987977,-0.0030706017278134,standing,2026-03-04_13-53-18
1772632399020972800,0.382972900390625,-0.0515545018767938,-0.0259125860221683,0.1049883146941661,-0.0088374875485897,-0.0123532582074403,-0.0081915948539972,standing,2026-03-04_13-53-18
1772632399030921700,0.392921630859375,-0.0764816205255687,-0.0393000369921326,0.0740180068910121,-0.0215733703225851,0.003081499133259,-0.0111464299261569,standing,2026-03-04_13-53-18
1772632399040869600,0.40286962890625,-0.0735042121499776,0.0192694947458803,0.0465548304259777,-0.0358905233442783,0.0016527133993804,-0.0048666968941688,standing,2026-03-04_13-53-18
1772632399050818600,0.412818603515625,-0.0081898092616349,0.0359860901385545,0.0527881718575954,-0.0365591160953044,-0.0103352619335055,0.0042557641863822,standing,2026-03-04_13-53-18
1772632399060766700,0.4227666015625,0.0098579616695642,0.0235831201612949,0.0104436526030302,-0.0211814939975738,-0.0062307976186275,0.0099959410727024,standing,2026-03-04_13-53-18
1772632399070715600,0.432715576171875,0.0106635424314066,0.0394835768654942,-0.0822831464111805,-0.0005661589093506,0.0062636025249958,0.010634321719408,standing,2026-03-04_13-53-18
1772632399080663800,0.442663818359375,-0.0556888982677832,0.0376750661388039,-0.138116677314043,0.0148633979260921,0.0070577571168541,0.004284281283617,standing,2026-03-04_13-53-18
1772632399090612700,0.45261279296875,-0.0866711522370576,0.0147473411463201,-0.0887450359016656,0.0187439210712909,-0.0056270537897944,-0.0048173097893595,standing,2026-03-04_13-53-18
1772632399100560600,0.462560546875,-0.0789909729979932,-0.0669660425528883,-0.0046025253593921,0.0118282232433557,-0.0062241344712674,-0.0121218282729387,standing,2026-03-04_13-53-18
1772632399110509600,0.472509521484375,-0.038383141342923,-0.0912193170607089,0.0503425322711467,-0.000238939654082,0.0079964883625507,-0.0139671918004751,standing,2026-03-04_13-53-18
1772632399120458800,0.482458740234375,-0.0373574515569955,-0.0254616273842751,0.0759065971165895,-0.0184594877064228,0.0091453753411769,-0.0120755480602383,standing,2026-03-04_13-53-18
1772632399130407000,0.492406982421875,-0.0220525861257687,-0.0041029052741825,0.1233826340407133,-0.0359304845333099,-0.0037384431343525,-0.0069487653672695,standing,2026-03-04_13-53-18
1772632399140355800,0.50235595703125,0.0098475864060223,-0.025444237858057,0.1150146186679601,-0.0299285147339105,0.0020371545106172,-0.0049894778057932,standing,2026-03-04_13-53-18
1772632399150303700,0.5123037109375,-0.0017852394489571,-0.0086794194094836,0.0059346507459878,-0.0096514215692877,0.0191033594310283,-0.0027754339389503,standing,2026-03-04_13-53-18
1772632399160253000,0.5222529296875,-0.0352084933621808,0.0247251298032701,-0.0911456673026084,0.0134589578956365,0.0153222037479281,-0.0032252417877316,standing,2026-03-04_13-53-18
1772632399170200800,0.532200927734375,-0.0521213054466992,0.0008592471778392,-0.0661053340703249,0.0255840048193931,0.0034610272850841,-0.0149667533114552,standing,2026-03-04_13-53-18
1772632399180149800,0.542149658203125,-0.0387589158527553,-0.0640390491902828,-0.0241232183873653,0.0298109725117683,-0.0037231161259114,-0.0198467299342155,standing,2026-03-04_13-53-18
1772632399190098000,0.552097900390625,-0.0268399665327742,-0.0777400961540639,0.0336322204887866,0.0196937695145607,-0.0062901861965656,-0.0228861086070537,standing,2026-03-04_13-53-18
1772632399200046800,0.562046875,-0.0162129932520911,-0.0428939698308706,0.118112584683299,-0.0071964357048273,-0.0243397615849971,-0.0302289761602878,standing,2026-03-04_13-53-18
1772632399209994800,0.571994873046875,0.024183752935566,-0.040772739893198,0.1900520317345857,-0.0393217615783214,-0.0249354615807533,-0.0280641801655292,standing,2026-03-04_13-53-18
1772632399219943700,0.581943603515625,0.0243323310934007,-0.0568735414750874,0.1332499480605125,-0.0551276206970214,-0.0199122074991464,-0.0232076402753591,standing,2026-03-04_13-53-18
1772632399229891800,0.591891845703125,0.0281104613926261,0.0150119834318757,0.0171229842364788,-0.0520143769681453,-0.0084106922149658,-0.0154333300888538,standing,2026-03-04_13-53-18
1772632399239840800,0.6018408203125,0.0434658879673108,0.0810806387536227,-0.1524485695272684,-0.0269545633345842,0.0140903545543551,-0.0029175383970141,standing,2026-03-04_13-53-18
1772632399249788700,0.61178857421875,0.0317668284757062,0.1360331490382552,-0.2887099743634462,0.0094888396561145,0.0315466895699501,0.0105383098125457,standing,2026-03-04_13-53-18
1772632399259737900,0.62173779296875,0.0355539823316037,0.1427658182941377,-0.328254049244523,0.0443048775196075,0.0334559120237827,0.0196630991995334,standing,2026-03-04_13-53-18
1772632399269685800,0.631685791015625,0.0229487677805125,0.1394835817530751,-0.2360106498330831,0.066631905734539,0.0182366203516721,0.0174326412379741,standing,2026-03-04_13-53-18
1772632399279634700,0.641634765625,0.0072606386527419,0.0773151487402617,-0.0786614487826824,0.0672175362706184,0.0007268683984875,0.0133548099547624,standing,2026-03-04_13-53-18
1772632399289582800,0.651582763671875,0.0176111330796033,0.007312661100924,0.090868603926897,0.0510206036269664,-0.0129788015037775,0.0050427494570612,standing,2026-03-04_13-53-18
1772632399299531800,0.66153173828125,-0.0310273717526346,-0.0030206629954278,0.2136924350410699,0.0265056733042001,-0.0134363332763314,-0.0055872583761811,standing,2026-03-04_13-53-18
1772632399309479700,0.671479736328125,-0.0460730382584035,-0.0321419819310307,0.2461316463530063,-0.0033390615135431,-0.0010276441462337,-0.0119478153064847,standing,2026-03-04_13-53-18
1772632399319428600,0.6814287109375,-0.0235448339775204,-0.0461997333779931,0.2127379107952118,-0.0270758159458637,0.009350961074233,-0.0101453876122832,standing,2026-03-04_13-53-18
1772632399329376800,0.691376708984375,-0.0046086263066157,-0.0182904205806553,0.1796796908020973,-0.0439535789191722,0.0181567464023828,-0.0095473788678646,standing,2026-03-04_13-53-18
1772632399339325700,0.70132568359375,0.0013867051180452,0.0132557874143123,0.1466390064656734,-0.0491379536688327,0.0183287858963012,-0.0099995834752917,standing,2026-03-04_13-53-18
1772632399349273600,0.711273681640625,0.0018071224872022,0.0102257720686495,0.0937228243142366,-0.0448608733713626,0.0070853983052074,-0.0090969996526837,standing,2026-03-04_13-53-18
1772632399359223000,0.72122314453125,-0.0040347354087978,0.0160179456040263,0.0343634573727846,-0.0283831004053354,0.004974843468517,-0.0014188400236889,standing,2026-03-04_13-53-18
1772632399369171200,0.731171142578125,0.0157045322732999,0.0430044444680213,-0.0698451051205396,-0.001601381227374,0.008774827234447,0.0007426512893289,standing,2026-03-04_13-53-18
1772632399379120000,0.7411201171875,-0.0185960524637252,0.0546375991165637,-0.1219873802900314,0.0204226933419704,0.0037217452190816,-0.0023870957084,standing,2026-03-04_13-53-18
1772632399389068000,0.751068115234375,-0.0358453664936125,0.0165434307828545,-0.1129243683904409,0.0341386087238788,-0.0030128511134535,5.5338954553e-05,standing,2026-03-04_13-53-18
1772632399399017200,0.761017333984375,-0.0122690413992851,0.0032473113581538,-0.0887304228544235,0.0379959307610988,-0.0088020302355289,0.0007086123805493,standing,2026-03-04_13-53-18
1772632399408966100,0.770966064453125,-0.0064458516711369,0.0130330845743417,-0.0249672679960727,0.0287195667624473,-0.0090217581018805,-0.0044950866140425,standing,2026-03-04_13-53-18
1772632399418914000,0.7809140625,-0.0403903895121067,-0.0287996857658028,0.0243956055879592,0.0105690583586692,-0.0039210054092109,-0.0072730300016701,standing,2026-03-04_13-53-18
1772632399428863000,0.790863037109375,-0.0504584502683952,-0.0440304265148937,0.0363362187504768,-0.0096126040443778,0.011090331710875,-0.006295243743807,standing,2026-03-04_13-53-18
1772632399438811100,0.80081103515625,-0.0591749502852559,-0.0137298346668481,0.0539689060747623,-0.0261242017149925,0.0173594132065773,-0.0071181608363986,standing,2026-03-04_13-53-18
1772632399448760000,0.810760009765625,-0.0708209644153714,-0.0193735396422445,0.0615074848860502,-0.0349801294505596,0.010099172592163,-0.0088919959962368,standing,2026-03-04_13-53-18
1772632399458708000,0.8207080078125,-0.0363151028972119,-0.0333931510359048,0.0386783979624509,-0.0240561105310916,0.0147240180522203,-0.0059095215983688,standing,2026-03-04_13-53-18
1772632399468657000,0.830656982421875,-0.043348106806539,-0.0105159871868789,-0.0720306324660778,-0.0038769813254475,0.0163676086813211,-0.0049853650853037,standing,2026-03-04_13-53-18
1772632399478605000,0.84060498046875,-0.0497036133131012,0.0414395332388579,-0.1144353574752807,0.0194927901029586,0.0070779691450297,-0.0058391746133565,standing,2026-03-04_13-53-18
1772632399488554000,0.850553955078125,-0.0286314165268093,0.0237419639848172,-0.1077899281114339,0.0390917137265205,-0.0009141385089606,-0.0038579683750867,standing,2026-03-04_13-53-18
1772632399498502100,0.860502197265625,-0.0134638406744226,0.0111827805325388,-0.0817769504547119,0.0472042337059974,-0.0058425841853022,-0.0059448210522532,standing,2026-03-04_13-53-18
1772632399508451300,0.870451416015625,-0.0474491489171981,0.014644026902318,-0.0082207158565521,0.0449772663414478,-0.011366942897439,-0.009793228469789,standing,2026-03-04_13-53-18
1772632399518399000,0.88039892578125,-0.0467008878331631,0.012722995711863,0.0697422292679548,0.0266390014439821,-0.0143020134419202,-0.0094528766348958,standing,2026-03-04_13-53-18
1772632399528348200,0.89034814453125,0.0071435881443321,-0.0052376083925366,0.1319318511992692,0.0016728122718632,-0.0031521343626081,-0.007589797489345,standing,2026-03-04_13-53-18
1772632399538296300,0.90029638671875,-0.0289875730207189,0.0233028419151902,0.1485217514723539,-0.0167637206614017,0.0068219369277358,-0.0083213681355118,standing,2026-03-04_13-53-18
1772632399548245200,0.910245361328125,-0.0573546029902994,0.0101357556976377,0.157622757294774,-0.0299362912774086,-0.0010072409640997,-0.0135636823251843,standing,2026-03-04_13-53-18
1772632399558193200,0.920193115234375,-0.0524724569719284,-0.0064411389634013,0.156919577461481,-0.0323288738727569,-0.0155470352619886,-0.0139288017526268,standing,2026-03-04_13-53-18
1772632399568142000,0.93014208984375,-0.0438735554527491,0.0013791793987154,0.0762169782400131,-0.0191027149558067,-0.0120404455810785,-0.0144515316933393,standing,2026-03-04_13-53-18
1772632399578090200,0.94009033203125,-0.0628104572433978,0.0329106282159686,-0.0268050048172473,-0.0013138633221387,-0.0041953055188059,-0.0149460807442665,standing,2026-03-04_13-53-18
1772632399588039200,0.9500390625,-0.0622499738164246,0.0546745701260864,-0.0729839876681566,0.0139909973368048,-0.003354268381372,-0.0205524675548076,standing,2026-03-04_13-53-18
1772632399597987000,0.959987060546875,-0.0725047893164679,0.013937047676742,-0.1021960536271333,0.0250977091491222,-0.0001126686111092,-0.0214478224515914,standing,2026-03-04_13-53-18
1772632399607936300,0.969936279296875,-0.0264653610667213,0.026097879461199,-0.0750274761945009,0.0283307675272226,0.0066836746409535,-0.0159354750066995,standing,2026-03-04_13-53-18
1772632399617884200,0.97988427734375,0.0190443442204967,0.0633319238342344,-0.0029039047479629,0.0163819622248411,0.002656708471477,-0.0068290615454316,standing,2026-03-04_13-53-18
1772632399627833000,0.9898330078125,0.0545300470888614,0.0453850559942424,0.084236618566513,-0.0038881916552782,-0.008451884612441,-0.0022344579920172,standing,2026-03-04_13-53-18
1772632399637781200,0.99978125,0.0663076517093926,0.0218371532768011,0.1548573842346668,-0.0201039128005504,-0.0142586408182978,-0.0047205188311636,standing,2026-03-04_13-53-18
1772632399647730200,1.009730224609375,-0.0141379040110856,-0.0073716978117823,0.150071319001913,-0.0240005850791931,-0.0134904067963361,-0.0173713117837905,standing,2026-03-04_13-53-18
1772632399657678000,1.019677978515625,-0.0771135982861742,-0.0221257609598338,0.0614747516602277,-0.0173456110060215,-0.0046178186312317,-0.0164149720221757,standing,2026-03-04_13-53-18
1772632399667627000,1.029626953125,-0.0522889170985668,-0.0024365794971585,-0.0269113878011703,-0.0034110927954316,0.0057293497957289,-0.0069459346123039,standing,2026-03-04_13-53-18
1772632399677575200,1.0395751953125,0.0193880796242505,0.0402256274044513,-0.0646288317769765,0.0158555451780557,0.0133345387876033,0.0031253416091203,standing,2026-03-04_13-53-18
1772632399687524000,1.049524169921875,0.0286975405655801,0.0635544805437326,-0.0699111560940742,0.0304905902594327,0.0080229779705405,0.0033751060254871,standing,2026-03-04_13-53-18
1772632399697472000,1.059471923828125,0.0190053273843601,0.0138216046035289,0.000775660547614,0.0294484961777925,-0.0148162906989455,-0.002418867079541,standing,2026-03-04_13-53-18
1772632399707421200,1.069421142578125,-0.0136702134341001,-0.042019378953427,0.1241249768406152,0.0123703181743621,-0.0477158948779106,-0.0229710824787616,standing,2026-03-04_13-53-18
1772632399717370000,1.0793701171875,-0.0614839213473722,-0.089415774770081,0.2028115600645542,-0.0155220329761505,-0.0611448846757411,-0.0405167862772941,standing,2026-03-04_13-53-18
1772632399727318000,1.089318115234375,-0.0724925143567845,-0.0897825622558593,0.1784703150123357,-0.0432853437960147,-0.052653107792139,-0.0461691468954086,standing,2026-03-04_13-53-18
1772632399737267000,1.099266845703125,-0.0447797835774719,-0.0127197808414697,0.0712614016592502,-0.0593726970255374,-0.028043370693922,-0.0337380431592464,standing,2026-03-04_13-53-18
1772632399747215000,1.109215087890625,0.0153736198185011,0.0839807441093027,-0.1051841295272111,-0.0458480343222618,0.0085589587688446,-0.0064324773848056,standing,2026-03-04_13-53-18
1772632399757164000,1.1191640625,0.0793545456133782,0.188017749428004,-0.2970288898974657,-0.0132378907874226,0.0392391048371791,0.0198987293988466,standing,2026-03-04_13-53-18
1772632399767112000,1.12911181640625,0.0719370358984917,0.2299037112601101,-0.4007610670506954,0.0327414907515049,0.0404253527522087,0.0295964628458023,standing,2026-03-04_13-53-18
1772632399777061000,1.13906103515625,0.0208831770202144,0.2049858353637158,-0.3964636621177196,0.0716137886047363,0.028095444664359,0.0270659290254116,standing,2026-03-04_13-53-18
1772632399787009000,1.149009033203125,-0.0334174086943268,0.089564097199589,-0.2900380080968141,0.0929543748497963,0.0184364933520555,0.0168596878647804,standing,2026-03-04_13-53-18
1772632399796958200,1.158958251953125,-0.0903381137793883,0.0134925187796354,-0.1223468612521886,0.0846855267882347,0.0091236839070916,0.0046256580390036,standing,2026-03-04_13-53-18
1772632399806906000,1.168906005859375,-0.1045876980040222,-0.0405694724060595,0.0961579425066709,0.0559175908565521,0.0013725433964282,-0.0063850143924355,standing,2026-03-04_13-53-18
1772632399816855300,1.178855224609375,-0.0544661150071769,-0.0772837306886911,0.2875239794492721,0.0113333445042371,0.0005067496094852,-0.0058433273807168,standing,2026-03-04_13-53-18
1772632399826803200,1.18880322265625,-0.0046033656096085,-0.0850998112671077,0.3946422919094562,-0.0259658955037593,0.0047256210818886,-0.0022000335156917,standing,2026-03-04_13-53-18
1772632399836752100,1.198752197265625,0.0031836715374141,-0.0722477823480963,0.3978887264847755,-0.0507700443267822,-0.004342708736658,-0.0077268918976187,standing,2026-03-04_13-53-18
1772632399846700300,1.2087001953125,-0.0137995754348114,-0.05849573584944,0.3180576494008302,-0.0503921918570995,-0.0146559355780482,-0.0134171592071652,standing,2026-03-04_13-53-18
1772632399856649200,1.218649169921875,-0.0395306674102321,-0.0462871194005012,0.1800865180373191,-0.038426611572504,-0.0193007551133632,-0.0231368988752365,standing,2026-03-04_13-53-18
1772632399866597000,1.22859716796875,-0.0739764693042263,-0.0327373174756765,0.0327110139906406,-0.0176203586161136,-0.0186529103666543,-0.0248409137129783,standing,2026-03-04_13-53-18
1772632399876546000,1.238546142578125,-0.0601668108668178,0.0063102060601115,-0.0980775123924016,0.0060050748288631,-0.0021013645455241,-0.0178083050996065,standing,2026-03-04_13-53-18
1772632399886494200,1.248494140625,-0.0119388230642303,0.0744495301760733,-0.1808241846621036,0.0240138862282037,0.0111609864979982,-0.0057059577666223,standing,2026-03-04_13-53-18
1772632399896443100,1.258443115234375,0.0373158043723553,0.1006257355704903,-0.1538362244933843,0.0311042852699756,0.0062866024672985,0.0029168252367526,standing,2026-03-04_13-53-18
1772632399906391000,1.26839111328125,0.061752801416628,0.1151269930012524,-0.080743515753746,0.0250687934458255,-0.0062660435214638,0.0016836544964462,standing,2026-03-04_13-53-18
1772632399916340200,1.27834033203125,0.045847595472075,0.0540875640183687,0.0045288756012916,0.0132273146882653,-0.0119159398600459,0.0015009616035968,standing,2026-03-04_13-53-18
1772632399926288100,1.2882880859375,0.0305836831057444,0.0085611998572945,0.0289788417249917,0.0007794969715178,-0.0063852882012724,-0.0040127974934875,standing,2026-03-04_13-53-18
1772632399936237000,1.298237060546875,0.0262181813726201,0.0091221947409212,0.045293432188034,-0.0188429411500692,0.0014446717686951,-0.0072304289788007,standing,2026-03-04_13-53-18
1772632399946185200,1.308185302734375,0.0039118396814912,0.0144368138924241,0.0334434199184179,-0.0316704884171485,0.0164159033447504,-0.0046473797410726,standing,2026-03-04_13-53-18
1772632399956134100,1.318134033203125,0.016679112926498,0.0197356509529054,0.0222796363472938,-0.0337826423346996,0.0264243297278881,0.0052646389231085,standing,2026-03-04_13-53-18
1772632399966082000,1.32808203125,0.0327254809074103,0.0427300114408135,-0.0244213245511055,-0.0245630554854869,0.0224546920508146,0.0074618561193346,standing,2026-03-04_13-53-18
1772632399976031000,1.338031005859375,-0.0034666531972587,0.0603249971032142,-0.0859089356929063,-0.0020092744380235,0.0242456663399934,0.0106235612183809,standing,2026-03-04_13-53-18
1772632399985979100,1.347979248046875,-0.0289039863904938,0.0470918599121272,-0.1329249538898468,0.025891413912177,0.0280523523688316,0.0133478939533233,standing,2026-03-04_13-53-18
1772632399995928000,1.357927978515625,-0.0337326851885765,0.0514710979096591,-0.1179705458641052,0.0444813407957553,0.019625311717391,0.0136874467134475,standing,2026-03-04_13-53-18
1772632400005876000,1.3678759765625,-0.0262763047680258,0.0659926674760878,-0.0332680633515119,0.0464909933507442,0.001676301471889,0.0042789047583937,standing,2026-03-04_13-53-18
1772632400015825200,1.3778251953125,-0.0700020492479205,0.0021872809112071,0.0688321286857128,0.0315019264817237,-0.0104429461061954,-0.0090326396748423,standing,2026-03-04_13-53-18
1772632400025773000,1.38777294921875,-0.083801332421787,-0.0464094306059181,0.1427273859798908,0.0086782649159431,0.0008384655229747,-0.0095346942543983,standing,2026-03-04_13-53-18
1772632400035722000,1.397721923828125,-0.0514252494739368,-0.0422781760200858,0.1666881072819233,-0.0159642305225133,0.0151042202487587,-0.005319976247847,standing,2026-03-04_13-53-18
1772632400045670100,1.407670166015625,-0.0412716658586636,-0.0012552607581019,0.1661339805305004,-0.02891680970788,0.013588186353445,-0.0029400477651506,standing,2026-03-04_13-53-18
1772632400055619000,1.417619140625,-0.0322315964432433,0.0128461837001144,0.1096224042356014,-0.0284707285463809,0.0105772158131003,-0.0033256732858717,standing,2026-03-04_13-53-18
1772632400065568300,1.427568359375,-0.0650767216749489,0.0136287123799324,0.029191023170948,-0.018060628324747,0.0169332958757877,-0.0051179593428969,standing,2026-03-04_13-53-18
1772632400075516200,1.43751611328125,-0.1051337145142257,0.0161376264609396,-0.0408446360856294,-0.0044603953137993,0.0164270289242267,-0.0103089930489659,standing,2026-03-04_13-53-18
1772632400085465000,1.447465087890625,-0.1207571809079498,-0.0025721885755658,-0.0671142188519239,0.009374476969242,0.0021002604626119,-0.0196217820048332,standing,2026-03-04_13-53-18
1772632400095413200,1.457413330078125,-0.1508387231778353,-0.0358931511580944,-0.0393172803878784,0.0136808082461357,-0.006532376166433,-0.0323016233742237,standing,2026-03-04_13-53-18
1772632400105362200,1.467362060546875,-0.1503097308676689,-0.0451487630203366,-0.0373129548281431,0.0132461190223693,0.0029013501480221,-0.0330546684563159,standing,2026-03-04_13-53-18
1772632400115310000,1.47731005859375,-0.0933570962743833,-0.0206298233136534,-0.0366577057898044,0.0057083079591393,0.0203250795602798,-0.0230438467115163,standing,2026-03-04_13-53-18
1772632400125259300,1.48725927734375,-0.0101364132847636,0.0335834129109978,0.0063531684190034,-0.006051848642528,0.0119322817772626,-0.0161536745727062,standing,2026-03-04_13-53-18
1772632400135207200,1.497207275390625,0.0327067031417042,0.0561740149036049,0.0679933397740125,-0.0125467656180262,0.0100411716848611,-0.0136311287060379,standing,2026-03-04_13-53-18
1772632400145156000,1.507156005859375,0.0086430694544687,0.0378998148053884,0.0216886847168207,-0.0051971296779811,0.0238585732877254,-0.010130344890058,standing,2026-03-04_13-53-18
1772632400155104300,1.517104248046875,-0.0285650002270936,0.0742591221705079,-0.0426198290646076,0.0026983437128365,0.0296818427741527,-0.0075156530365347,standing,2026-03-04_13-53-18
1772632400165053200,1.52705322265625,-0.0257564456123858,0.0972527520060539,-0.0443079282820224,0.0040413052774965,0.0159581266343593,-0.0069161965511739,standing,2026-03-04_13-53-18
1772632400175001000,1.5370009765625,-0.0267399402244016,0.077631667343527,0.0347702846080064,0.0013160924427211,-0.0034869429655373,-0.0152929034084081,standing,2026-03-04_13-53-18
1772632400184950000,1.546949951171875,-0.0408931879350915,0.021225451119244,0.0838175163716077,0.0029599075205624,0.0057812011800706,-0.0151191037148237,standing,2026-03-04_13-53-18
1772632400194898200,1.556898193359375,-0.0093024832112714,-0.0026528525963425,0.0616606296211481,0.0062302690930664,0.0258736852556467,-0.0072444025427103,standing,2026-03-04_13-53-18
1772632400204847000,1.56684716796875,-0.0074365066763013,0.0293146495506167,0.0627770664304494,0.0073542380705475,0.0202522631734609,-0.0051036868244409,standing,2026-03-04_13-53-18
1772632400214795000,1.576794921875,0.0077420289615169,0.0288807881779968,0.0915191767901182,0.0041320789605379,-0.0032594541553407,-0.0048813130706548,standing,2026-03-04_13-53-18
1772632400224744200,1.586744140625,0.0281851705966517,-0.031523119380325,0.1560498088896274,-0.0013626129366457,-0.0272891465574502,-0.0103042079135775,standing,2026-03-04_13-53-18
1772632400234692000,1.596692138671875,0.0215522719208151,-0.0465983773067593,0.1770370673388242,-0.0134096890687942,-0.046434074640274,-0.0163485184311866,standing,2026-03-04_13-53-18
1772632400244641000,1.60664111328125,-0.0175048962261527,-0.0368223948322236,0.1621247448891401,-0.0295584090054035,-0.0567990764975547,-0.0267535559833049,standing,2026-03-04_13-53-18
1772632400254589200,1.616589111328125,-0.0760073175447061,-0.0396586411714553,0.1004898342311382,-0.0421445108950138,-0.0383835844695568,-0.0367068536579608,standing,2026-03-04_13-53-18
1772632400264538000,1.6265380859375,-0.1040061717890202,-0.0455430230349302,-0.0684907679021358,-0.0432590097188949,0.0111331641674041,-0.0337182097136974,standing,2026-03-04_13-53-18
1772632400274486000,1.636486083984375,-0.0996343864455819,0.0269825533412396,-0.2390425648748874,-0.0294736884534358,0.0569515191018581,-0.0128928227350115,standing,2026-03-04_13-53-18
1772632400284435000,1.64643505859375,-0.0531528039189055,0.1161800091855227,-0.2939087120503187,-0.0105276685208082,0.0621651634573936,0.0109920231625437,standing,2026-03-04_13-53-18
1772632400294383000,1.656383056640625,0.0274609114427119,0.1286839553192257,-0.1876560765087604,0.0059495754539966,0.0126631222665309,0.0163548309355974,standing,2026-03-04_13-53-18
1772632400304332000,1.66633203125,0.00473696539402,0.041417029146105,-0.0683697718709707,0.0302747506648302,-0.0270633473992347,0.0086486293002963,standing,2026-03-04_13-53-18
1772632400314280000,1.676280029296875,-0.0303876490769907,-0.0544349161513149,-0.0982101988613605,0.0563337840139865,-0.0228638090193271,-0.003106031101197,standing,2026-03-04_13-53-18
1772632400324229000,1.68622900390625,-0.1210221519870683,-0.0420944900162518,-0.1682785913437604,0.0668213814496994,0.0002522710710763,-0.016755087301135,standing,2026-03-04_13-53-18
1772632400334177000,1.696177001953125,-0.1750515195447951,-0.0017291618801653,-0.1413268715322017,0.054954070597887,0.0146240200847387,-0.0222481228411197,standing,2026-03-04_13-53-18
1772632400344126200,1.706126220703125,-0.0656668330552056,-0.0381511592179536,-0.0106330376952886,0.0255070570856332,0.0250914599746465,-0.0139712449163198,standing,2026-03-04_13-53-18
1772632400354074000,1.71607421875,0.0463193411696702,-0.0334052798651158,0.1393126091003418,-0.0082889897748827,0.0229486804455518,-0.0062470128759741,standing,2026-03-04_13-53-18
1772632400364023800,1.72602392578125,0.0590020414037629,0.0043956046104431,0.263445184725523,-0.0392244309186935,0.0044999038800597,-0.0066973040811717,standing,2026-03-04_13-53-18
1772632400373972000,1.735971923828125,0.0395963895902037,-0.0087011928498744,0.2945779896140098,-0.053233191370964,-0.0126316789537668,-0.0140324486419558,standing,2026-03-04_13-53-18
1772632400383921000,1.7459208984375,0.0357830418471246,-0.0516122599460184,0.2026163297533988,-0.0428105928003788,-0.0079635540023446,-0.0145340301096439,standing,2026-03-04_13-53-18
1772632400393869800,1.755869873046875,0.0305044438570737,-0.0097789050839841,0.0033539866030216,-0.0142769534140825,0.0209216251969337,-0.0051011135801672,standing,2026-03-04_13-53-18
1772632400403818000,1.76581787109375,0.0328527970815077,0.1037397759377956,-0.211758252108097,0.0223978441208601,0.0390243642032146,0.0101632494479417,standing,2026-03-04_13-53-18
1772632400413767000,1.775766845703125,0.0840475988004356,0.1808912585489451,-0.2217161670207977,0.0504031106829643,0.0204458851367235,0.0249283481389284,standing,2026-03-04_13-53-18
1772632400423714800,1.78571484375,0.1420832063248381,0.1750184209927916,-0.0719698421895504,0.0540985502302646,-0.0241980701684951,0.0381168909370899,standing,2026-03-04_13-53-18
1772632400433663700,1.795663818359375,0.1629643375184387,0.1175954289413988,0.1087573118388652,0.0396450422704219,-0.0601890943944454,0.0333330556750297,standing,2026-03-04_13-53-18
1772632400443612000,1.80561181640625,0.0942167453110218,0.056494625160098,0.2049292828708886,0.0191297233104705,-0.0688708126544952,0.0219802875071764,standing,2026-03-04_13-53-18
1772632400453560800,1.815560791015625,0.0156716529170051,-0.0080995736949145,0.130486913087964,0.0013440675102174,-0.0369709432125091,0.0140390060842037,standing,2026-03-04_13-53-18
1772632400463508700,1.8255087890625,-0.0091343235701322,0.0120823597207665,0.0075502692490816,-0.0191026534885168,0.0127554377540946,0.0197803769260644,standing,2026-03-04_13-53-18
1772632400473458000,1.8354580078125,-0.0006691679658368,0.0801649852134287,-0.0797042358338832,-0.0293632801622152,0.0545958280563354,0.0388829633593559,standing,2026-03-04_13-53-18
1772632400483405800,1.84540576171875,0.0687362670958042,0.1066786058686673,-0.1266629708856344,-0.0226738657802343,0.0703609809279441,0.0596977286040782,standing,2026-03-04_13-53-18
1772632400493354800,1.855354736328125,0.0878022386262193,0.1018368649259209,-0.1135170735865831,-0.0067630750127136,0.0431213676929473,0.0649260431528091,standing,2026-03-04_13-53-18
1772632400503303000,1.865302978515625,0.0542021668413654,0.0596095423102378,-0.0357271469414234,0.0156916491687297,-0.0056912088766694,0.0578497797250747,standing,2026-03-04_13-53-18
1772632400513252000,1.875252197265625,-0.031068397882767,-0.0391691040888428,0.018842063114047,0.0348658747971057,-0.0336389541625976,0.0449068173766136,standing,2026-03-04_13-53-18
1772632400523199700,1.88519970703125,-0.0825652147555723,-0.0861535581037402,-0.0076940616339445,0.0531041882932186,-0.0339617617428302,0.0308644697070121,standing,2026-03-04_13-53-18
1772632400533149000,1.89514892578125,-0.1187103679133579,-0.0892475785963237,-0.0026595745980739,0.0497635193169117,-0.0248857084661722,0.0235431753098964,standing,2026-03-04_13-53-18
1772632400543097000,1.90509716796875,-0.1271102397290989,-0.0721351157538592,0.0322901582300663,0.0327219180762767,-0.0114436857402324,0.0245726071298122,standing,2026-03-04_13-53-18
1772632400553046000,1.9150458984375,-0.0910963482681661,-0.0419908835113048,0.0920966844171285,0.0062407753430306,0.0039483201690018,0.0282624159008264,standing,2026-03-04_13-53-18
1772632400562994000,1.924993896484375,-0.0816744399283081,-0.0162103994362056,0.1611982776939869,-0.0229893624782562,0.0101789431646466,0.0267849806696176,standing,2026-03-04_13-53-18
1772632400572942800,1.93494287109375,-0.114454865893349,-0.02697714651376,0.2018535286873579,-0.041411779820919,0.0063269473612308,0.0193017646670341,standing,2026-03-04_13-53-18
1772632400582891000,1.94489111328125,-0.1334622756369411,-0.0567788489289581,0.1687988158255815,-0.0437483340501785,0.0032656486146152,0.0094316080212593,standing,2026-03-04_13-53-18
1772632400592840000,1.95483984375,-0.1658585611226037,-0.0677240213133394,0.0860305162459611,-0.0370014831423759,0.0021194238215684,-0.0015131850959733,standing,2026-03-04_13-53-18
1772632400602788000,1.9647880859375,-0.1670232209878042,-0.0638078707829117,0.0313560922503471,-0.0214066561311483,-0.0077221463434398,-0.0092965988442301,standing,2026-03-04_13-53-18
1772632400612737000,1.974737060546875,-0.1249575552072376,-0.0280237329572439,-0.045431379354,-0.0016230978071689,-0.0158783439546823,-0.0054009268060326,standing,2026-03-04_13-53-18
1772632400622685000,1.984684814453125,-0.0710222226085141,0.0137342185810208,-0.0898030205219984,0.0180074740201234,-0.0109530705958604,0.000926409382373,standing,2026-03-04_13-53-18
1772632400632633900,1.9946337890625,-0.0376999448517337,0.0614227292120456,-0.1087508820980787,0.0289639849215745,-0.0113171255216002,0.0033714575693011,standing,2026-03-04_13-53-18
1772632400642582000,2.00458203125,-0.0154431413907557,0.0750967420384287,-0.0699777915894985,0.0271227564662694,-0.0220190770924091,0.0055972482077777,standing,2026-03-04_13-53-18
1772632400652531000,2.014531005859375,-0.0184704533226788,0.0555113132111728,0.0131663555651903,0.0209026783704757,-0.016278900206089,0.0055498438887298,standing,2026-03-04_13-53-18
1772632400662478800,2.024478759765625,0.0029811712352558,0.0313159063704311,0.017111293798685,0.008446592837572,-0.001584772253409,-0.0021593174897134,standing,2026-03-04_13-53-18
1772632400672427800,2.034427734375,-0.027743746972084,0.0332145795986056,0.0188847332119941,-0.0060404706746339,0.0025449914392083,-0.0073663303628563,standing,2026-03-04_13-53-18
1772632400682376000,2.0443759765625,-0.0103665687788277,0.0196302908822894,0.0463543394178152,-0.0195590145885944,0.0057655200362205,-0.0014336348976939,standing,2026-03-04_13-53-18
1772632400692324900,2.054324951171875,0.0403412166081368,0.0181000125750899,0.0185445414721965,-0.0198620818555355,0.0195087641477584,0.0054509034380316,standing,2026-03-04_13-53-18
1772632400702272800,2.064272705078125,0.0378880513023585,0.0691474782451987,-0.0186941790759563,-0.0121709164232015,0.027738370001316,0.0128344874829053,standing,2026-03-04_13-53-18
1772632400712222000,2.074221923828125,0.0404625049002468,0.082427523317933,-0.0285182384759187,-0.0033230953849852,0.0162132754921913,0.0147040262818336,standing,2026-03-04_13-53-18
1772632400722171000,2.0841708984375,0.0464068733226507,0.0373373586170375,0.0280009366035461,0.0061452407389879,0.0022684310097247,0.0164899416267871,standing,2026-03-04_13-53-18
1772632400732118800,2.094118896484375,0.0699543011160567,-0.006311082842946,0.0679074150562286,0.0153717622160911,0.0010660134721547,0.0209957435727119,standing,2026-03-04_13-53-18
1772632400742067700,2.104067626953125,0.0552463786646723,0.0335369434207677,0.0877180309414863,0.0132488552480936,-0.0163185745477676,0.0207581408321857,standing,2026-03-04_13-53-18
1772632400752016000,2.114015869140625,0.0543702168846502,0.0421771998636424,0.1622843193650245,-0.0007969224825501,-0.0516344867646694,0.0149766840040683,standing,2026-03-04_13-53-18
1772632400761964800,2.12396484375,0.0390473043400794,-0.0210563781626522,0.2238824051439762,-0.02655547298491,-0.0674018189311027,0.0055674910545349,standing,2026-03-04_13-53-18
1772632400771912700,2.13391259765625,0.0066629650205373,-0.0432799004085361,0.2034334913551807,-0.0447752214968204,-0.0502151101827621,0.0035402928479015,standing,2026-03-04_13-53-18
1772632400781862100,2.143862060546875,-0.0349113735791295,0.0007816518969833,0.0454290412664413,-0.0510392896831035,-0.0192206483334302,0.0072604613378643,standing,2026-03-04_13-53-18
1772632400791809800,2.153809814453125,-0.0496122452352195,0.0706067371428012,-0.1473901170939207,-0.0357564762234687,0.0185371153056621,0.0227262359112501,standing,2026-03-04_13-53-18
1772632400801759000,2.163759033203125,-0.034808607324399,0.1369327282264828,-0.3171791130006313,-0.0041520539671182,0.0460018292069435,0.0414919927716255,standing,2026-03-04_13-53-18
1772632400811707100,2.17370703125,0.0163541552884504,0.1779384000927209,-0.3704313952386379,0.0278042815625667,0.0418885797262191,0.0541697070002555,standing,2026-03-04_13-53-18
1772632400821656000,2.183656005859375,-0.0039185982158407,0.1504731778010725,-0.2778092256426811,0.0549304373562336,0.0183218792080879,0.0516711212694644,standing,2026-03-04_13-53-18
1772632400831604000,2.19360400390625,-0.0485307336088269,0.0347740840002894,-0.1362011990815401,0.0668297037482261,-0.0022901883348822,0.0362090729176998,standing,2026-03-04_13-53-18
1772632400841553000,2.203552978515625,-0.0945732305984944,-0.0563870731323957,-0.022616905477643,0.0650752112269401,-0.0061549674719572,0.0228139068931341,standing,2026-03-04_13-53-18
1772632400851501000,2.2135009765625,-0.1259831719279289,-0.0730355717249214,0.1010591585516929,0.0422231629490852,-0.0081941504031419,0.0120115913450717,standing,2026-03-04_13-53-18
1772632400861450000,2.223449951171875,-0.1225045360319316,-0.0565351033009588,0.2521247492879629,0.0030876656528562,-0.0172759760171175,0.0037536402232944,standing,2026-03-04_13-53-18
1772632400871398000,2.23339794921875,-0.0839343111516907,-0.0916726137861609,0.3505032904535531,-0.033342245966196,-0.0174115300178527,0.0021988865919411,standing,2026-03-04_13-53-18
1772632400881346800,2.243346923828125,-0.0470560214137658,-0.0818460701681673,0.3165273710936307,-0.0567468740046024,-0.0054023750126361,0.0018613368738442,standing,2026-03-04_13-53-18
1772632400891295000,2.253294921875,-0.0733938471106812,-0.0457893990114331,0.2290928332686424,-0.0672019124031066,-0.0031812987290322,-0.0061941929161548,standing,2026-03-04_13-53-18
1772632400901244000,2.263243896484375,-0.1275260905209928,-0.0345405675053596,0.1030652376770973,-0.0568595752120018,-0.0017728887032717,-0.0151921063661575,standing,2026-03-04_13-53-18
1772632400911192000,2.273192138671875,-0.1160873989986255,-0.0555227113880217,-0.0489385106921195,-0.0316375792026519,0.0183598101139068,-0.0110165365040302,standing,2026-03-04_13-53-18
1772632400921141000,2.28314111328125,-0.0871763618128374,-0.001470510943979,-0.1668500198453664,-0.0007939697243273,0.0267700832337141,-0.0079082623124122,standing,2026-03-04_13-53-18
1772632400931089000,2.2930888671875,-0.0553005200047045,0.0713578477710485,-0.1476589971631765,0.02073928527534,-0.0010170724708586,-0.0045193894766271,standing,2026-03-04_13-53-18
1772632400941037800,2.303037841796875,0.0146771254543215,0.0502624527722597,-0.0450888495266437,0.0280896574258804,-0.0287328399717807,-0.0014928237069398,standing,2026-03-04_13-53-18
1772632400950986000,2.312986083984375,0.046606597145833,0.0176299108453094,0.0013625205248594,0.0303666591644287,-0.0335150770843029,-4.11346554756e-05,standing,2026-03-04_13-53-18
1772632400960935000,2.322934814453125,0.0194157348161563,0.0320895210914313,0.0219961432307958,0.0209710989147424,-0.0340006127953529,-0.001704892842099,standing,2026-03-04_13-53-18
1772632400970882800,2.3328828125,0.001973053638637,0.0375339041024446,0.0216068516522645,0.0051551181823015,-0.0277813300490379,-0.0022114261519163,standing,2026-03-04_13-53-18
1772632400980831700,2.342831787109375,0.0200282041586935,0.03122472095564,0.0142412913203239,-0.009890854358673,-0.0059753344394266,0.0005870552267879,standing,2026-03-04_13-53-18
1772632400990780000,2.35277978515625,0.0321682488834485,0.055318713248521,-0.0317559052228927,-0.0201197899878025,0.0123317679390311,0.0034869711380451,standing,2026-03-04_13-53-18
1772632401000728800,2.362728759765625,0.0027383389227092,0.0847298089109361,-0.0391834248751401,-0.023361824452877,0.0138068255037069,0.0056177047081291,standing,2026-03-04_13-53-18
1772632401010676700,2.3726767578125,0.0391080580839887,0.0664759209483861,-0.0295756385743618,-0.0174496062099933,0.019648203626275,0.0100790318101644,standing,2026-03-04_13-53-18
1772632401020626000,2.3826259765625,0.0716642103064805,0.041868280044943,-0.0960726023107767,-0.0041465763933956,0.0352338925004005,0.0162339750677347,standing,2026-03-04_13-53-18
1772632401030573800,2.39257373046875,0.07442414000649,0.0820876238390803,-0.101238022249937,0.010706671513617,0.0318564735352993,0.0195000749081373,standing,2026-03-04_13-53-18
1772632401040522800,2.402522705078125,0.0796657669870182,0.0805371795266866,-0.0183563254237175,0.0145209459587931,0.0066261505708098,0.0233235154300928,standing,2026-03-04_13-53-18
1772632401050471000,2.412470947265625,0.1097520219646394,0.0274929870814084,0.0886024125605821,0.0110812075436115,-0.0205865614116191,0.0257262177765369,standing,2026-03-04_13-53-18
1772632401060419800,2.422419921875,0.0953626274105161,0.0271644857794046,0.1579582728594541,0.0123112834990024,-0.0282737221568822,0.025648683309555,standing,2026-03-04_13-53-18
1772632401070369000,2.432369140625,0.0565989623174071,0.0365640361569821,0.1420125157088041,0.0103242993354797,-0.0226145051419734,0.0201631039381027,standing,2026-03-04_13-53-18
1772632401080317000,2.44231689453125,-0.0007151990646496,0.0554186664916574,0.0767442169845104,0.0047920271754264,-0.0202882662415504,0.0158583391457796,standing,2026-03-04_13-53-18
1772632401090266000,2.45226611328125,-0.0228938592555001,0.0534840451672673,0.0630523762404918,-0.0042885527946054,-0.0077519686892628,0.0154114607721567,standing,2026-03-04_13-53-18
1772632401100214000,2.462214111328125,-0.038524887901172,0.0429473074533045,0.0565180060356855,-0.0170071404427289,0.003993468824774,0.0132533125579357,standing,2026-03-04_13-53-18
1772632401110163000,2.472162841796875,-0.049109519877471,0.0632252485893666,0.0497258616775274,-0.0272986609488725,0.0089999455958604,0.0157947670668363,standing,2026-03-04_13-53-18
1772632401120111000,2.482111083984375,-0.0257600988741964,0.0500634230688214,0.0466547836691141,-0.0318235345184803,0.0021611719857901,0.0217974185943603,standing,2026-03-04_13-53-18
1772632401130060000,2.49206005859375,-0.011161335885711,0.0389516619458794,0.0214501997858285,-0.0254159681499004,-0.0014511395711451,0.026349825784564,standing,2026-03-04_13-53-18
1772632401140008000,2.502008056640625,-0.0417287254437804,0.0299188990540802,-0.0375233827084302,-0.0062088198028504,0.0020935698412358,0.0261419471353292,standing,2026-03-04_13-53-18
1772632401149956900,2.511956787109375,-0.069130271382071,0.0403564141772687,-0.1146785185813903,0.0136258713901042,0.0011204504407942,0.024724081158638,standing,2026-03-04_13-53-18
1772632401159905000,2.521905029296875,-0.091240469446592,0.0249419874243438,-0.1298708270162344,0.028300754725933,0.0010524531826376,0.0213706474751234,standing,2026-03-04_13-53-18
1772632401169854000,2.53185400390625,-0.0766089001670479,-0.0072324354715645,-0.0775713154584169,0.0289553590118885,-0.0011025767307728,0.017268581315875,standing,2026-03-04_13-53-18
1772632401179801900,2.5418017578125,-0.0746611271001398,-0.0312079159513115,0.0251753577888011,0.0127193797379732,-0.0081515228375792,0.008374928496778,standing,2026-03-04_13-53-18
1772632401189750800,2.551750732421875,-0.0738736299842596,-0.067546765050292,0.1314087041079998,-0.0058849309571087,-0.0102181360125541,0.002058709738776,standing,2026-03-04_13-53-18
1772632401199699000,2.561698974609375,-0.0682242259204387,-0.0916479177363216,0.172100779980421,-0.0217700134962797,-0.0047015943564474,-0.0002741247881203,standing,2026-03-04_13-53-18
1772632401209647900,2.57164794921875,-0.0764427498199045,-0.069757572967559,0.1434498550355434,-0.0303706917911767,-0.0071817962452769,-0.0036070710048079,standing,2026-03-04_13-53-18
1772632401219596000,2.581595947265625,-0.0953402694482356,-0.030733284176886,0.1045201126605272,-0.0269938055425882,-0.0062238574028015,-0.0057999175041913,standing,2026-03-04_13-53-18
1772632401229545000,2.591544921875,-0.0949782677354291,-0.0303739493452012,0.0167757782340049,-0.0160596631467342,0.0160532183945179,-0.001401973539032,standing,2026-03-04_13-53-18
1772632401239492900,2.601492919921875,-0.0704899788953363,0.0052932841025292,-0.0866162071794271,0.0026583643630146,0.0367592945694923,0.0011160452850162,standing,2026-03-04_13-53-18
1772632401249441800,2.61144189453125,-0.063398668927513,0.0278121360331773,-0.09455576800704,0.0116542559117078,0.0276472903788089,-0.0048377178609371,standing,2026-03-04_13-53-18
1772632401259390000,2.621389892578125,-0.0649293856261298,0.0040063130319118,0.023254618859291,0.0093848332762718,-0.0054780943319201,-0.013506144285202,standing,2026-03-04_13-53-18
1772632401269339000,2.6313388671875,-0.0500131907189264,-0.0626337124370038,0.1602034214377403,-0.0041035450994968,-0.0312750712037086,-0.0227039027959108,standing,2026-03-04_13-53-18
1772632401279286800,2.641286865234375,-0.0261081816595047,-0.0842661369219422,0.1989057847976684,-0.0214740075170993,-0.0469744317233562,-0.0303466245532035,standing,2026-03-04_13-53-18
1772632401289235700,2.651235595703125,-0.0481360352028161,-0.0545465598322451,0.1901543230652809,-0.0426360182464122,-0.0630761682987213,-0.0392556972801685,standing,2026-03-04_13-53-18
1772632401299183900,2.661183837890625,-0.0376700977027416,-0.0492616051666438,0.1106599305897951,-0.055640984326601,-0.0402549467980861,-0.0321031995117664,standing,2026-03-04_13-53-18
1772632401309132800,2.6711328125,0.0007198752397671,-0.0069894204959273,-0.1110334400773048,-0.0449145697057247,0.0187923945486545,-0.0141790611669421,standing,2026-03-04_13-53-18
1772632401319080700,2.681080810546875,0.0064857087574899,0.1216954116061329,-0.3189338477134704,-0.0207361336797475,0.0598126985132694,0.0018466985784471,standing,2026-03-04_13-53-18
1772632401329030000,2.69102978515625,0.0192514841651543,0.191790545964986,-0.3447890044599771,0.0040469770319759,0.0449858196079731,0.0148586379364132,standing,2026-03-04_13-53-18
1772632401338977800,2.700977783203125,0.0715570966701954,0.1370465638644993,-0.2297241169095039,0.0315550565719604,0.0144353378564119,0.0160991568118333,standing,2026-03-04_13-53-18
1772632401348927000,2.710927001953125,0.0796321204457431,0.0360375280648469,-0.1368739837765693,0.0553027316927909,-0.0017060817917808,0.0118695255368947,standing,2026-03-04_13-53-18
1772632401358874600,2.72087451171875,0.0425791682606562,0.0083319211460649,-0.0514601381242275,0.0631919354200363,-0.0141382003203034,0.0043481378816068,standing,2026-03-04_13-53-18
1772632401368823600,2.730823486328125,0.0143339380398392,-0.0129432143338024,0.0730102911531925,0.0477818213403224,-0.0316612683236599,-0.0028245537541806,standing,2026-03-04_13-53-18
1772632401378771500,2.740771484375,0.0436820880012586,-0.0369156260736286,0.1895762309163808,0.017376210540533,-0.02543655782938,-0.0053557613864541,standing,2026-03-04_13-53-18
1772632401388720600,2.750720703125,0.059260948068276,-0.0407025972664356,0.2216360875219106,-0.013670920394361,2.56579369306e-05,-0.0031256300862878,standing,2026-03-04_13-53-18
1772632401398668500,2.76066845703125,0.0397341175604611,0.0031892975606024,0.1914548842698335,-0.040621630847454,0.0100499261170625,-0.0052358107641339,standing,2026-03-04_13-53-18
1772632401408617500,2.770617431640625,0.0020237974451854,0.0340118674561381,0.1598550463914871,-0.0548674091696739,0.0132459867745637,-0.0037060910835862,standing,2026-03-04_13-53-18
1772632401418566400,2.78056640625,0.0224391742905601,0.0159355280175805,0.0851665928930044,-0.0482924953103065,0.027959156781435,0.00140669522807,standing,2026-03-04_13-53-18
1772632401428514600,2.7905146484375,0.0061262643279507,0.056494625160098,-0.0210328511565923,-0.0234606508165597,0.0373409427702426,0.0007648733444511,standing,2026-03-04_13-53-18
1772632401438463500,2.80046337890625,-0.0218849014086648,0.0796653651282191,-0.0674655165076255,-0.0014167921617627,0.0141052361577749,-0.0006757198134437,standing,2026-03-04_13-53-18
1772632401448411400,2.810411376953125,-0.0058527811488136,0.0403876860983669,-0.02989595656991,0.0179387964308261,-0.017392236739397,0.0005690415855497,standing,2026-03-04_13-53-18
1772632401458360300,2.8203603515625,0.0476173085583373,0.0181578802421689,-0.0355389308929443,0.0331058427691459,-0.0124371256679296,0.0090115591883659,standing,2026-03-04_13-53-18
1772632401468308500,2.83030859375,0.0402302305143326,0.0508512124456465,-0.0718044224947691,0.0392979569733142,-0.0003778000827878,0.0121066849678754,standing,2026-03-04_13-53-18
1772632401478257400,2.84025732421875,-0.0182343795444816,0.0815996941916644,-0.0593722264230251,0.0259532742202281,-0.0052204700186848,0.0084737986326217,standing,2026-03-04_13-53-18
1772632401488205300,2.850205322265625,0.0068292980307713,0.0295418824352324,0.0156722009062767,0.0028146649710834,-0.0023674254771322,0.0142435375601053,standing,2026-03-04_13-53-18
1772632401498154500,2.860154541015625,0.0271110020264983,-0.0189458157494664,0.0787725079417228,-0.0161431431770324,0.0123807406052947,0.0159742850810289,standing,2026-03-04_13-53-18
1772632401508102400,2.870102294921875,-0.0263382275557145,0.0187955936238169,0.0935217487841844,-0.0319700427353382,0.0161054395139217,0.0154520384967327,standing,2026-03-04_13-53-18
1772632401518051300,2.88005126953125,-0.0783052557561546,0.0023531389974057,0.1017635074287652,-0.037801768630743,0.0026397628244012,0.0079366480931639,standing,2026-03-04_13-53-18
1772632401527999500,2.88999951171875,-0.0804096076242625,-0.0564674448922276,0.0740635995984077,-0.0270734913647174,0.0063508776947855,0.0048596318811178,standing,2026-03-04_13-53-18
1772632401537948400,2.899948486328125,-0.0565970626212656,-0.0618766104593873,-0.0037497079223394,-0.0101050240918993,0.0118085863068699,0.0006007454358041,standing,2026-03-04_13-53-18
1772632401547896300,2.909896240234375,-0.0606349398352205,-0.0084900343172252,-0.0536444964259862,0.0111011955887079,0.0203482788056135,0.00439921207726,standing,2026-03-04_13-53-18
1772632401557845500,2.919845458984375,-0.0454140994256362,0.0377772113390266,-0.0828314279437065,0.0285139698535203,0.0190301164984703,0.0040949392132461,standing,2026-03-04_13-53-18
1772632401567793400,2.92979345703125,-0.0213070284554734,0.0259530641630291,-0.0436287138462066,0.0318698212504386,-0.0003699464723467,0.0010349673684686,standing,2026-03-04_13-53-18
1772632401577742600,2.93974267578125,-0.0089791695410385,-0.0041921909928321,0.0601952332437038,0.0223428010940551,-0.0179043523967266,-0.00061676511541,standing,2026-03-04_13-53-18
1772632401587690500,2.9496904296875,0.0180095578126609,-0.0197477797821164,0.1576011299848556,0.0047949673607945,-0.0246765036135911,-0.0024657978210598,standing,2026-03-04_13-53-18
1772632401597639700,2.9596396484375,0.0019378361947834,-0.0389051924556493,0.2078121448308229,-0.0167271737009286,-0.0270544737577438,-0.0037124527152627,standing,2026-03-04_13-53-18
1772632401607587600,2.969587646484375,-0.0107613402500748,-0.0121807055287063,0.1811450871795416,-0.034338392317295,-0.0191691182553768,-0.0091572850942611,standing,2026-03-04_13-53-18
1772632401617536500,2.97953662109375,-0.0360715764649212,0.0082528645604848,0.1007879403948783,-0.0438564047217369,0.0022431307006627,-0.0145577229559421,standing,2026-03-04_13-53-18
1772632401627484700,2.989484619140625,-0.0849864870857447,0.0063764031641185,-0.0324614231437444,-0.0379995815455913,0.0331741496920585,-0.0141300186514854,standing,2026-03-04_13-53-18
1772632401637433600,2.99943359375,-0.0820204768870025,0.0476839805863797,-0.1590069051295518,-0.0224611144512891,0.0501460880041122,-0.0134945977479219,standing,2026-03-04_13-53-18
1772632401647381500,3.009381591796875,-0.0810671582175418,0.0681415160730481,-0.1746194848030805,-0.0102803483605384,0.0345498174428939,-0.0098473988473415,standing,2026-03-04_13-53-18
1772632401657330400,3.019330322265625,-0.0322458076316863,0.0489458172157406,-0.0900900207698345,-0.0011065206490457,0.0105282692238688,-0.0056170946918427,standing,2026-03-04_13-53-18
1772632401667278600,3.029278564453125,0.0108178196776658,-0.0006711772598326,-0.0358475584506988,0.0078491568565368,-0.0055084880441427,-0.0012303357943892,standing,2026-03-04_13-53-18
1772632401677227500,3.0392275390625,0.0115814609939232,-0.0031526188120245,-0.0092868837833404,0.0183017719537019,-0.009587163105607,-0.0038888333365321,standing,2026-03-04_13-53-18
1772632401687175400,3.049175537109375,-0.0012810162538662,0.004239975657314,-0.0139279875874519,0.0190682299435138,-0.0093165859580039,-0.0018709561554715,standing,2026-03-04_13-53-18
1772632401697124600,3.05912451171875,0.0144718852058053,0.0010584230117499,0.0086842417150735,0.0146849965676665,0.0033778925426304,0.0014858595095574,standing,2026-03-04_13-53-18
1772632401707073500,3.069073486328125,0.0328106019075959,0.0146108552850782,0.0172901574969291,0.0056094764731824,0.0166540164500474,0.0044251903891563,standing,2026-03-04_13-53-18
1772632401717021400,3.079021484375,-0.0018700681881979,0.0415684203155338,0.0466506920158863,-0.0019029551185667,0.0206925421953201,-0.000202938914299,standing,2026-03-04_13-53-18
1772632401726970400,3.088970458984375,-0.05996449322775,0.0124994160890579,0.0864414351344108,-0.0084942784160375,0.0222435668110847,-0.0081641925498843,standing,2026-03-04_13-53-18
1772632401736918500,3.09891845703125,-0.0590433963274583,-0.0083241762310266,0.1106657758086919,-0.0147485630586743,0.0128619251772761,-0.0067551736719906,standing,2026-03-04_13-53-18
1772632401746867500,3.108867431640625,-0.0234663984464481,0.00639218525514,0.1669312683880329,-0.0199526436626911,-0.0026390033308416,-0.0045205154456198,standing,2026-03-04_13-53-18
1772632401756815400,3.1188154296875,0.0082088792882859,-0.0070918579570949,0.1431383048683404,-0.0139957759529352,0.0076592117547988,0.0002383664250373,standing,2026-03-04_13-53-18
1772632401766764300,3.128764404296875,0.0209726088693365,0.0044089024834334,0.0709977822870016,-0.0095693357288837,0.0173067804425954,0.0032168459147214,standing,2026-03-04_13-53-18
1772632401776712400,3.13871240234375,-0.0025113617664203,0.021482933011651,0.075157824575901,-0.0099653238430619,-0.0023473764304071,-0.0021115876734256,standing,2026-03-04_13-53-18
1772632401786661400,3.148661376953125,-0.0018331337112933,-0.0227053144134581,0.1392676009148359,-0.0216049365699291,-0.032532975077629,-0.0103125255554914,standing,2026-03-04_13-53-18
1772632401796609300,3.158609375,-0.0195326757267117,-0.0725130091555416,0.1793061813145876,-0.0315810367465019,-0.0500254109501838,-0.0159040503203868,standing,2026-03-04_13-53-18
1772632401806558500,3.168558349609375,-0.0294923807376995,-0.055349546778202,0.1270370648950338,-0.0385534577071666,-0.0455880537629127,-0.0219020210206508,standing,2026-03-04_13-53-18
1772632401816506400,3.17850634765625,-0.0722329501051455,-0.0034495559319853,0.0076133976131677,-0.0414834022521972,-0.0287225302308797,-0.020730061456561,standing,2026-03-04_13-53-18
1772632401826455600,3.18845556640625,-0.0825447199568152,0.0361178998246789,-0.1474386324107647,-0.0309948101639747,0.0074168313294649,-0.0086512947455048,standing,2026-03-04_13-53-18
1772632401836403500,3.198403564453125,-0.040505211530812,0.0823624952577054,-0.2693967866063118,-0.0147284874692559,0.0385113693773746,0.0061550820246338,standing,2026-03-04_13-53-18
1772632401846352600,3.2083525390625,-0.0239257595865055,0.1314136725440621,-0.308404854914546,0.0026931124739348,0.0435322262346744,0.0128681119531393,standing,2026-03-04_13-53-18
1772632401856300500,3.218300537109375,-0.0295676379309967,0.0857765414848923,-0.2326058098256588,0.0177677851170301,0.0360486023128032,0.0115586947649717,standing,2026-03-04_13-53-18
1772632401866249500,3.22824951171875,-0.0544803261956199,0.0097791973449289,-0.1078840361356735,0.0236200802028179,0.0224329233169555,0.0066544832661747,standing,2026-03-04_13-53-18
1772632401876197600,3.23819775390625,-0.0718633496077731,-0.0438188295908272,0.0308177475899457,0.0185809805989265,-0.0026388943661004,-0.0053802714683115,standing,2026-03-04_13-53-18
1772632401886146600,3.248146484375,-0.0816118230208754,-0.0665912178911268,0.1613017380684614,0.0062574702315032,-0.0253404788672924,-0.0172933898866176,standing,2026-03-04_13-53-18
1772632401896094500,3.258094482421875,-0.0451170527078211,-0.1036493211753666,0.2134533655881881,-0.0035927593708038,-0.0138840489089488,-0.0215644408017396,standing,2026-03-04_13-53-18
1772632401906043600,3.268043701171875,-0.0460799063906073,-0.0735747931681573,0.1640788015663623,-0.0134302107617259,0.0101445885375142,-0.020657368004322,standing,2026-03-04_13-53-18
1772632401915991600,3.277991455078125,-0.065953577574715,-0.0155959207996726,0.1295838267683982,-0.0301450286060571,0.003191368188709,-0.0221005547791719,standing,2026-03-04_13-53-18
1772632401925940500,3.2879404296875,-0.0484700529301539,-0.0187828802727162,0.191252639696002,-0.0443703047931194,-0.0279527008533477,-0.0313433222472667,standing,2026-03-04_13-53-18
1772632401935888600,3.297888671875,-0.0434425436243414,-0.0509461972527205,0.1634662226259708,-0.0401596315205097,-0.0286223571747541,-0.0302830077707767,standing,2026-03-04_13-53-18
1772632401945837600,3.307837646484375,-0.0209969030603766,-0.0208852593794465,-0.0198094468414783,-0.0216384120285511,0.0027675235178321,-0.0254405811429023,standing,2026-03-04_13-53-18
1772632401955785500,3.317785400390625,-0.0369464596033096,0.0568565903402864,-0.2168196271508932,0.0009961840696632,0.0365787297487258,-0.0183567721396684,standing,2026-03-04_13-53-18
1772632401965734400,3.327734375,-0.0488361828288063,0.1007533074729144,-0.2920025861680507,0.0152411665767431,0.0466505363583564,-0.0123995468020439,standing,2026-03-04_13-53-18
1772632401975682600,3.3376826171875,-0.008320851762779,0.0820183579951524,-0.2156067442297935,0.0200034007430076,0.0292906276881694,-0.0058857491239905,standing,2026-03-04_13-53-18
1772632401985631500,3.347631591796875,0.0574538986463099,0.0179582660168409,-0.0671563044279813,0.0190960615873336,0.0037288109306246,-0.004377600736916,standing,2026-03-04_13-53-18
1772632401995579400,3.357579345703125,0.0521866623004898,-0.0075181205451488,0.059926353174448,0.0125689897686243,-0.0198954492807388,-0.0124657107517123,standing,2026-03-04_13-53-18
1772632402005528600,3.367528564453125,-0.0142417662443593,-0.0394902988672256,0.118543377315998,0.0037882819306105,-0.0252233687788248,-0.0192639622837305,standing,2026-03-04_13-53-18
1772632402015477500,3.3774775390625,-0.0428141460603103,-0.0752037095442414,0.0834767401099205,-0.0066920649260282,-0.0024092537350952,-0.0250036157667636,standing,2026-03-04_13-53-18
1772632402025425400,3.38742529296875,-0.0769685637922957,-0.0583383533306419,0.0224333656042814,-0.0178283378481864,0.0195810012519359,-0.028566924855113,standing,2026-03-04_13-53-18
1772632402035374300,3.397374267578125,-0.1042558722337707,-0.0255360077947378,0.0400742362350225,-0.0249157138168811,0.021054146811366,-0.0274129379540681,standing,2026-03-04_13-53-18
1772632402045322500,3.407322509765625,-0.0442474302664399,-0.0181746852464973,0.0567401243537664,-0.0230850577354431,0.014375471509993,-0.0171829368919134,standing,2026-03-04_13-53-18
1772632402055271400,3.417271484375,0.0216399867368862,0.0094460198678076,0.0636129327327013,-0.0122721474617719,-0.0009515420533716,-0.012722042389214,standing,2026-03-04_13-53-18
1772632402065219300,3.42721923828125,0.0008863178478553,0.0243866916291415,0.0236211140841245,0.0047654258087277,-0.0136524233967065,-0.0126053960993886,standing,2026-03-04_13-53-18
1772632402075168300,3.437168212890625,0.0038321255087852,0.0181930976860225,-0.019360534030199,0.0220998488366603,-0.0094702281057834,-0.0178244244307279,standing,2026-03-04_13-53-18
1772632402085116400,3.447116455078125,-0.0314527940904721,0.0025339023917913,-0.0811848297804594,0.0316880270838737,0.003284981008619,-0.0192332379519939,standing,2026-03-04_13-53-18
1772632402095065600,3.457065673828125,-0.0606633256794884,0.0370052040532231,-0.0768166976988315,0.0266922563314437,0.0031168055720627,-0.0259250700473785,standing,2026-03-04_13-53-18
1772632402105013200,3.46701318359375,-0.0455503295585513,0.0218019358329474,0.0315004691570997,0.0091340355575084,-0.0064399479888379,-0.0229881349951028,standing,2026-03-04_13-53-18
1772632402114962700,3.476962646484375,0.0130729781933128,0.003267477363348,0.1216267302840948,-0.0081167854368686,-0.0061468919739127,-0.0158184636384248,standing,2026-03-04_13-53-18
1772632402124910600,3.48691064453125,0.0382907138191163,0.043381753347814,0.1437573135495185,-0.0202400274574756,-0.0032549651805311,-0.0114554073661565,standing,2026-03-04_13-53-18
1772632402134859500,3.496859619140625,0.0253512623449787,0.0674083794929087,0.1070890863656997,-0.0254087541252374,-0.007421470247209,-0.0107993707060813,standing,2026-03-04_13-53-18
1772632402144807700,3.5068076171875,-0.0085259093482047,0.0357451209895312,0.0584819995850324,-0.0233101807534694,-0.0026102031115442,-0.0113618308678269,standing,2026-03-04_13-53-18
1772632402154756600,3.516756591796875,-0.0178997042300179,0.0377129139311611,-0.0287596460163593,-0.0111759454011917,0.0104026431217789,-0.008825259283185,standing,2026-03-04_13-53-18
1772632402164704500,3.52670458984375,-0.0415567298777401,0.0658816083170473,-0.071813774845004,-0.0011795042082667,0.0078729065135121,-0.005800973623991,standing,2026-03-04_13-53-18
1772632402174653400,3.5366533203125,-0.0270721678534522,0.0661699237391352,-0.0309469269275665,0.0009736805222928,-0.0138829452916979,-0.0061174938455224,standing,2026-03-04_13-53-18
1772632402184601600,3.5466015625,0.0020974106706678,0.0328739494673907,0.0177618666619062,0.0018224301747977,-0.022839156910777,-0.0032833574805408,standing,2026-03-04_13-53-18
1772632402194550500,3.556550537109375,-0.0101868282977491,0.0237163911521434,0.0089309099525213,0.0064957537688314,-0.0083399889990687,-0.0075153778307139,standing,2026-03-04_13-53-18
1772632402204498400,3.56649853515625,-0.0629302111655473,0.0197840201392769,-0.0287730900198221,0.0110817169770598,-0.002274106722325,-0.0095497667789459,standing,2026-03-04_13-53-18
1772632402214447600,3.576447509765625,-0.0604776303816586,0.0141169342882931,-0.0212859491348266,0.0075182262808084,0.0010414430871605,-0.00903788395226,standing,2026-03-04_13-53-18
1772632402224395500,3.5863955078125,-0.0274406723722815,-0.0143694477446377,0.016924831315875,0.0024829879403114,0.0056212809868156,-0.0095755755901336,standing,2026-03-04_13-53-18
1772632402234344400,3.596344482421875,-0.0346631709717214,0.0022153379619121,0.0632049364537,-0.007076933979988,-0.0044585727155208,-0.013659231364727,standing,2026-03-04_13-53-18
1772632402244292600,3.606292724609375,-0.0584714781910181,-0.0092133801557123,0.1260416241168975,-0.0162459313869476,-0.0245372094213962,-0.0192721094936132,standing,2026-03-04_13-53-18
1772632402254241500,3.616241455078125,-0.0600321516364812,-0.057465369888395,0.1065466500520706,-0.0150830298662185,-0.0169615875929594,-0.022312955930829,standing,2026-03-04_13-53-18
1772632402264189400,3.626189453125,-0.0347363823384046,-0.0200752581708133,-0.0007055179208517,-0.0029509998857975,0.0130865927785635,-0.0173008870333433,standing,2026-03-04_13-53-18
1772632402274138400,3.636138427734375,-0.0489233131229877,0.0577417026117444,-0.1228489655554294,0.0093374196439981,0.0330536291003227,-0.014190680347383,standing,2026-03-04_13-53-18
1772632402284086500,3.64608642578125,-0.0222366739884018,0.0572923514090478,-0.1141097787827253,0.0161615051329135,0.029104696586728,-0.0079793902114033,standing,2026-03-04_13-53-18
1772632402294035500,3.656035400390625,0.0360601052228361,0.039837358739227,-0.0101888010591268,0.0162530019879341,0.0084048863500356,-0.0044214655645191,standing,2026-03-04_13-53-18
1772632402303984400,3.665984375,0.0591651595436036,0.013916589410603,0.1244476329237222,0.0069061061367392,-0.0221713986247777,-0.0079826451838016,standing,2026-03-04_13-53-18
1772632402313932500,3.6759326171875,0.0314537074059248,-0.0146473879031836,0.219242470383644,-0.011529816314578,-0.0520966984331607,-0.0208234302699565,standing,2026-03-04_13-53-18
1772632402323881500,3.685881591796875,-0.0150713124036788,-0.0450870959609746,0.2522404846221208,-0.0347957238554954,-0.0606702119112014,-0.032362375408411,standing,2026-03-04_13-53-18
1772632402333829400,3.695829345703125,-0.0434116735620424,-0.0314252119638025,0.1573041928648948,-0.0471687577664852,-0.0433076918125152,-0.0335854366421699,standing,2026-03-04_13-53-18
1772632402343778300,3.7057783203125,-0.048202561100386,0.0493162579633295,-0.0139788409918546,-0.0464592911303043,-0.0066325003281235,-0.0207841545343399,standing,2026-03-04_13-53-18
1772632402353726500,3.7157265625,-0.0245758209930732,0.1415457749798893,-0.1820920126408338,-0.0324052199721336,0.0206646788865327,-0.0020044753327965,standing,2026-03-04_13-53-18
1772632402363675000,3.7256748046875,0.0261684239467605,0.1911719756752252,-0.268786545753479,-0.0087454319000244,0.0275516137480735,0.0126493023708462,standing,2026-03-04_13-53-18
1772632402373622800,3.735622802734375,0.0318438027020543,0.1765403698630631,-0.2635907306760549,0.0166741833090782,0.0203714370727539,0.0206507872790098,standing,2026-03-04_13-53-18
1772632402383572200,3.745572265625,0.0077512351812794,0.1334603759407997,-0.2236433356910943,0.0425478592514991,0.0107089560478925,0.0174326226115226,standing,2026-03-04_13-53-18
1772632402393519900,3.755519775390625,-0.0304321823384612,0.0656890083543956,-0.1392301915138959,0.0534789338707923,-0.0012024668976664,0.0099406950175762,standing,2026-03-04_13-53-18
1772632402403469000,3.765468994140625,-0.0472461006257683,0.0303382935099303,-0.0305880304872989,0.047766987234354,-0.0074976468458771,0.0022007506340742,standing,2026-03-04_13-53-18
1772632402413417200,3.775417236328125,-0.0494458391597494,-0.0285271524347364,0.0978892963439226,0.0289476364850997,-0.0061860186979174,0.0016171836759895,standing,2026-03-04_13-53-18
1772632402423366100,3.7853662109375,-0.0135886726304888,-0.0371269307367503,0.1881710402935743,-0.0005591232329607,0.0025595361366868,-0.0011264047352597,standing,2026-03-04_13-53-18
1772632402433314000,3.79531396484375,-0.001434124456346,-0.0210831200391054,0.2744721901744604,-0.0285645052790641,0.0116160232573747,0.0006352176424115,standing,2026-03-04_13-53-18
1772632402443263000,3.805262939453125,-0.0041853593932464,-0.0384280764631927,0.2897971850782632,-0.0469549633562564,0.0075144888833165,-0.0010457696625962,standing,2026-03-04_13-53-18
1772632402453211100,3.815211181640625,-0.0212511335497722,-0.047897915598005,0.2555231595546007,-0.0521688014268875,-0.0021470403298735,-0.0114981038495898,standing,2026-03-04_13-53-18
1772632402463160000,3.82516015625,-0.0419722153434529,-0.0402947471179068,0.1634913570672273,-0.0437316410243511,-0.0109352059662342,-0.0168111100792884,standing,2026-03-04_13-53-18
1772632402473108000,3.83510791015625,-0.0175142120437696,-0.0048214288070797,0.0524088171511888,-0.0293186902999877,-0.0144454315304756,-0.0167205836623907,standing,2026-03-04_13-53-18
1772632402483057000,3.845056884765625,0.000335844358243,0.0190751412175595,-0.0435246689498424,-0.0152492113411426,-0.0093936827033758,-0.012971919029951,standing,2026-03-04_13-53-18
1772632402493005000,3.855005126953125,0.0283374020162969,0.0451353190168738,-0.1060492219239473,-0.0021732654422521,0.0008923974819481,-0.0021522543393075,standing,2026-03-04_13-53-18
1772632402502954000,3.8649541015625,0.0733983771553263,0.0876205619163811,-0.1284253043830394,0.0058449800126254,0.0102464845404028,0.0086324829608201,standing,2026-03-04_13-53-18
1772632402512902100,3.874902099609375,0.0777836430348455,0.122725777567178,-0.1125245554178953,0.0166281685233116,0.0029544285498559,0.0137801468372344,standing,2026-03-04_13-53-18
1772632402522851000,3.88485107421875,0.0705008656155318,0.0965418272577226,-0.0647913288623094,0.0189485810697078,-0.0073437490500509,0.0145213045179843,standing,2026-03-04_13-53-18
1772632402532799000,3.894799072265625,0.0515492777124047,0.0747561119072139,-0.0441238038867712,0.0174473077058792,-0.0081703402101993,0.0136219151318073,standing,2026-03-04_13-53-18
1772632402542748000,3.904747802734375,0.0251616945896297,0.0804962629944086,-0.0193535197675228,0.0086317118257284,-0.0014890013262629,0.0118290744721889,standing,2026-03-04_13-53-18
1772632402552696000,3.914696044921875,-0.0019752821283414,0.0769163586810231,-0.0042716859698295,-0.0085004111751914,0.0079240882769227,0.0110482275485992,standing,2026-03-04_13-53-18
1772632402562645000,3.92464501953125,0.0014375219898298,0.0665076312609016,0.0043260465055704,-0.025216806679964,0.0281467996537685,0.013315375894308,standing,2026-03-04_13-53-18
1772632402572593000,3.934593017578125,-0.0193054063094779,0.0596108574844896,0.0356844768434762,-0.0366816893219947,0.0423860177397728,0.0131596084684133,standing,2026-03-04_13-53-18
1772632402582541800,3.944541748046875,-0.0343492827169597,0.0579217353537678,0.0431014751017093,-0.0444535911083221,0.0331541709601879,0.0135212652385234,standing,2026-03-04_13-53-18
1772632402592490000,3.954489990234375,-0.0271797198811545,0.0387840502940118,0.0522229391902685,-0.0339075960218906,0.0154697364196181,0.0150088397786021,standing,2026-03-04_13-53-18
1772632402602439000,3.96443896484375,0.0074055270161479,0.0159375738441944,0.0342903921365737,-0.0090049095451831,0.0066038072109222,0.0195183716714382,standing,2026-03-04_13-53-18
1772632402612387800,3.974387939453125,-0.0097232659066095,0.0531928071357309,-0.0533574961781501,0.0221128165721893,-0.0013002592604607,0.016961894929409,standing,2026-03-04_13-53-18
1772632402622336000,3.9843359375,-0.031783048958145,0.0537923804640769,-0.1023714101940393,0.0414614826440811,-0.0086274147033691,0.0130206821486353,standing,2026-03-04_13-53-18
1772632402632285000,3.994284912109375,-0.0705087566610425,0.022815496789664,-0.0721241559684276,0.0449818931519985,-0.0092747583985328,0.006505899131298,standing,2026-03-04_13-53-18
1772632402642232800,4.00423291015625,-0.0636372269237414,0.0123917179308831,-0.0062871174454689,0.0257733110338449,0.0005184842739254,0.0029151588678359,standing,2026-03-04_13-53-18
1772632402652182000,4.01418212890625,-0.0818013907762244,0.0068453358501195,0.0856768805027008,-0.0052485801279544,0.0109168076887726,0.001726955641061,standing,2026-03-04_13-53-18
1772632402662130000,4.0241298828125,-0.0787907742507755,0.0002478372812271,0.1458113234698772,-0.0348187237977981,0.0194242745637893,-0.0004541731905192,standing,2026-03-04_13-53-18
1772632402672079000,4.0340791015625,-0.0573174127850681,0.003413753966242,0.1626379551082849,-0.0507335476577281,0.0161048956215381,0.0002514158841222,standing,2026-03-04_13-53-18
1772632402682027000,4.044027099609375,-0.0467735146779567,0.0063709963366389,0.1031383029133081,-0.0452658124268054,0.0121897822245955,0.0026426683180034,standing,2026-03-04_13-53-18
1772632402691976200,4.05397607421875,-0.0301102203750982,0.0133487263947725,-0.0124105687618255,-0.0254822205752134,0.0145662846043705,0.0080013545230031,standing,2026-03-04_13-53-18
1772632402701924000,4.063924072265625,-0.0323996464865282,0.0437881421916186,-0.1279664546996355,0.0046431915834546,0.0123055269941687,0.008014403283596,standing,2026-03-04_13-53-18
1772632402711873000,4.073873046875,-0.0607379618182778,0.0427761886700987,-0.1761170298844575,0.0241505056619644,-0.0029990412294864,-0.0012121397303417,standing,2026-03-04_13-53-18
1772632402721821200,4.0838212890625,-0.1167860487872734,-0.0023502163879573,-0.1247965924918651,0.0315671414136886,-0.0137361073866486,-0.0089329099282622,standing,2026-03-04_13-53-18
1772632402731770000,4.09377001953125,-0.0967147726718336,-0.0348651232846081,-0.0867161604225635,0.0330893322825431,0.0009764172136783,-0.0093954112380743,standing,2026-03-04_13-53-18
1772632402741718000,4.103718017578125,-0.0663602952120825,-0.0056644555024802,-0.0545166030853986,0.0255904048681259,0.0191948339343071,-0.0032688092906028,standing,2026-03-04_13-53-18
1772632402751667000,4.1136669921875,-0.0697784330924972,0.0412628614977002,-0.0095616090714931,0.0067050061188638,0.0158514063805341,-0.0070138229057192,standing,2026-03-04_13-53-18
1772632402761615000,4.123614990234375,-0.060276737514697,0.0310967106617987,0.0911123495548963,-0.0086795426905155,0.0095666125416755,-0.0093166586011648,standing,2026-03-04_13-53-18
1772632402771564000,4.13356396484375,-0.0448978935318067,-0.0153403386034071,0.0987754315286874,-0.0164919961243867,0.0174247417598962,-0.0083763096481561,standing,2026-03-04_13-53-18
1772632402781512000,4.143511962890625,-0.0480243915218859,0.0026380934186279,0.0650128626585006,-0.0169231612235307,0.0226298905909061,-0.0065800072625279,standing,2026-03-04_13-53-18
1772632402791460900,4.1534609375,-0.0787205585587769,0.0639446489050984,0.0222235222458839,-0.0102303009480237,0.0114518646150827,-0.0161042567342519,standing,2026-03-04_13-53-18
1772632402801409000,4.163408935546875,-0.1045124042781069,0.0440931164875626,0.0151017075419425,-0.0015558530576527,0.0104422606527805,-0.0217158049345016,standing,2026-03-04_13-53-18
1772632402811358000,4.17335791015625,-0.0845696499131619,0.0214550220914185,-0.0242488905936479,0.0089450627565383,0.0261801723390817,-0.0172969028353691,standing,2026-03-04_13-53-18
1772632402821306000,4.18330615234375,-0.0474256949763745,0.0761316380441188,-0.0528127217769622,0.0207684319466352,0.0379132591187953,-0.0039981408044695,standing,2026-03-04_13-53-18
1772632402831255000,4.193255126953125,-0.0110794662885367,0.0955384954340755,0.0366261416077613,0.0180777497589588,0.0152746420353651,0.0020346781238913,standing,2026-03-04_13-53-18
1772632402841203000,4.203202880859375,0.041344584964402,0.0701490565031766,0.202591779834032,0.0033715080935508,-0.0391044467687606,-0.0017893549520522,standing,2026-03-04_13-53-18
1772632402851152000,4.21315185546875,0.049514337818697,-0.0070290218539535,0.29269407556355,-0.0092624966055154,-0.0649161711335182,-0.0129156373441219,standing,2026-03-04_13-53-18
1772632402861100000,4.22310009765625,-0.0110083007484674,-0.042842824165523,0.201045719435811,-0.0170290730893611,-0.04971244931221,-0.0227059479802846,standing,2026-03-04_13-53-18
1772632402871049000,4.233049072265625,-0.1007919589828699,0.0074019468195736,0.0442144047796726,-0.027733813971281,-0.0321771278977394,-0.035227283835411,standing,2026-03-04_13-53-18
1772632402880996900,4.242996826171875,-0.1615584527758881,0.0343995515994727,-0.0468137736231088,-0.0385406538844108,-0.017692195251584,-0.0395631790161132,standing,2026-03-04_13-53-18
1772632402890945800,4.25294580078125,-0.1005714480999857,0.0320423209488391,-0.123012047162652,-0.0384032763540744,0.0092555927112698,-0.0240009948611259,standing,2026-03-04_13-53-18
1772632402900895000,4.26289501953125,-0.0141225237788632,0.0841476251088082,-0.241249719530344,-0.0221926141530275,0.0382587499916553,-0.0011835640762001,standing,2026-03-04_13-53-18
1772632402910843000,4.2728427734375,0.0369842343304306,0.1649804265812039,-0.2909469396352768,0.0054093901999294,0.0320985279977321,0.0160475727170705,standing,2026-03-04_13-53-18
1772632402920792000,4.2827919921875,0.0417786290001124,0.1458655378751456,-0.2669043852686882,0.0383857190608978,0.018680453300476,0.0169615689665079,standing,2026-03-04_13-53-18
1772632402930740000,4.292739990234375,0.0140478511074557,0.0464569230094552,-0.2397767243683338,0.067024827003479,0.0156890451908111,0.0109340455383062,standing,2026-03-04_13-53-18
1772632402940689200,4.302689208984375,-0.0576489828269928,-0.001388385618478,-0.2058265239715576,0.0792692378163337,0.0088971853256225,-0.0024424800649285,standing,2026-03-04_13-53-18
1772632402950637000,4.312636962890625,-0.1202947875605896,-0.0302437470942735,-0.054819969946146,0.0683568343520164,-0.0053501990623772,-0.0198353677988052,standing,2026-03-04_13-53-18
1772632402960586000,4.3225859375,-0.0781317988853901,-0.0861678788900375,0.1208785422652959,0.0363453738391399,-0.0107092782855033,-0.0251600928604602,standing,2026-03-04_13-53-18
1772632402970534100,4.3325341796875,0.0072175666959956,-0.0759646109141409,0.2395306406527757,0.0024993028491735,0.0073815919458866,-0.0160154476761817,standing,2026-03-04_13-53-18
1772632402980483000,4.342483154296875,0.0554942524785175,-0.0263512697003781,0.2519686819434166,-0.0293957814574241,0.0221336409449577,-0.010765291750431,standing,2026-03-04_13-53-18
1772632402990431000,4.352430908203125,0.0447312682606279,0.0265393396183848,0.2464490417391061,-0.0475921779870986,0.022858252748847,-0.0145049327984452,standing,2026-03-04_13-53-18
1772632403000380200,4.362380126953125,0.0010241919485852,0.007887976770848,0.2083680251479149,-0.0521118268370628,0.006624155677855,-0.0150279775261878,standing,2026-03-04_13-53-18
1772632403010328000,4.372328125,0.0248989885328337,-0.0246656547009944,0.1223380934238433,-0.0336041487753391,-0.0048487256281077,-0.0110967382788658,standing,2026-03-04_13-53-18
1772632403020277000,4.382277099609375,0.0456259886106476,0.0530497454032301,-0.0036140988439321,-0.0005852128379046,-0.0073779299855232,-0.0032241670414805,standing,2026-03-04_13-53-18
1772632403030225200,4.39222509765625,0.0811855239002034,0.1461105986773967,-0.1154588553041219,0.026992505416274,-0.010723783634603,0.0120207732543349,standing,2026-03-04_13-53-18
1772632403040174000,4.402174072265625,0.1213910948973149,0.1701806255728006,-0.1299006376326084,0.0402119047939777,-0.0198256690055131,0.0201261043548584,standing,2026-03-04_13-53-18
1772632403050122000,4.4121220703125,0.1134095215588808,0.1507797595322132,-0.0704863256335258,0.0368282310664653,-0.0197320953011512,0.0224167667329311,standing,2026-03-04_13-53-18
1772632403060071000,4.42207080078125,0.0608837634971365,0.1043494322687387,-0.0089016838580369,0.0293191820383071,-0.0114736333489418,0.021265747025609,standing,2026-03-04_13-53-18
1772632403070019000,4.43201904296875,0.0268387609563767,0.0974539736665785,0.0032137013494968,0.0117689156904816,-0.0094388034194707,0.0242676343768835,standing,2026-03-04_13-53-18
1772632403079968000,4.441968017578125,0.0759019940067082,0.0958808791309595,0.0447872362315654,-0.004883830435574,-0.0070621985942125,0.0366974100470542,standing,2026-03-04_13-53-18
1772632403089916000,4.451916015625,0.1211836261590942,0.1110316865116357,0.0349497328281402,-0.0129073802381753,-0.0010038008913397,0.0473849587142467,standing,2026-03-04_13-53-18
1772632403099864800,4.46186474609375,0.0893922477640211,0.1328445821300148,0.002103694280982,-0.0128575786948204,0.0067981956526637,0.0491208061575889,standing,2026-03-04_13-53-18
1772632403109813000,4.47181298828125,0.0283752863412722,0.0924568960316479,-0.0489373416483402,-0.0048736259341239,0.008080231025815,0.050172921270132,standing,2026-03-04_13-53-18
1772632403119762000,4.481761962890625,-0.0034410072993487,0.0378323025271296,-0.0667751961559057,0.0056019173935055,0.0094762593507766,0.0461241193115711,standing,2026-03-04_13-53-18
1772632403129710000,4.4917099609375,-0.0452593837879598,0.0059271980918943,-0.0568494299471378,0.0203170496970415,0.0105106374248862,0.0435169339179992,standing,2026-03-04_13-53-18
1772632403139659000,4.501658935546875,-0.0694700977956876,-0.0130988432869315,-0.0458621719866991,0.0333604142069816,0.0095705408602952,0.0392175279557704,standing,2026-03-04_13-53-18
1772632403149607000,4.51160693359375,-0.0760663907881826,0.0017938976794481,-0.0230231481909751,0.0395757369697093,-0.0043556443415582,0.0397620238363742,standing,2026-03-04_13-53-18
1772632403159555800,4.521555908203125,-0.0252118904069066,-0.0162757197573781,0.0720247872471809,0.0316078253090381,-0.021076301112771,0.0378219112753868,standing,2026-03-04_13-53-18
1772632403169504000,4.53150390625,-0.0175648462524637,-0.0191259946219623,0.1423363408356905,0.0190878864377737,-0.0242485329508781,0.0350283160805702,standing,2026-03-04_13-53-18
1772632403179453000,4.541452880859375,-0.0448848513871431,-0.0239789876110851,0.1639677424073219,0.003147802548483,-0.0220801867544651,0.0257799550890922,standing,2026-03-04_13-53-18
1772632403189402000,4.551402099609375,-0.0946067675419151,-0.016072598400712,0.1403390295386314,-0.0106532145291566,-0.0146850496530532,0.0167250540107488,standing,2026-03-04_13-53-18
1772632403199349800,4.561349853515625,-0.1459882144067436,-0.0196845052875578,0.0999801311433315,-0.020017422735691,-0.0088769625872373,0.0093084163963794,standing,2026-03-04_13-53-18
1772632403209299200,4.57129931640625,-0.1299609895177185,-0.0139950614742934,0.0369154799431562,-0.0157192349433898,-0.0110115082934498,0.0084663918241858,standing,2026-03-04_13-53-18
1772632403219247000,4.5812470703125,-0.1078423524184152,0.0368758785851299,-0.0327484233915805,-0.0022372463718056,-0.0061568319797515,0.0117806950584054,standing,2026-03-04_13-53-18
1772632403229196000,4.591196044921875,-0.0644694034315645,0.0714659843206405,-0.1177928512096404,0.0099177863448858,-0.0022037015296518,0.0180369317531585,standing,2026-03-04_13-53-18
1772632403239144200,4.601144287109375,-0.0471168482229113,0.0729193979993462,-0.1369178229182958,0.0214535351842641,-8.56895931065e-05,0.0169176049530506,standing,2026-03-04_13-53-18
1772632403249093000,4.611093017578125,-0.0453326682198792,0.0572236700870096,-0.1180488717973232,0.0253768023103475,0.0037143696099519,0.0169947873800992,standing,2026-03-04_13-53-18
1772632403259041000,4.621041015625,-0.0590863952189683,0.0329230493061244,-0.0834960293322801,0.0234484076499938,0.0051487484015524,0.0149148590862751,standing,2026-03-04_13-53-18
1772632403268990000,4.630989990234375,-0.070045559596084,0.0386478566937148,-0.0213408941924572,0.0199966914951801,0.002405083971098,0.0119844367727637,standing,2026-03-04_13-53-18
1772632403278938000,4.640938232421875,-0.0648186187280342,0.0059125850446522,0.0274035552322864,0.0174808036535978,0.0046639768406748,0.0081542786210775,standing,2026-03-04_13-53-18
1772632403288887000,4.650886962890625,-0.0510755227208137,-0.005000000244379,0.0502764812976121,0.0165463536977767,0.0045786257833242,0.0052968640811741,standing,2026-03-04_13-53-18
1772632403298835000,4.6608349609375,-0.0342314284909516,-0.0043868367820978,0.0555313330858945,0.0154304876923561,0.0003918700385838,0.0071648056618869,standing,2026-03-04_13-53-18
1772632403308784000,4.6707841796875,7.8691259399e-05,0.0133354285217821,0.0748988813787698,0.0125210955739021,-0.0077223903499543,0.0063829603604972,standing,2026-03-04_13-53-18
1772632403318732000,4.68073193359375,0.0013344269415363,0.0068992579944431,0.0901461348712444,0.013718718662858,-0.0126207424327731,0.0037618768401443,standing,2026-03-04_13-53-18
1772632403328681000,4.690680908203125,-0.0257140677753835,0.0023439327776432,0.0790834735870361,0.0116953607648611,-0.0136794904246926,-0.0011324214283376,standing,2026-03-04_13-53-18
1772632403338629000,4.700629150390625,-0.0506480910889804,0.0183678697310388,0.057529813426733,0.0098375398665666,-0.0034020859748125,-0.0035252715460956,standing,2026-03-04_13-53-18
1772632403348578000,4.710578125,-0.0384184683846309,0.0100137367531657,0.0272574247598648,0.0098190400749444,0.0126255191862583,0.0025362728629261,standing,2026-03-04_13-53-18
1772632403358526000,4.72052587890625,-0.0113250385474413,0.0330380539879202,0.0443786554306745,0.0076994304545223,0.0203947592526674,0.0068697687238454,standing,2026-03-04_13-53-18
1772632403368474600,4.730474609375,0.0425409916747361,0.0432199869148433,0.1139654018759727,0.0010702828876674,0.0071912677958607,0.0117626823484897,standing,2026-03-04_13-53-18
1772632403378422500,4.740422607421875,0.0477374278066679,0.0161845343425869,0.1876765347748994,-0.007206555455923,-0.0212084166705608,0.0058712377212941,standing,2026-03-04_13-53-18
1772632403388371700,4.750371826171875,0.0260304037155583,-0.0302193433053791,0.2139391032785177,-0.0157036613672971,-0.0534691214561462,-0.0030146846547722,standing,2026-03-04_13-53-18
1772632403398319600,4.760319580078125,-0.0125989674733951,-0.0631776100553572,0.2029290489643812,-0.0228539817035198,-0.0724571943283081,-0.0186793990433216,standing,2026-03-04_13-53-18
1772632403408268800,4.770268798828125,-0.03526365761552,-0.0352810106091201,0.0957937853693962,-0.0244232080876827,-0.0563963577151298,-0.01558777410537,standing,2026-03-04_13-53-18
1772632403418216700,4.780216796875,-0.0177319464476779,0.0188292036324739,-0.0799076494514942,-0.018171701580286,-0.0208956189453601,-0.0050632283091545,standing,2026-03-04_13-53-18
1772632403428165600,4.79016552734375,-0.0145499919433146,0.1053676694005727,-0.2318266421467065,-0.0088470624759793,0.0104115614667534,0.0093565173447132,standing,2026-03-04_13-53-18
1772632403438113800,4.80011376953125,-0.0084630001798272,0.1401962600670754,-0.2875736638098955,0.0072384299710392,0.0314745008945465,0.0228374376893043,standing,2026-03-04_13-53-18
1772632403448062700,4.810062744140625,-0.0043041634673252,0.1392274150349199,-0.2610404616713523,0.0205572172999382,0.0328456349670887,0.0293873734772205,standing,2026-03-04_13-53-18
1772632403458010600,4.8200107421875,-0.0165479242948815,0.0925754078447818,-0.1535778658181429,0.0290500372648239,0.0172048881649971,0.0234983265399932,standing,2026-03-04_13-53-18
1772632403467959600,4.82995947265625,-0.0379347765209153,0.0334876974515616,-0.0201005387425422,0.0331676304340362,-0.002663058694452,0.0179608445614576,standing,2026-03-04_13-53-18
1772632403477908700,4.83990869140625,-0.0419821156829595,-0.0163502462983131,0.0711065033584833,0.0296117775142192,-0.0172145701944828,0.0044045569375157,standing,2026-03-04_13-53-18
1772632403487856600,4.849856689453125,-0.062624761945568,-0.0566432398505508,0.1158206743538379,0.0200394224375486,-0.0280564408749341,-0.0033584989141672,standing,2026-03-04_13-53-18
1772632403497805600,4.8598056640625,-0.0700461806505918,-0.0588026098415255,0.1541512817919254,0.0087577402591705,-0.0199252776801586,-0.0068882526829838,standing,2026-03-04_13-53-18
1772632403507753700,4.869753662109375,-0.0244299827815964,-0.0290299873903393,0.121104167714715,-0.0030940002761781,-0.0046366243623197,-0.0003794182557612,standing,2026-03-04_13-53-18
1772632403517702700,4.87970263671875,-0.0006289090206846,-0.002500876905024,0.102920276248455,-0.0175238065421581,-0.0011955539230257,0.0031008007936179,standing,2026-03-04_13-53-18
1772632403527650600,4.889650634765625,0.019546996513009,-0.0096641926631331,0.1319680915564298,-0.0288871601223945,-0.0086077777668833,0.0001905381213873,standing,2026-03-04_13-53-18
1772632403537599500,4.899599609375,-0.0056084875315427,-0.0397425200626254,0.0998421839773654,-0.0351903289556503,-0.0060072010383009,-0.0044316444545984,standing,2026-03-04_13-53-18
1772632403547547600,4.909547607421875,-0.0337661855993792,-0.0405548593588173,0.0147977561593055,-0.0268931705504655,0.0111745093017816,-0.0113659687340259,standing,2026-03-04_13-53-18
1772632403557496600,4.91949658203125,-0.0550149445289745,-0.0206523274064064,-0.06797931124866,-0.0129392724484205,0.0193008799105882,-0.0152515210211277,standing,2026-03-04_13-53-18
1772632403567444500,4.929444580078125,-0.024120697636716,-0.008660130187124,-0.120057873532176,0.0045787962153553,0.0123271634802222,-0.0128596723079681,standing,2026-03-04_13-53-18
1772632403577393400,4.939393310546875,0.0566881749708205,0.0178529059462249,-0.1156324583053588,0.0140236970037221,0.0046079903841018,0.0023075630888342,standing,2026-03-04_13-53-18
1772632403587341600,4.949341552734375,0.1356929572984576,0.0599680003590881,-0.0876876358032226,0.0213528536260128,-0.0037628356367349,0.0146746803075075,standing,2026-03-04_13-53-18
1772632403597290500,4.95929052734375,0.1571758172448724,0.0853507172882556,-0.0377379022419452,0.0175336152315139,-0.0109424516558647,0.0197786297649145,standing,2026-03-04_13-53-18
1772632403607238700,4.96923876953125,0.1138457210190594,0.0584026507385075,0.011729016238451,0.0101799294352531,-0.0083977952599525,0.015485132113099,standing,2026-03-04_13-53-18
1772632403617187600,4.9791875,0.0352724619764834,0.0296833367325365,0.0025163667351007,0.0020053572952747,0.0008111491333693,0.0067901764996349,standing,2026-03-04_13-53-18
1772632403627135500,4.989135498046875,-0.0043037981411442,0.0234741068288683,-0.0063239423245191,-0.005024803802371,0.0125033613294363,0.0045878998935222,standing,2026-03-04_13-53-18
1772632403637084700,4.999084716796875,-0.0080076941603794,0.0464858568429946,-0.0286433261603116,-0.0036426233127713,0.0257757566869258,0.0102359317243099,standing,2026-03-04_13-53-18
1772632403647032600,5.009032470703125,0.0416732689294964,0.0655630438871681,-0.0462397731274366,-0.002495486754924,0.0351169183850288,0.021025788038969,standing,2026-03-04_13-53-18
1772632403656981800,5.018981689453125,0.0803352272137999,0.0931226664640009,-0.0094558106094598,0.0022763656452298,0.0328111536800861,0.0283894278109073,standing,2026-03-04_13-53-18
1772632403666929700,5.0289296875,0.1033349945291876,0.0748624948911368,0.032732641300559,0.0027021318674087,0.0212438702583313,0.0340058580040931,standing,2026-03-04_13-53-18
1772632403676878600,5.038878662109375,0.0863704887900501,0.0386494641289114,0.1180605622351169,0.0040398379787802,0.0026819054037332,0.0326897241175174,standing,2026-03-04_13-53-18
1772632403686826800,5.04882666015625,0.0619289617011323,0.0044780221968889,0.1407464412957429,0.0063342237845063,-0.0077461255714297,0.0346574448049068,standing,2026-03-04_13-53-18
1772632403696775700,5.058775634765625,0.0293830751443281,0.0014905308187007,0.1248223114550113,0.0062990700826048,-0.012650336138904,0.0330323837697505,standing,2026-03-04_13-53-18
1772632403706723600,5.0687236328125,0.0023145605526864,0.0150591835744678,0.1149403843879699,0.0016082413494586,-0.0172283221036195,0.0288220942020416,standing,2026-03-04_13-53-18
1772632403716672800,5.0786728515625,-0.0304469049835577,0.0146443191632628,0.0922919147282838,-0.0027401680126786,-0.0142040364444255,0.0238867234438657,standing,2026-03-04_13-53-18
1772632403726620700,5.08862060546875,-0.0658775897290557,-0.001006108302623,0.0558984128326177,-0.0044234725646674,-0.0097245657816529,0.0218915119767189,standing,2026-03-04_13-53-18
1772632403736569600,5.098569580078125,-0.0715675449989736,0.0050340486444532,0.0086222823947668,-0.0057699675671756,-0.0079666133970022,0.0235139094293117,standing,2026-03-04_13-53-18
1772632403746517800,5.108517822265625,-0.0568279853003099,0.022455431305617,-0.0255061971783637,-0.0062549063004553,-0.0024581584148108,0.0247645508497953,standing,2026-03-04_13-53-18
1772632403756466700,5.118466796875,-0.0403181279934942,0.0165996910147368,-0.0596843611121177,-0.0050828489474952,0.0099633578211069,0.0299851447343826,standing,2026-03-04_13-53-18
1772632403766415600,5.12841552734375,-0.055376909709163,0.0122606388971209,-0.0926040494173765,-0.0033865668810904,0.0208805352449417,0.028708092868328,standing,2026-03-04_13-53-18
1772632403776363500,5.138363525390625,-0.0949451691834256,3.85784447193e-05,-0.0812888746768236,-0.002127690706402,0.0172397270798683,0.0189092569053173,standing,2026-03-04_13-53-18
1772632403786312700,5.148312744140625,-0.1177428745880723,-0.043720337652415,-0.0340226811110973,-0.0014619771391153,0.0032769753597676,0.0123559664934873,standing,2026-03-04_13-53-18
1772632403796260600,5.158260498046875,-0.0912575667118653,-0.078144585301727,0.0015717793613672,0.0044315988197922,0.0001421684864908,0.0095721632242202,standing,2026-03-04_13-53-18
1772632403806209500,5.16820947265625,-0.0875950256163254,-0.0407006975702941,-0.0212000244170427,0.0148237254470586,0.0069239186123013,0.0083482740446925,standing,2026-03-04_13-53-18
1772632403816157700,5.17815771484375,-0.0611233078740537,-0.0070120707191526,-0.030835867768526,0.0195737387984991,0.0066837016493082,0.0098305894061923,standing,2026-03-04_13-53-18
1772632403826106600,5.188106689453125,-0.0146310943555086,-0.0025261574767529,-0.0124929863482713,0.0182278789579868,0.000227938639,0.0116565022617578,standing,2026-03-04_13-53-18
1772632403836054500,5.198054443359375,-0.0070110112732276,0.0170225926019251,0.0460328523784875,0.0140339341014623,-0.0001504966057837,0.0114668849855661,standing,2026-03-04_13-53-18
1772632403846003500,5.20800341796875,-0.0284771392805501,0.0190789406098425,0.0572223549127578,0.0079470220953226,0.0036198599264025,0.0102013610303401,standing,2026-03-04_13-53-18
1772632403855951600,5.21795166015625,-0.0659352382004261,0.0165611125700175,0.0607365005135536,-0.0013319635763764,0.0075648003257811,0.007334201131016,standing,2026-03-04_13-53-18
1772632403865900500,5.227900634765625,-0.0744310081386938,0.0237958861291408,0.0988181016266346,-0.0107116773724555,0.0087752183899283,0.0043430374935269,standing,2026-03-04_13-53-18
1772632403875848400,5.237848388671875,-0.0411603144386783,0.0125279115311801,0.094507252690196,-0.0006582448258996,0.0248154364526271,0.0123149445280432,standing,2026-03-04_13-53-18
1772632403885797400,5.24779736328125,-0.0242110062686726,0.0432505281835794,0.0393681337922811,0.008393544703722,0.0328335203230381,0.0109976064413785,standing,2026-03-04_13-53-18
1772632403895745500,5.25774560546875,-0.037362127732113,0.0487429881200194,0.0733966601222753,0.0062672770582139,0.0018460424616932,0.0054342621006071,standing,2026-03-04_13-53-18
1772632403905694700,5.26769482421875,-0.0037992096198722,-0.0183196466751396,0.1762719281852245,-0.0038322149775922,-0.0415258109569549,-0.003471071831882,standing,2026-03-04_13-53-18
1772632403915642600,5.277642578125,0.0286874210303649,-0.0613723141990601,0.2259387531518936,-0.0174284521490335,-0.065482810139656,-0.0081760780885815,standing,2026-03-04_13-53-18
1772632403925591800,5.287591796875,0.0036256796838715,-0.0335088863700628,0.186431503149867,-0.0291215758770704,-0.0682010501623153,-0.0145579492673277,standing,2026-03-04_13-53-18
1772632403935539700,5.297539794921875,-0.0323405001778155,0.013711422227323,0.0442184964329004,-0.0329597257077693,-0.0377542003989219,-0.0069735329598188,standing,2026-03-04_13-53-18
1772632403945488600,5.307488525390625,-0.0018665245242416,0.0645075434848666,-0.1664683270514011,-0.0255257189273834,0.012581929564476,0.0099797863513231,standing,2026-03-04_13-53-18
1772632403956058600,5.31805859375,0.0160703699110075,0.1308311964809894,-0.3227192114710807,-0.0034627588465809,0.0511013567447662,0.028668250888586,standing,2026-03-04_13-53-18
1772632403966007800,5.3280078125,-0.005530965315923,0.1613720268256962,-0.3355377765119076,0.0240799188613891,0.0432391725480556,0.0331197269260883,standing,2026-03-04_13-53-18
1772632403975955700,5.337955810546875,-0.0206366914458572,0.0832113671720027,-0.2263233685553073,0.0471194572746753,0.0182810947299003,0.0272296126931905,standing,2026-03-04_13-53-18
1772632403985904600,5.347904541015625,-0.0206436691759154,0.0152042911335825,-0.0980862802207469,0.063175231218338,0.0073595526628196,0.0216286499053239,standing,2026-03-04_13-53-18
1772632403995852800,5.357852783203125,-0.0299914163010194,-0.0283760535262525,0.0233159936577081,0.0593472011387348,-0.0091842710971832,0.0142373126000165,standing,2026-03-04_13-53-18
1772632404005801700,5.3678017578125,-0.0455518639285117,-0.0491200047388672,0.1673831038087606,0.0362722650170326,-0.0272177029401063,0.0001434683799743,standing,2026-03-04_13-53-18
1772632404015750700,5.377750732421875,-0.0331958018328994,-0.0883836552433669,0.2374585105538368,0.0060640275478363,-0.0225672908127307,-0.0094005018472671,standing,2026-03-04_13-53-18
1772632404025698600,5.387698486328125,-0.0441037474794313,-0.0917990166448056,0.2122048268318176,-0.0201821606606245,0.0099477637559175,-0.0106624057516455,standing,2026-03-04_13-53-18
1772632404035647700,5.397647705078125,-0.0770013700833544,-0.0424034098349511,0.1729354772388935,-0.0429543145000934,0.0155356079339981,-0.012579615227878,standing,2026-03-04_13-53-18
1772632404045595600,5.407595703125,-0.0776121223928406,-0.0186862880304455,0.1360544840872287,-0.0466787852346897,0.0031872380059212,-0.0106930611655116,standing,2026-03-04_13-53-18
1772632404055544600,5.417544677734375,-0.0347037952430546,-0.0246564484812319,0.0271960499614477,-0.0249298140406608,0.004105495288968,-0.0054540908895432,standing,2026-03-04_13-53-18
1772632404065492700,5.42749267578125,-0.0360930941769853,0.0298019946761429,-0.1316232236415147,0.0116671659052371,0.0128829702734947,-0.0021393336355686,standing,2026-03-04_13-53-18
1772632404075441700,5.437441650390625,-0.0590264817252755,0.0777032712750136,-0.1823077012181282,0.0431193672120571,0.0062780641019344,-0.0013473094440996,standing,2026-03-04_13-53-18
1772632404085389600,5.4473896484375,-0.0529761321777477,0.0672657561518251,-0.1478887142658233,0.0565498881042003,-0.0077943340875208,-0.0023946322035044,standing,2026-03-04_13-53-18
1772632404095338500,5.45733837890625,-0.0300697422342374,0.0189218503519892,-0.0409393286317586,0.0521764457225799,-0.0077373427338898,-0.0061270524747669,standing,2026-03-04_13-53-18
1772632404105286700,5.46728662109375,-0.0493583070067688,0.0046742754213511,0.0245446586698293,0.0379127897322177,0.0054678497835993,-0.0100371344015002,standing,2026-03-04_13-53-18
1772632404115235600,5.477235595703125,-0.1015438733287155,-0.0087343644671142,0.1053033719927072,0.0125512406229972,0.0039354665204882,-0.0192838944494724,standing,2026-03-04_13-53-18
1772632404125183500,5.48718359375,-0.1036877534896135,-0.0554364944092929,0.1794090571671724,-0.0150880794972181,-0.0002570557408034,-0.0255715902894735,standing,2026-03-04_13-53-18
1772632404135132700,5.497132568359375,-0.0536753664882853,-0.0728797966413199,0.1823556320130825,-0.0307490639388561,0.0081883603706955,-0.0200311504304409,standing,2026-03-04_13-53-18
1772632404145080600,5.50708056640625,-0.0379781407386064,-0.0215691499903798,0.1272375559031963,-0.0305633004754781,-0.0002988455817103,-0.0222488325089216,standing,2026-03-04_13-53-18
1772632404155029500,5.517029541015625,-0.079131952371262,0.0049497313618659,0.0728740975528955,-0.0230409353971481,-0.019516747444868,-0.0280856825411319,standing,2026-03-04_13-53-18
1772632404164977700,5.526977783203125,-0.0278324116362258,-0.0259409353338181,-0.0576093084037303,0.0011285217478871,-0.0135416695848107,-0.0228221137076616,standing,2026-03-04_13-53-18
1772632404174926600,5.536926513671875,0.0080753891017287,0.014559125097841,-0.190030988946557,0.0298834703862667,0.0175760351121425,-0.0160901732742786,standing,2026-03-04_13-53-18
1772632404184874500,5.54687451171875,-0.0201311165438964,0.0896834857955574,-0.2088075856089591,0.0467797927558422,0.0257095918059349,-0.0150553192943334,standing,2026-03-04_13-53-18
1772632404194823400,5.556823486328125,0.0128927993208169,0.050541561974585,-0.094908234706521,0.0418958216905593,0.0020205068867653,-0.0160894244909286,standing,2026-03-04_13-53-18
1772632404204771600,5.566771484375,0.0765973923923447,0.0052865621007978,0.0589314969182014,0.0272257588803768,-0.0124138426035642,-0.0133236143738031,standing,2026-03-04_13-53-18
1772632404214720800,5.576720703125,0.1133225739277899,0.0138334411717951,0.1436596983939409,0.0064539015293121,-0.010870274156332,-0.0055868648923933,standing,2026-03-04_13-53-18
1772632404224668400,5.58666845703125,0.0950736544013023,0.0332055195093154,0.1428062964349985,-0.0083289248868823,-0.002721675671637,-0.0044206073507666,standing,2026-03-04_13-53-18
1772632404234617600,5.59661767578125,0.0514475709035992,0.0361912573218345,0.0890162540584802,-0.0181562565267086,0.0109541891142725,-0.0064792311750352,standing,2026-03-04_13-53-18
1772632404244565800,5.606565673828125,0.0136628338452428,0.0217784088268876,0.0438034858912229,-0.0183349028229713,0.0150332227349281,-0.0089715253561735,standing,2026-03-04_13-53-18
1772632404254514700,5.6165146484375,0.0028295243375003,0.0308821911282837,0.0064537061840295,-0.0123824719339609,0.0144665017724037,-0.0070103742182254,standing,2026-03-04_13-53-18
1772632404264462600,5.626462646484375,0.0012304551104083,0.0513017326921224,-0.0150227970868349,0.0001373924314975,0.0073338663205504,-0.0036540804430842,standing,2026-03-04_13-53-18
1772632404274411800,5.636411865234375,0.0441242788108065,0.0745624890312552,0.0064537061840295,0.008674687705934,-0.0057102963328361,0.0059865629300475,standing,2026-03-04_13-53-18
1772632404284360700,5.646360595703125,0.0481732619406655,0.0864056331686675,0.0217599963873624,0.0103929955512285,-0.0194255597889423,0.0134669970721006,standing,2026-03-04_13-53-18
1772632404294930700,5.6569306640625,0.0202028300732374,0.0766090462975204,0.0229775554835796,0.0128513593226671,-0.0185190197080373,0.0158697012811899,standing,2026-03-04_13-53-18
1772632404304878600,5.666878662109375,-0.0164305449929088,0.038920682285726,-0.0207435128211975,0.0130479391664266,0.0015737479552626,0.012775789014995,standing,2026-03-04_13-53-18
1772632404314827800,5.676827880859375,-0.0543526081627234,0.0360530178949236,-0.0494914683997631,0.0144759267568588,0.0182251632213592,0.0100356619805097,standing,2026-03-04_13-53-18
1772632404324775700,5.686775634765625,-0.0517806022502481,0.0475048246271908,-0.0139326637625694,0.0148902246728539,0.0193533916026353,0.0099695771932601,standing,2026-03-04_13-53-18
1772632404334724600,5.696724609375,-0.0128771998928859,0.0135882342390716,0.050146132916212,0.0084680113941431,0.0092504238709807,0.0091085769236087,standing,2026-03-04_13-53-18
1772632404344672800,5.7066728515625,-0.0335459669774398,-0.0065831777825951,0.1295329733639955,-0.001064468640834,-0.0026118117384612,0.0018670568242669,standing,2026-03-04_13-53-18
1772632404354621700,5.71662158203125,-0.0483549386505037,-0.0135799048021435,0.1469049639254808,-0.0127698611468076,-0.0100771849974989,0.0013573276810348,standing,2026-03-04_13-53-18
1772632404364570400,5.7265703125,-0.069287946161814,-0.0151505151197314,0.1357587160110473,-0.0213688649237155,-0.0107694985345005,-0.0038207448087632,standing,2026-03-04_13-53-18
1772632404374519300,5.736519287109375,-0.0843156751520931,-0.0298449570350348,0.1074678565502166,-0.0235654395073652,0.0052166585810482,-0.0011655733687803,standing,2026-03-04_13-53-18
1772632404384467500,5.746467529296875,-0.0532786222556605,-0.0088357790149748,0.0245814835488796,-0.0181007981300354,0.0260689482092857,0.0070679048076272,standing,2026-03-04_13-53-18
1772632404394416400,5.75641650390625,-0.0116017365969717,0.015798457634449,0.0058265141963958,-0.0098165031522512,0.0314139164984226,0.0120027419179677,standing,2026-03-04_13-53-18
1772632404404364300,5.7663642578125,-0.0164263072092086,-0.016179712036997,0.0640922406822443,-0.0071585997939109,0.002425318583846,0.0040537593886256,standing,2026-03-04_13-53-18
1772632404414313200,5.776313232421875,-0.0361573550522327,-0.1015226844102144,0.1328150637745857,-0.0074619334191083,-0.031533446162939,-0.0107363723218441,standing,2026-03-04_13-53-18
1772632404424261400,5.786261474609375,-0.0769040471887216,-0.157688954398781,0.1339227327555417,-0.0129170399159193,-0.0508483573794364,-0.0295090526342391,standing,2026-03-04_13-53-18
1772632404434210300,5.796210205078125,-0.1255889119133353,-0.1512140592962503,0.0737350982964038,-0.0252546668052673,-0.0475108809769153,-0.0411244332790374,standing,2026-03-04_13-53-18
1772632404444158200,5.806158203125,-0.1049956577504053,-0.0981985084235668,-0.0258013807326555,-0.0351262688636779,-0.0247494094073772,-0.033989317715168,standing,2026-03-04_13-53-18
1772632404454107400,5.816107421875,-0.0419197545038536,-0.0226547532700002,-0.1548515390157699,-0.0362160354852676,0.0108669083565473,-0.0191046427935361,standing,2026-03-04_13-53-18
1772632404464055300,5.82605517578125,0.0080870795395225,0.0718139209754765,-0.2338672080636024,-0.0240517817437648,0.0303844586014747,0.0020942441187798,standing,2026-03-04_13-53-18
1772632404474004200,5.836004150390625,0.0363847705999389,0.1176674712643027,-0.2616261526048183,0.0004229336045682,0.0305261388421058,0.0163991469889879,standing,2026-03-04_13-53-18
1772632404483952400,5.845952392578125,0.0472189568905159,0.0899666866511106,-0.2574041509956121,0.0318461917340755,0.0253967773169279,0.022014195099473,standing,2026-03-04_13-53-18
1772632404493901300,5.8559013671875,-0.0022996917771175,0.0409704544223845,-0.1934071873813867,0.0603476054966449,0.0096180811524391,0.012149048037827,standing,2026-03-04_13-53-18
1772632404503850500,5.8658505859375,-0.0492713228430598,0.0084812664888799,-0.0844938081979751,0.0697831436991691,-0.009651237167418,-0.0011155059328302,standing,2026-03-04_13-53-18
1772632404513798400,5.87579833984375,-0.0543435480734333,-0.0280694717951118,0.0689829353332519,0.0570561699569225,-0.0209294576197862,-0.0136195803061127,standing,2026-03-04_13-53-18
1772632404523747300,5.885747314453125,-0.0047898646250367,-0.03286605842188,0.202972303584218,0.0261469557881355,-0.0151014123111963,-0.0138972280547022,standing,2026-03-04_13-53-18
1772632404533695500,5.895695556640625,0.0352825084464624,0.01577317706272,0.2850795089066028,-0.0147978141903877,-0.0062360153533518,-0.0106500359252095,standing,2026-03-04_13-53-18
1772632404543644400,5.90564453125,0.0633510669261217,0.0581663577646017,0.2989917144030332,-0.0460955314338207,-0.001601196359843,-0.0027769226580858,standing,2026-03-04_13-53-18
1772632404553592300,5.91559228515625,0.1016760118084028,0.0623101795710623,0.2230646590203046,-0.0595117360353469,0.0043949102982878,0.0067521343007683,standing,2026-03-04_13-53-18
1772632404563541500,5.92554150390625,0.0792377873659133,0.1048433532655239,0.1078051256805658,-0.0516842752695083,0.0054383743554353,0.0072438311763107,standing,2026-03-04_13-53-18
1772632404573489400,5.935489501953125,0.0267599235665053,0.1108453701592981,-0.0477121837675571,-0.0280820094048976,0.0049973549321293,0.0066486145369708,standing,2026-03-04_13-53-18
1772632404583438300,5.945438232421875,0.0011239990612491,0.1092206915669143,-0.1538818172007799,0.0012095780111849,0.0100495629012584,0.0071717798709869,standing,2026-03-04_13-53-18
1772632404593386500,5.955386474609375,1.73164609819e-05,0.1043771970584988,-0.1926964087635278,0.0279093645513057,0.0184406507760286,0.0114853018894791,standing,2026-03-04_13-53-18
1772632404603335400,5.96533544921875,0.0174415121337398,0.1120082764588296,-0.1289081194639205,0.0390415824949741,0.0082193352282047,0.014513443224132,standing,2026-03-04_13-53-18
1772632404613283300,5.975283447265625,0.052186041245982,0.0663832742288708,3.33177477121e-05,0.0333107262849807,-0.0154947824776172,0.0245500989258289,standing,2026-03-04_13-53-18
1772632404623232300,5.985232177734375,0.0626086510609835,0.0160229140400886,0.1003787750720977,0.0185667388141155,-0.0284039340913295,0.0251484140753746,standing,2026-03-04_13-53-18
1772632404633180400,5.995180419921875,0.0265911063382402,-0.0045404199086129,0.1279956807941198,0.0031939076725393,-0.0280047245323658,0.0222546234726905,standing,2026-03-04_13-53-18
1772632404643129300,6.00512939453125,-0.0331409663731232,-0.042237697879225,0.0853600696384906,-0.0088704172521829,-0.0129498448222875,0.0172985084354877,standing,2026-03-04_13-53-18
1772632404653077200,6.0150771484375,-0.0806362925196066,-0.0454182276114821,0.0127162737101316,-0.0139141771942377,0.0073176100850105,0.0151735711842775,standing,2026-03-04_13-53-18
1772632404663026400,6.0250263671875,-0.0845520777238532,-0.0321900588564574,-0.0229436532139778,-0.0186926200985908,0.015756357461214,0.0108141442760825,standing,2026-03-04_13-53-18
1772632404672974300,6.034974365234375,-0.0991836470033973,-0.0360445423275232,-0.0056254386663436,-0.0179900787770748,0.0162780713289976,0.008727291598916,standing,2026-03-04_13-53-18
1772632404682923300,6.04492333984375,-0.1212097469810396,-0.0566986232995986,0.0006166705936193,-0.0136238727718591,0.0076043289154767,-0.002164002507925,standing,2026-03-04_13-53-18
1772632404692872200,6.0548720703125,-0.1369463548930361,-0.0983010920152068,-0.0044394437521696,-0.0057108220644295,-0.002658428158611,-0.0092301676049828,standing,2026-03-04_13-53-18
1772632404702820400,6.0648203125,-0.1246346799284219,-0.0864893659293651,-0.0265747031927108,0.0067182518541812,-0.0081748943775892,-0.0144600346684455,standing,2026-03-04_13-53-18
1772632404712769300,6.074769287109375,-0.0647548693094402,-0.0336741599343717,-0.056395840960741,0.0191195271909236,-0.0085157789289951,-0.0093241287395358,standing,2026-03-04_13-53-18
1772632404722717200,6.08471728515625,-0.0259711478089913,-0.0121703302651643,-0.0605254881113767,0.0254286862909793,-0.0022355343680828,-0.0028997156769037,standing,2026-03-04_13-53-18
1772632404732666400,6.094666259765625,-0.0109440033406019,0.0188284729801118,-0.0481423918783664,0.0248292051255702,0.0028244715649634,-0.0018991660326719,standing,2026-03-04_13-53-18
1772632404742614300,6.1046142578125,-0.0257128621989861,0.0132325526691973,0.0192839616626501,0.0135662537068128,-0.001226576976478,-0.0048570996150374,standing,2026-03-04_13-53-18
1772632404752563500,6.1145634765625,-0.0375647741647437,-0.001986205381155,0.0866489404052495,-4.46299090981e-05,0.0008847771678119,-0.0080068204551935,standing,2026-03-04_13-53-18
1772632404762511400,6.124511474609375,-0.04577306893114,-0.0168473821654915,0.1006727895826101,-0.0113174114376306,0.0023160413838922,-0.0142634520307183,standing,2026-03-04_13-53-18
1772632404772460500,6.13446044921875,-0.0726562170185148,-0.0114236035510897,0.1086503443330526,-0.0237061697989702,-0.0032009629067033,-0.0226457510143518,standing,2026-03-04_13-53-18
1772632404782408400,6.144408447265625,-0.0727787108870223,-0.0177412622652947,0.0984825860619545,-0.0256476998329162,-0.0043584816157817,-0.0240715201944112,standing,2026-03-04_13-53-18
1772632404792357400,6.154357421875,-0.0134775769388303,0.0270659938409924,0.0064168813049793,-0.0171993523836135,-0.0015211496502161,-0.0127749238163232,standing,2026-03-04_13-53-18
1772632404802305500,6.164305419921875,0.0159680420476943,0.0976927508585154,-0.0422054030448198,-0.0009507783688604,0.0018020195420831,-0.0024265192914754,standing,2026-03-04_13-53-18
1772632404812254500,6.17425439453125,0.0176577487003058,0.1335335873074829,-0.0782289025843143,0.0135839562863111,0.0056995563209056,0.0046526952646672,standing,2026-03-04_13-53-18
1772632404822202400,6.184202392578125,0.0209052427215501,0.1060971527189016,-0.0807376705348491,0.0271441098302602,0.0091400006785988,0.0059027429670095,standing,2026-03-04_13-53-18
1772632404832151300,6.1941513671875,-4.858838208e-06,0.0755272424101829,-0.0140671037971973,0.0261635333299636,-8.4901694208e-06,0.0004688291810452,standing,2026-03-04_13-53-18
1772632404842099500,6.204099365234375,-0.0007165142389014,0.045462212883681,0.0913829831898212,0.0153637500479817,-0.0102666988968849,-0.0068991417065262,standing,2026-03-04_13-53-18
1772632404852048400,6.21404833984375,-0.0178706607986241,-0.0069344754382967,0.1477268017023801,-0.0017582457512617,-0.0072994045913219,-0.0131232161074876,standing,2026-03-04_13-53-18
1772632404861996300,6.223996337890625,-0.0262899679671973,0.0190954533532261,0.1681739619255065,-0.0227549634873867,-0.0052175736054778,-0.0128203351050615,standing,2026-03-04_13-53-18
1772632404871945500,6.233945556640625,-0.0217236829649657,0.0497831448227167,0.171259652981162,-0.0344614200294017,-0.0022609322331845,-0.0098061691969633,standing,2026-03-04_13-53-18
1772632404881894400,6.243894287109375,0.003950929582864,0.0359862362690269,0.0954208604037761,-0.0339772328734397,0.0125281065702438,-7.76231754571e-05,standing,2026-03-04_13-53-18
1772632404891842300,6.25384228515625,0.0369814578514546,0.0557215949609875,-0.0001361936002969,-0.0182430110871791,0.0381162911653518,0.0117702484130859,standing,2026-03-04_13-53-18
1772632404901791200,6.263791259765625,0.0146275141589343,0.0586461041055619,-0.0400794969320297,-0.0031945710070431,0.0332486666738987,0.0122079346328973,standing,2026-03-04_13-53-18
1772632404911739400,6.273739501953125,-0.0038019495662301,0.0047195758678019,0.0469675028800964,0.0009674169123172,-0.010026367381215,0.0033776916097849,standing,2026-03-04_13-53-18
1772632404921688300,6.283688232421875,0.0021754078103229,-0.0978074632793664,0.1719511423766613,-0.00354167772457,-0.0526552833616733,-0.0111929178237915,standing,2026-03-04_13-53-18
1772632404931636200,6.29363623046875,-0.0278854204650968,-0.1350767250962555,0.1828571517944335,-0.0149685032665729,-0.0637617260217666,-0.0246389508247375,standing,2026-03-04_13-53-18
1772632404941585400,6.30358544921875,-0.0926608941711485,-0.1088261392913758,0.1111404075831174,-0.0314825177192688,-0.0658394247293472,-0.0357724353671073,standing,2026-03-04_13-53-18
1772632404951533300,6.313533203125,-0.0915306480322033,-0.0560889669686555,0.0010445406168699,-0.0433833859860897,-0.0423836335539817,-0.03064451739192,standing,2026-03-04_13-53-18
1772632404961482200,6.323482177734375,-0.0239170648233965,0.020120558617264,-0.1815513298928737,-0.0425528511404991,0.0067888908088207,-0.0133107313886284,standing,2026-03-04_13-53-18
1772632404971430400,6.333430419921875,-0.003892367796041,0.1152316224195063,-0.3291793473958969,-0.0278050657361745,0.0479581654071807,0.0070438086986541,standing,2026-03-04_13-53-18
1772632404981379300,6.34337939453125,-0.0275557501193135,0.1504676248431205,-0.3785316995859146,-0.000663582701236,0.0562379881739616,0.0190681982785463,standing,2026-03-04_13-53-18
1772632404991327200,6.3533271484375,0.0001510623758658,0.0959108358778059,-0.3191787623852491,0.0316163264214992,0.0411543771624565,0.0238017011433839,standing,2026-03-04_13-53-18
1772632405001276200,6.363276123046875,-0.0180197869457304,0.0191465990185737,-0.2074731221348047,0.0593915097415447,0.0141090722754597,0.0189532879739999,standing,2026-03-04_13-53-18
1772632405011224300,6.373224365234375,-0.0463420279255136,-0.0492588286876678,-0.0783405462652444,0.0723613649606704,-0.0060569150373339,0.0031314475927501,standing,2026-03-04_13-53-18
1772632405021173500,6.383173583984375,-0.1022477838143706,-0.089192925799638,0.036421558946371,0.0659467652440071,-0.018299326300621,-0.0107476767152547,standing,2026-03-04_13-53-18
1772632405031121200,6.39312109375,-0.1021691290875896,-0.1051810607872903,0.1508902341693639,0.044808991253376,-0.0208378508687019,-0.0194902997463941,standing,2026-03-04_13-53-18
1772632405041070300,6.4030703125,-0.060549490041472,-0.0883640737600624,0.2081780555337667,0.0133062917739152,-0.0029275543056428,-0.0194401852786541,standing,2026-03-04_13-53-18
1772632405051018500,6.4130185546875,-0.0403314623991027,-0.0346598099708557,0.2267144136995077,-0.0147032383829355,0.0168346986174583,-0.0170457363128662,standing,2026-03-04_13-53-18
1772632405060967400,6.422967529296875,-0.023712445629388,0.0010671908400952,0.1900876875698566,-0.0327760688960552,0.0268969573080539,-0.0147569365799427,standing,2026-03-04_13-53-18
1772632405070915600,6.43291552734375,-0.0206593416690826,0.003829641290754,0.1667062274605035,-0.0410699509084224,0.0218374840915203,-0.0159212704747915,standing,2026-03-04_13-53-18
1772632405080864500,6.442864501953125,-0.0303016147613525,0.0036228666722774,0.1443237152606248,-0.0384771898388862,0.0033387497533112,-0.0174808576703071,standing,2026-03-04_13-53-18
1772632405090813400,6.4528134765625,-0.0407392760150134,-0.0167870302803814,0.0660363604873418,-0.0206848755478858,-0.0062960344366729,-0.0234162453562021,standing,2026-03-04_13-53-18
1772632405100761300,6.46276123046875,-0.0489902043467387,-0.0074937167562544,-0.080460022637248,0.004442292265594,0.0055077318102121,-0.0247090812772512,standing,2026-03-04_13-53-18
1772632405110710300,6.472710205078125,-0.0285913037121295,0.0597809533543884,-0.1629775623261928,0.0285542868077754,0.0150237390771508,-0.014850590378046,standing,2026-03-04_13-53-18
1772632405120658400,6.482658447265625,0.0384988401444628,0.1121130520075559,-0.1458691911369562,0.0401793010532856,0.0087816910818219,-0.0050353533588349,standing,2026-03-04_13-53-18
1772632405130607400,6.492607421875,0.0759652685012668,0.1092255138725042,-0.0418541053891181,0.0377121493220329,-0.0038472849410027,0.0018206886015832,standing,2026-03-04_13-53-18
1772632405140555300,6.50255517578125,0.0714112949913367,0.0616039309978485,0.0666898559600114,0.0262203142046928,-0.0127821629866957,0.0056934366002678,standing,2026-03-04_13-53-18
1772632405150504400,6.51250439453125,0.0422226099079474,0.0579458468817174,0.153406016382575,0.0042750677093863,-0.0156708937138319,0.0041831582784652,standing,2026-03-04_13-53-18
1772632405160452400,6.522452392578125,-0.0240890603894367,0.0288752352200448,0.1790297024607658,-0.0162090044468641,-0.0100068878382444,-0.0070178797468543,standing,2026-03-04_13-53-18
1772632405170401300,6.5324013671875,-0.0779125301115214,-0.0140140584357082,0.1156821426659822,-0.0286441035568714,0.0133208036422729,-0.0098227206617593,standing,2026-03-04_13-53-18
1772632405180349400,6.542349365234375,-0.0562324670925736,0.0266113819412887,0.0389198055028915,-0.0319378338754177,0.0229627676308155,-0.0051154159009456,standing,2026-03-04_13-53-18
1772632405190298400,6.55229833984375,-0.0039439153201878,0.0619863544441759,0.0471861140668392,-0.0277063362300395,0.0039499290287494,-0.0013132209423929,standing,2026-03-04_13-53-18
1772632405200246300,6.562246337890625,0.0431399074159562,0.0403657665275037,-0.0227186122864484,-0.0129331741482019,-0.0079421177506446,0.0029617152176797,standing,2026-03-04_13-53-18
1772632405210195200,6.5721953125,0.0327076529897749,0.0175344876468181,-0.1002846670478582,0.0089383032172918,0.0011179561261087,0.0067189028486609,standing,2026-03-04_13-53-18
1772632405220143400,6.582143310546875,-0.004657945341058,0.0414398254998028,-0.1912064624667167,0.0313304811716079,0.0129974652081727,0.008276093751192,standing,2026-03-04_13-53-18
1772632405230092300,6.59209228515625,-0.029185470212996,0.0440881480515003,-0.1779968522816896,0.0404901579022407,0.0067185298539698,0.0063208001665771,standing,2026-03-04_13-53-18
