time,seconds_elapsed,acc_x,acc_y,acc_z,gyr_x,gyr_y,gyr_z,activity,session
1772632679446611000,0.06961083984375,0.0653823718243278,0.0662443041495978,0.102784082648158,-0.0286878906190395,0.0305840447545051,0.0251537393778562,standing,2026-03-04_13-57-59
1772632679456560000,0.07956005859375,0.0586252439806237,0.0525739445850253,0.1011275476127862,-0.0317396037280559,0.0237999074161052,0.0233044419437646,standing,2026-03-04_13-57-59
1772632679466508000,0.089508056640625,0.0553359749105758,0.073975336793065,0.1113484973758459,-0.0341626070439815,0.0124757457524538,0.0251580569893121,standing,2026-03-04_13-57-59
1772632679476457200,0.099457275390625,0.0584138114533387,0.0343562969796359,0.0892898103028535,-0.0371855609118938,-0.001705321483314,0.0319395288825035,standing,2026-03-04_13-57-59
1772632679486406100,0.10940625,0.0120975390235893,-0.0128083359077572,0.0298813435226678,-0.0365583300590515,-0.0102624557912349,0.0325855538249015,standing,2026-03-04_13-57-59
1772632679496355000,0.11935498046875,-0.0694121387970633,-0.0112776192091405,-0.051319268348813,-0.0259714648127555,0.0052382061257958,0.0279910713434219,standing,2026-03-04_13-57-59
1772632679506304000,0.129303955078125,-0.1018591498229652,-0.0229174958594143,-0.1008721115469932,-0.0124661121517419,0.0187389701604843,0.0259397104382514,standing,2026-03-04_13-57-59
1772632679516252200,0.139252197265625,-0.1012586997117847,-0.0637827363416552,-0.0677601155400276,0.0018188171088695,0.0240051038563251,0.019459705799818,standing,2026-03-04_13-57-59
1772632679526201000,0.149201171875,-0.0948588974057696,-0.1139490352630615,0.0031932430833578,0.0080337421968579,0.0127537818625569,0.0099382884800434,standing,2026-03-04_13-57-59
1772632679536150000,0.15914990234375,-0.1008565669179894,-0.1353987966574728,0.0758025522202253,0.00565846869722,-0.0130972564220428,0.0038596233353018,standing,2026-03-04_13-57-59
1772632679546099000,0.169098876953125,-0.1269333305259235,-0.1345101772546768,0.1056540851265191,-0.0084287840873003,-0.0396453775465488,-0.0131942648440599,standing,2026-03-04_13-57-59
1772632679556048000,0.1790478515625,-0.1494583199364133,-0.1300138887487351,0.0187315884768962,-0.020886518061161,-0.0420278422534465,-0.0236743371933698,standing,2026-03-04_13-57-59
1772632679565997000,0.1889970703125,-0.1520272205763496,-0.0474183153875172,-0.1240402211666107,-0.0271718688309192,-0.0058694379404187,-0.023316029459238,standing,2026-03-04_13-57-59
1772632679575945200,0.1989453125,-0.126868686058186,0.0438926254794001,-0.1665805552542209,-0.0280464515089988,0.0324081778526306,-0.0153467860072851,standing,2026-03-04_13-57-59
1772632679585894100,0.20889404296875,-0.0621841420385986,0.0499193384230136,-0.1381143392264842,-0.0218742229044437,0.0451078563928604,-0.011488483287394,standing,2026-03-04_13-57-59
1772632679595843000,0.218843017578125,-0.0373173935412429,0.0707604663997888,-0.1222498306185007,-0.007691825274378,0.0459427572786808,-0.0081241121515631,standing,2026-03-04_13-57-59
1772632679605792000,0.2287919921875,-0.0567608748808503,0.0822027746513485,-0.0753846190690994,0.0114726023748517,0.0411601215600967,-0.0056053502485156,standing,2026-03-04_13-57-59
1772632679615741000,0.238740966796875,-0.042593653443735,0.0671633186906576,0.032419337567687,0.0282523818314075,0.013325828127563,-0.0091279130429029,standing,2026-03-04_13-57-59
1772632679625689000,0.248689208984375,-0.0211222830057144,0.0310312442101538,0.1295183603167533,0.0316892154514789,-0.0291956663131713,-0.022916542366147,standing,2026-03-04_13-57-59
1772632679635638000,0.258637939453125,0.0010966909292154,0.0343052974447607,0.1084475152373313,0.030397580936551,-0.0410704389214515,-0.030870072543621,standing,2026-03-04_13-57-59
1772632679645587000,0.2685869140625,0.0133829574579373,0.0788838593617081,0.0636427433490753,0.0216967910528183,-0.0197178777307271,-0.027895700186491,standing,2026-03-04_13-57-59
1772632679655535900,0.278535888671875,0.043839890645165,0.1062608188480138,0.0873994665116071,0.002334012184292,0.0023165850434452,-0.0190097969025373,standing,2026-03-04_13-57-59
1772632679665484800,0.28848486328125,0.0511055160002782,0.0730832102589309,0.1540431452423334,-0.0264353305101394,0.0024537406861782,-0.0150699000805616,standing,2026-03-04_13-57-59
1772632679675433000,0.298432861328125,0.0472088921542279,0.0376670289628207,0.0883317789256572,-0.0436641201376915,-0.0011452552862465,-0.0151601824909448,standing,2026-03-04_13-57-59
1772632679685382000,0.3083818359375,0.0090973525606095,0.0714830815859138,-0.0442822093188762,-0.0433343835175037,0.022369522601366,-0.0111882053315639,standing,2026-03-04_13-57-59
1772632679695330800,0.318330810546875,-0.0111294977090321,0.0857780027896165,-0.1358995857864618,-0.0331997238099575,0.0388249270617961,-0.0059343208558857,standing,2026-03-04_13-57-59
1772632679705279700,0.32827978515625,0.0002213876657187,0.0371224006921052,-0.1091074404507875,-0.0136028211563825,0.0230025574564933,-0.0058154864236712,standing,2026-03-04_13-57-59
1772632679715229000,0.33822900390625,0.0264651236047036,0.023358225364238,-0.1227297230899333,0.0106284832581877,0.0063689863309264,-0.0070663732476532,standing,2026-03-04_13-57-59
1772632679725178000,0.34817822265625,0.0254136965893208,0.0342979909211397,-0.1222153438270091,0.0371768772602081,0.0060483403503894,-0.0045551536604762,standing,2026-03-04_13-57-59
1772632679735126000,0.3581259765625,0.0365888418046757,0.0331307007074356,-0.0364478624314069,0.0530557110905647,0.0009089719969779,-0.0017652257811278,standing,2026-03-04_13-57-59
1772632679745075000,0.368074951171875,0.0257344164436683,-0.0072359426029026,0.1351426299393177,0.0466735921800136,-0.0302408244460821,-0.0087946113198995,standing,2026-03-04_13-57-59
1772632679755024000,0.37802392578125,0.0147625021828338,-0.0747379917286336,0.250641817253828,0.0235224682837724,-0.0662795156240463,-0.016788886860013,standing,2026-03-04_13-57-59
1772632679764972800,0.387972900390625,-0.0127528793934732,-0.0717896633170545,0.151106507268548,-0.0026954375207424,-0.0538685247302055,-0.0180158354341983,standing,2026-03-04_13-57-59
1772632679774922000,0.397921875,-0.0496052127062343,0.0468937069915235,-0.0085930563002824,-0.020946878939867,0.0030938296113163,-0.0067104492336511,standing,2026-03-04_13-57-59
1772632679784870000,0.407869873046875,-0.0758621186540462,0.0864016876459121,-0.0268757319658994,-0.0349587649106979,0.0376434177160263,-0.0026004631072282,standing,2026-03-04_13-57-59
1772632679794818800,0.41781884765625,-0.0506310851552523,0.0585297842495143,-0.0308107333272695,-0.0407359600067138,0.0300025418400764,-0.0044673392549157,standing,2026-03-04_13-57-59
1772632679804767700,0.427767822265625,-0.0003615998540073,0.0867012551143765,-0.0747258628994226,-0.0284680277109146,0.0275058299303054,0.0054559637792408,standing,2026-03-04_13-57-59
1772632679814717000,0.437717041015625,-0.0261098621599376,0.1268896192483604,-0.0999643490523099,-0.0027903630398213,0.0286651048809289,0.0095005072653293,standing,2026-03-04_13-57-59
1772632679824666000,0.447666015625,-0.0827738708038814,0.0702029786475002,-0.0416354942023754,0.0193471070379018,-0.0020075836218893,-0.001903441385366,standing,2026-03-04_13-57-59
1772632679834614000,0.457614013671875,-0.0867526930406689,-0.0016031974129378,0.0346224005699157,0.0301451589912176,-0.0361788719892501,-0.0135422544553875,standing,2026-03-04_13-57-59
1772632679844563000,0.46756298828125,-0.0668542710077948,-0.0001741875231266,0.0152870009809732,0.0389552824199199,-0.0387898422777652,-0.0157986972481012,standing,2026-03-04_13-57-59
1772632679854511900,0.477511962890625,-0.0885261689865961,0.0278755566582083,0.0131406366020441,0.0329546481370925,-0.0180203784257173,-0.0141222383826971,standing,2026-03-04_13-57-59
1772632679864461000,0.4874609375,-0.0752061937622726,0.0002419920623302,0.0894014539837837,0.0174064859747886,-0.0124647580087184,-0.0150797283276915,standing,2026-03-04_13-57-59
1772632679874410000,0.497409912109375,-0.0391362612651661,-0.0357533042959868,0.1602408308386802,-0.0009405640885233,-0.0166054405272007,-0.018431581556797,standing,2026-03-04_13-57-59
1772632679884359000,0.50735888671875,-0.0338714178058318,-0.0382633874207735,0.1306470720857381,-0.0163801275193691,-0.0090055745095014,-0.0180979985743761,standing,2026-03-04_13-57-59
1772632679894306800,0.517306884765625,-0.072477444651816,0.0064589668810367,0.0537514639317989,-0.0196899026632308,0.0094935419037938,-0.0156777184456586,standing,2026-03-04_13-57-59
1772632679904255700,0.527255859375,-0.0821484141156077,0.0017801614150404,0.0058878889948129,-0.0202054325491189,0.0156957730650901,-0.0233092457056045,standing,2026-03-04_13-57-59
1772632679914205000,0.537204833984375,-0.0697817392944358,-0.0161423026360571,0.0022550854504108,-0.0158602185547351,0.0075784595683217,-0.0302947163581848,standing,2026-03-04_13-57-59
1772632679924154000,0.547154052734375,-0.0653380029596388,0.0123740361437201,0.0105541272401809,-0.0102393748238682,-0.0018559216987341,-0.0338390059769153,standing,2026-03-04_13-57-59
1772632679934103000,0.55710302734375,-0.0248980021521449,0.0404654275096952,-0.0270493349671363,-0.0018930276855826,-0.0077822543680667,-0.0302088502794504,standing,2026-03-04_13-57-59
1772632679944051000,0.567051025390625,0.0071195679479278,0.0478619675017893,-0.0233288531392812,0.0052280151285231,-0.0177190415561199,-0.0266964230686426,standing,2026-03-04_13-57-59
1772632679954000000,0.576999755859375,0.0182464535747654,0.0498566484503448,-0.0075561144679784,0.0106568690389394,-0.0351417064666748,-0.0270405039191246,standing,2026-03-04_13-57-59
1772632679963949000,0.586948974609375,0.0021691424663178,0.0591520078010857,-0.0161982706069946,0.0111373206600546,-0.0398634895682334,-0.0293619073927402,standing,2026-03-04_13-57-59
1772632679973898000,0.59689794921875,0.0032138840125873,0.0677634765408933,-0.0474245989978313,0.0078853350132703,-0.0296995360404253,-0.0217998623847961,standing,2026-03-04_13-57-59
1772632679983847000,0.606846923828125,0.0046567945635877,0.1015612628549337,-0.0501776970982551,0.003878875169903,-0.0130563760176301,-0.0230331718921661,standing,2026-03-04_13-57-59
1772632679993795800,0.6167958984375,0.0113830158123746,0.0901193929947912,-0.0196837746351957,0.0003352728672325,0.0015398769173771,-0.0187177881598472,standing,2026-03-04_13-57-59
1772632680003744000,0.626743896484375,0.0325190716151148,0.0930330884844064,0.0286760593861341,-0.0052219862118363,0.0043752072378993,-0.0162748284637928,standing,2026-03-04_13-57-59
1772632680013693000,0.63669287109375,0.0902990786769427,0.1003138931423425,0.0392740257680416,-0.0083578582853078,0.0014635736588388,-0.0099354404956102,standing,2026-03-04_13-57-59
1772632680023641900,0.646641845703125,0.0541446827667765,0.106144791252911,-0.0134562784224748,-0.0025517051108181,0.0048887990415096,-0.0049374159425497,standing,2026-03-04_13-57-59
1772632680033591000,0.656591064453125,0.0460549180798232,0.1075461824834346,-0.0372691156864166,0.0060694799758493,0.0046624299138784,-0.0059675266966223,standing,2026-03-04_13-57-59
1772632680043540000,0.6665400390625,0.055992447791621,0.0941926337830722,-0.0079389763057231,0.0127591751515865,0.0022614584304392,-0.0051984190940856,standing,2026-03-04_13-57-59
1772632680053488000,0.676488037109375,0.0148985679189674,0.0575873888328671,0.0551508093357086,0.0152058219537138,-0.0011516490485519,-0.0023251343518495,standing,2026-03-04_13-57-59
1772632680063437000,0.68643701171875,0.0235806907421909,0.0286672915577888,0.0965659387856721,0.0116603430360555,-0.006224169395864,0.0018911976367235,standing,2026-03-04_13-57-59
1772632680073386000,0.696385986328125,0.0322813356027938,-0.0030753157921135,0.1741413458973169,0.002297734376043,-0.0049535753205418,0.000637381337583,standing,2026-03-04_13-57-59
1772632680083335000,0.7063349609375,0.0037293227214366,-0.0553607988245785,0.228582545658946,-0.0143282655626535,-0.0135615784674882,-0.0049377083778381,standing,2026-03-04_13-57-59
1772632680093283800,0.716283935546875,-0.0300750029312446,-0.0664018327988684,0.2084784997850656,-0.029777530580759,-0.0301847625523805,-0.015112048946321,standing,2026-03-04_13-57-59
1772632680103232000,0.72623193359375,-0.0213350124409422,-0.0817716897577047,0.1302607031166553,-0.0399235375225544,-0.0466043502092361,-0.0183877516537904,standing,2026-03-04_13-57-59
1772632680113181000,0.736180908203125,-0.0245637104301713,-0.0250591840632259,-0.033301381099224,-0.0380654484033584,-0.0508622117340564,-0.0167602933943271,standing,2026-03-04_13-57-59
1772632680123129900,0.7461298828125,-0.02035761877615,0.0393643343999981,-0.2061158623069524,-0.0281427092850208,-0.0369566492736339,-0.0132330060005187,standing,2026-03-04_13-57-59
1772632680133079000,0.7560791015625,-0.0017674480639398,0.0730858406074345,-0.2404296353191137,-0.0159377064555883,-0.0235300567001104,-0.0067745745182037,standing,2026-03-04_13-57-59
1772632680143028000,0.766028076171875,0.0104008911735378,0.105072485846281,-0.238640413814783,-0.0001054196618497,0.0023380238562822,0.0083921533077955,standing,2026-03-04_13-57-59
1772632680152976100,0.77597607421875,-0.0202780872665345,0.0916623846530914,-0.2082896992146968,0.0175606589764356,0.0213130470365285,0.0115999318659305,standing,2026-03-04_13-57-59
1772632680162925000,0.785925048828125,-0.0274488739450462,0.0413604766532778,-0.1024865610063076,0.0313352011144161,0.0168466567993164,0.0098008261993527,standing,2026-03-04_13-57-59
1772632680172874000,0.7958740234375,-0.0118397831365466,-0.0010045008674263,0.0055751697838306,0.0368639230728149,0.0072209285572171,0.0061741331592202,standing,2026-03-04_13-57-59
1772632680182823000,0.805822998046875,-0.0558873982482589,-0.0156939743466675,0.0911585267841815,0.036330696195364,-0.004860499408096,-0.0041728066280484,standing,2026-03-04_13-57-59
1772632680192771800,0.815771728515625,-0.0510294368230737,-0.0375683908939361,0.1300228027075529,0.0274703614413738,-0.0204732827842235,-0.0124118281528353,standing,2026-03-04_13-57-59
1772632680202720800,0.825720703125,-0.0076056344318203,-0.0420711091406643,0.1434866799145936,0.0169610194861888,-0.0295137800276279,-0.0139491166919469,standing,2026-03-04_13-57-59
1772632680212669000,0.8356689453125,0.0202788361852057,-0.0148607383929193,0.0869184049963951,0.0099297408014535,-0.0189128015190362,-0.013314751908183,standing,2026-03-04_13-57-59
1772632680222617900,0.845617919921875,-0.0052494449608027,0.0279066824488341,0.0599526566594839,0.000666756182909,-0.0036389078013598,-0.0102937743067741,standing,2026-03-04_13-57-59
1772632680232566800,0.85556689453125,0.0164850516591221,0.0192488903492689,0.078328271305561,-0.0137545280158519,-0.0027725815307348,-0.0103691415861248,standing,2026-03-04_13-57-59
1772632680242516000,0.865515869140625,0.0276118824870325,-0.0017079729616641,0.0395966818511486,-0.0230471640825271,-0.0023894852492958,-0.010310748592019,standing,2026-03-04_13-57-59
1772632680252465000,0.87546484375,-0.0023758805521763,0.0483648024573922,-0.0486199462622404,-0.0235997699201107,0.0116035621613264,-0.0054747140966355,standing,2026-03-04_13-57-59
1772632680262413000,0.8854130859375,0.0238626312224194,0.0808985601849854,-0.113036012071371,-0.0098928855732083,0.0272786580026149,-0.0023678170982748,standing,2026-03-04_13-57-59
1772632680272362000,0.895362060546875,0.0487049759308807,0.07909940180853,-0.1257803428322076,0.0069830324500799,0.0305937621742486,0.0004692482762038,standing,2026-03-04_13-57-59
1772632680282311000,0.905310791015625,0.0355027270684018,0.0578930937811732,-0.1162467908114194,0.0300813466310501,0.0205832086503505,0.0023888433352112,standing,2026-03-04_13-57-59
1772632680292259800,0.915259765625,0.0023404804452322,0.0515656443253159,-0.0790460641860962,0.048469141125679,0.0115265967324376,-0.001208021887578,standing,2026-03-04_13-57-59
1772632680302209000,0.925208984375,0.0110585878972895,0.031062516131252,0.0004687865555286,0.0554527901113033,-0.008494384586811,-0.0087560806423425,standing,2026-03-04_13-57-59
1772632680312157000,0.935156982421875,0.0614594444932416,-0.010513941360265,0.0607312398165464,0.0472111031413078,-0.0262462180107831,-0.0073248976841568,standing,2026-03-04_13-57-59
1772632680322105900,0.94510595703125,0.0738490435322746,0.0140998370230197,0.0710375297755002,0.0340602807700634,-0.0196667425334453,-0.0013119688956066,standing,2026-03-04_13-57-59
1772632680332054800,0.9550546875,0.0537199362823739,0.0523778374910354,0.0588701221197843,0.0137337055057287,-0.0056238938122987,0.0029040812514722,standing,2026-03-04_13-57-59
1772632680342003700,0.965003662109375,0.0501085956511087,0.0398142701245844,0.043855508339405,-0.0046439464204013,0.0105600031092762,0.0102622834965586,standing,2026-03-04_13-57-59
1772632680351953200,0.974953125,0.0411465781742706,0.0424706298522651,-0.0116845925748348,-0.0109010431915521,0.0306705981492996,0.0186656229197978,standing,2026-03-04_13-57-59
1772632680361902000,0.984902099609375,-0.0152437463611364,0.0694138740964233,-0.0603752659857273,-0.0057513350620865,0.0403551831841468,0.0244568902999162,standing,2026-03-04_13-57-59
1772632680371850000,0.99485009765625,-0.0104032109947875,0.0570743247441947,-0.0318622882068157,0.0082070911303162,0.0280303377658128,0.0240073483437299,standing,2026-03-04_13-57-59
1772632680381799000,1.004798828125,-0.0257510570512153,-0.0067981357075273,-0.0068178633213043,0.0209114253520965,0.0007740820292383,0.0183956325054168,standing,2026-03-04_13-57-59
1772632680391747800,1.014747802734375,-0.0407635154071263,-0.0426211442388594,-0.0388408950477838,0.0347401537001132,-0.0088013131171464,0.016347661614418,standing,2026-03-04_13-57-59
1772632680401697000,1.024697021484375,-0.0832701664208434,-0.026847528784722,-0.0170645320475101,0.0486028008162975,-0.0037255950737744,0.0111356722190976,standing,2026-03-04_13-57-59
1772632680411646000,1.03464599609375,-0.0768999372691847,-0.0395760774545371,0.0591144522696733,0.0440685003995895,-0.0098841544240713,0.005390434525907,standing,2026-03-04_13-57-59
1772632680421593900,1.04459375,-0.0641884127994067,-0.0889214153818786,0.1668687245458364,0.0313517674803733,-0.0180424824357032,-0.0011442888062447,standing,2026-03-04_13-57-59
1772632680431542800,1.054542724609375,-0.0685874149433337,-0.0935918914109468,0.1236024142712354,0.0141615960747003,-0.0085493773221969,-0.0021022278815507,standing,2026-03-04_13-57-59
1772632680441492000,1.064491943359375,-0.102022669821605,-0.0410927656278014,0.0323480258971452,0.0050871409475803,0.0127351386472582,-0.000710726249963,standing,2026-03-04_13-57-59
1772632680451441200,1.074441162109375,-0.1287581348002888,-0.0145839672781527,0.0453425320267677,-0.0013334741815924,0.006180565804243,-0.0107234129682183,standing,2026-03-04_13-57-59
1772632680461390000,1.08439013671875,-0.0761337021370418,-0.0486123474776744,-0.0074275196522474,-0.0025412016548216,-0.0003074284177273,-0.0173190124332904,standing,2026-03-04_13-57-59
1772632680471338000,1.094337890625,-0.0262601573508232,-0.013677812218666,-0.0629646979570388,0.0042274883016943,0.0114229973405599,-0.0097567001357674,standing,2026-03-04_13-57-59
1772632680481287000,1.104286865234375,-0.0481808241926133,0.0320588336922228,-0.0585229161173105,0.0154095934703946,0.0211884099990129,-0.0073948549106717,standing,2026-03-04_13-57-59
1772632680491236000,1.114236083984375,-0.0520558024624362,-0.0017504969291388,-0.0007628010660409,0.0175782050937414,-0.0008500479161739,-0.0138668688014149,standing,2026-03-04_13-57-59
1772632680501185000,1.12418505859375,-0.0179978673748672,-0.0423012646347284,0.0020651158362627,0.0223448649048805,-0.0125808697193861,-0.015685498714447,standing,2026-03-04_13-57-59
1772632680511134000,1.134134033203125,-0.0375659614748321,0.0402134985752403,-0.0794967305630445,0.032889649271965,0.0063680531457066,-0.0099732838571071,standing,2026-03-04_13-57-59
1772632680521083000,1.144082763671875,-0.0508873797375708,0.079378364880383,-0.0416881011724472,0.0440332069993019,0.0180590637028217,-0.0103436456993222,standing,2026-03-04_13-57-59
1772632680531030800,1.15403076171875,-0.0121329208642244,0.0327015155099332,0.0753448715806007,0.0425974950194358,0.0033735944889485,-0.0146435862407088,standing,2026-03-04_13-57-59
1772632680540980000,1.16397998046875,0.0247577716975472,0.0351598684474825,0.1785784515619277,0.0309420004487037,-0.0099936109036207,-0.0109563563019037,standing,2026-03-04_13-57-59
1772632680550929000,1.173928955078125,0.0267233361494727,0.0684467826299369,0.1964630678206682,0.0160045977681875,-0.0151785193011164,-0.0069355154410004,standing,2026-03-04_13-57-59
1772632680560878000,1.183878173828125,-0.0031674875875934,0.0848684867292642,0.2387684241086244,-0.005406582262367,-0.0172186326235532,-0.009565932676196,standing,2026-03-04_13-57-59
1772632680570827000,1.193826904296875,-0.0079691522482782,0.0603729278981685,0.2109650559037923,-0.0305564105510711,-0.019526794552803,-0.0129646584391593,standing,2026-03-04_13-57-59
1772632680580775000,1.20377490234375,0.0008469174192287,0.0578005931921303,0.1119412025719881,-0.0426470935344696,-0.0069647971540689,-0.0086578652262687,standing,2026-03-04_13-57-59
1772632680590724000,1.21372412109375,-0.0075795866751112,0.1025732163764536,-0.0182686471402645,-0.0433898493647575,0.0124041074886918,-0.0028191509190946,standing,2026-03-04_13-57-59
1772632680600673000,1.223673095703125,0.0233643263114616,0.1473839796140789,-0.0749900667935609,-0.0282951220870018,0.0238728765398263,0.0065137017518281,standing,2026-03-04_13-57-59
1772632680610622000,1.2336220703125,0.0722419188628904,0.1434247205942869,-0.0869078836023807,-0.0029420931823551,0.0205681603401899,0.0147186340764164,standing,2026-03-04_13-57-59
1772632680620571000,1.24357080078125,0.071138652062416,0.0837291074357926,-0.0347071562439203,0.0201277211308479,0.0071446280926465,0.0176853947341442,standing,2026-03-04_13-57-59
1772632680630519000,1.25351904296875,0.0064614693653769,0.0112730891644954,-0.0079395608276128,0.0368403866887092,-0.0124948536977171,0.0121422912925481,standing,2026-03-04_13-57-59
1772632680640468200,1.26346826171875,-0.0156329100755043,-0.0524636160783469,0.0858943226456642,0.0382696986198425,-0.039696242660284,0.0025785309262573,standing,2026-03-04_13-57-59
1772632680650417200,1.273417236328125,-0.0324828312579542,-0.0942626302793622,0.1478559810400009,0.0253437794744968,-0.0659728571772575,-0.0086040822789072,standing,2026-03-04_13-57-59
1772632680660366000,1.283365966796875,-0.0783804216179065,-0.1260848787367343,0.1159387477755546,-0.0044811107218265,-0.0783702731132507,-0.0195989720523357,standing,2026-03-04_13-57-59
1772632680670315300,1.293315185546875,-0.0900074570529162,-0.0858216958008706,-0.0301548997670412,-0.0283318497240543,-0.0524851456284523,-0.0167856086045503,standing,2026-03-04_13-57-59
1772632680680263200,1.30326318359375,-0.0896216634725686,-0.0189472770541906,-0.1877028382599353,-0.0380881652235984,0.0037895811256021,-0.0097802467644214,standing,2026-03-04_13-57-59
1772632680690212400,1.31321240234375,-0.0841045805515255,0.0260702608019113,-0.2659457693696022,-0.0375701822340488,0.0482979267835617,-0.0063082836568355,standing,2026-03-04_13-57-59
1772632680700161300,1.323161376953125,-0.039768732216116,0.0124976625233888,-0.2565413966864347,-0.0225360803306102,0.0700235962867736,0.0037125465460121,standing,2026-03-04_13-57-59
1772632680710110200,1.333110107421875,-0.0164405731965787,-0.0121314595595002,-0.164284553271532,0.0009039980359375,0.0647571980953216,0.009620769880712,standing,2026-03-04_13-57-59
1772632680720059100,1.34305908203125,-0.0579170226460322,-0.0453013232335448,-0.0392015450537204,0.0269457101821899,0.0285548456013202,0.0048165237531065,standing,2026-03-04_13-57-59
1772632680730008000,1.353008056640625,-0.103990133969672,-0.0961461059384048,0.0396048651576042,0.0495420955121517,-0.0107643296942114,-0.0104013113304972,standing,2026-03-04_13-57-59
1772632680739956200,1.362956298828125,-0.1349972849181853,-0.1094089076153933,0.0707207189112901,0.0666496902704238,-0.0393122173845768,-0.0265748426318168,standing,2026-03-04_13-57-59
1772632680749905200,1.3729052734375,-0.1237013263347558,-0.0760094729691743,0.1017120695024728,0.0677088275551796,-0.0494822971522808,-0.0393582805991172,standing,2026-03-04_13-57-59
1772632680759854000,1.38285400390625,-0.0663681862575933,-0.0507668951630592,0.1271282503098249,0.0529519282281398,-0.0416331589221954,-0.0388078317046165,standing,2026-03-04_13-57-59
1772632680769803000,1.392802978515625,0.0037893458129838,-0.0093462127551436,0.1369593239724636,0.0308098718523979,-0.0214719660580158,-0.0321137085556983,standing,2026-03-04_13-57-59
1772632680779752200,1.402752197265625,0.0165612039015628,0.0234432732991874,0.1473351720362901,0.0023250607773661,-0.0029419581405818,-0.0235020294785499,standing,2026-03-04_13-57-59
1772632680789700000,1.4127001953125,0.0105417974815703,0.0353916313767433,0.1504980199813842,-0.0225789584219455,0.0107440268620848,-0.0185014121234416,standing,2026-03-04_13-57-59
1772632680799649300,1.422649169921875,-0.0139551130563952,0.0050686815664172,0.1146095449984073,-0.0372279211878776,0.0184345692396163,-0.0213926509022712,standing,2026-03-04_13-57-59
1772632680809598200,1.43259814453125,-0.035418208856415,0.0143128952518105,0.0186988552510738,-0.0370034128427505,0.0226159989833831,-0.0268729049712419,standing,2026-03-04_13-57-59
1772632680819547100,1.442547119140625,0.0007272548286244,0.051980508736521,-0.0725648854732513,-0.0211589708924293,0.0299116000533103,-0.0294067747890949,standing,2026-03-04_13-57-59
1772632680829496000,1.45249609375,0.0806623768089339,0.0837108411267399,-0.0796270789444446,0.001670709811151,0.0264913011342287,-0.0231589991599321,standing,2026-03-04_13-57-59
1772632680839444200,1.4624443359375,0.1220055004686117,0.0869442700900137,-0.024584406158328,0.017147509381175,0.0030195272993296,-0.0168491043150424,standing,2026-03-04_13-57-59
1772632680849393200,1.47239306640625,0.1480836157834157,0.0734556968331336,0.0492915619134902,0.026630226522684,-0.0154825178906321,-0.0109613873064517,standing,2026-03-04_13-57-59
1772632680859342000,1.482342041015625,0.1339489449090324,0.0853521785929799,0.0838958423048257,0.0259831734001636,-0.0284609012305736,-0.0054570827633142,standing,2026-03-04_13-57-59
1772632680869291000,1.492291015625,0.1200413607887923,0.1014005193352699,0.1014192240357399,0.0166980624198913,-0.0364543795585632,-0.0015899062855169,standing,2026-03-04_13-57-59
1772632680879240000,1.502239990234375,0.0937246509451419,0.0987552655234932,0.1236374855846166,-0.0001432276330888,-0.0342885628342628,0.0032098121009767,standing,2026-03-04_13-57-59
1772632680889189000,1.512189208984375,0.0667685837520286,0.0926494959942996,0.0698439360767602,-0.0206527635455131,-0.0254750959575176,0.0070218606851994,standing,2026-03-04_13-57-59
1772632680899137300,1.52213720703125,0.0518153813026845,0.1021146589539945,-0.003875380128622,-0.0358159579336643,0.0019970072899013,0.0122861731797456,standing,2026-03-04_13-57-59
1772632680909086200,1.532086181640625,0.0357043871203437,0.0956109761483967,-0.0584364068776369,-0.0445620454847812,0.0260946191847324,0.0224538557231426,standing,2026-03-04_13-57-59
1772632680919035100,1.54203515625,0.019205964522995,0.0646475364774465,-0.0875245541960001,-0.0422580875456333,0.0343066155910491,0.0264496076852083,standing,2026-03-04_13-57-59
1772632680928984000,1.551984130859375,0.0145632350173778,0.0204378078728914,-0.1390776313006878,-0.0266631450504064,0.0297592673450708,0.0294882748275995,standing,2026-03-04_13-57-59
1772632680938933200,1.561933349609375,-0.0275530101729556,0.0082572484746575,-0.1794558189183473,0.0014040363021194,0.0248836781829595,0.0292610637843608,standing,2026-03-04_13-57-59
1772632680948881200,1.571881103515625,-0.0674256411549635,-0.0287552621021866,-0.1647410648673772,0.0274950247257947,0.0154196042567491,0.0189216062426567,standing,2026-03-04_13-57-59
1772632680958830000,1.581830078125,-0.0751122684011235,-0.0752051708489656,-0.0941477717280387,0.0477421693503856,0.0018994018901139,0.0096117984503507,standing,2026-03-04_13-57-59
1772632680968779000,1.591779052734375,-0.0737516293060965,-0.0874988352328538,0.0198176301479339,0.049950998276472,-0.007355349138379,0.0002214922569692,standing,2026-03-04_13-57-59
1772632680978728000,1.60172802734375,-0.0651284883948043,-0.0933402547374367,0.0886754777967929,0.0390428490936756,-0.0093294186517596,-0.0049463585019111,standing,2026-03-04_13-57-59
1772632680988677400,1.611677490234375,-0.0446402655089274,-0.0825520264804363,0.1323667354851961,0.0193945821374654,-0.0025737779214978,-0.0073003266006708,standing,2026-03-04_13-57-59
1772632680998625000,1.621625,-0.0170404205195605,-0.0394873762577772,0.1133598371982574,-6.29727728664e-05,0.0071289185434579,-0.0044472245499491,standing,2026-03-04_13-57-59
1772632681008574200,1.63157421875,-0.0032961372022517,-0.0083414196267724,0.0997165117710828,-0.0176283847540617,0.0221030749380588,0.0004508611746132,standing,2026-03-04_13-57-59
1772632681018523100,1.641523193359375,-0.0102363299952819,0.0228862239383161,0.0786380679070949,-0.0245747528970241,0.030745031312108,0.0041355690918862,standing,2026-03-04_13-57-59
1772632681028472000,1.65147216796875,-0.0203088111983612,0.0078396075844764,0.0329231954365968,-0.0255627855658531,0.0286368746310472,0.0011485675349831,standing,2026-03-04_13-57-59
1772632681038421200,1.661421142578125,-0.0293636032588779,0.0067963821418583,-0.0271206466376781,-0.0123685244470834,0.024488067254424,-0.0004562402609735,standing,2026-03-04_13-57-59
1772632681048369200,1.671369140625,-0.0468630926575511,0.0240934077709913,-0.047747839602828,0.0051974197849631,0.0201947856694459,-0.0013883466599509,standing,2026-03-04_13-57-59
1772632681058318000,1.681318115234375,-0.0381366557685658,0.0233732768028974,-0.0234340670794248,0.0180700980126857,-0.0012230223510414,-0.0046287267468869,standing,2026-03-04_13-57-59
1772632681068267000,1.69126708984375,-0.0157409187609329,0.003248772662878,0.0099111531615257,0.0224600527435541,-0.0208571776747703,-0.006256983615458,standing,2026-03-04_13-57-59
1772632681078216200,1.70121630859375,-0.018616090604756,-0.0040980829685926,0.0172252755671739,0.0185752175748348,-0.0215260256081819,-0.0094409734010696,standing,2026-03-04_13-57-59
1772632681088165000,1.7111650390625,-0.0265825211729854,0.0229762403093278,0.0150502696156501,0.0128736551851034,-0.0067073991522192,-0.00611521769315,standing,2026-03-04_13-57-59
1772632681098113000,1.721113037109375,-0.0048769583866,0.0423464189507067,-0.0052981064081192,0.0031231297180056,0.0128965312615036,-0.0020200877916067,standing,2026-03-04_13-57-59
1772632681108062000,1.73106201171875,0.0022349742441438,0.0534387447208166,0.008256371691823,-4.76301647722e-05,0.023963563144207,-0.0004051469732075,standing,2026-03-04_13-57-59
1772632681118011100,1.74101123046875,-0.0087270762098021,0.0773038966938853,0.0009147767573595,-0.0019035628065466,0.0297572631388902,-0.0004954591859132,standing,2026-03-04_13-57-59
1772632681127960300,1.750960205078125,0.0146895465444773,0.0745356010243296,-0.0043587797313928,0.0023843930102884,0.025134015828371,0.004807960242033,standing,2026-03-04_13-57-59
1772632681137909200,1.7609091796875,-0.0045578277011401,0.0554636746771633,0.0282598798006772,0.0101319439709186,0.0149446297436952,0.0051736403256654,standing,2026-03-04_13-57-59
1772632681147858200,1.770858154296875,-0.0384180482595227,0.0368681336700916,0.0617208353757858,0.0143823493272066,-0.0025744424201548,-0.0017077014781534,standing,2026-03-04_13-57-59
1772632681157806000,1.78080615234375,-0.0112026360104791,-0.0019699848987162,0.0619102204680442,0.01818772777915,-0.0033044121228158,-0.0041008028201758,standing,2026-03-04_13-57-59
1772632681167755000,1.790755126953125,0.0134451907728798,0.0206613874956965,0.0527951861202716,0.017921146005392,0.0041718794964253,0.0011331078130751,standing,2026-03-04_13-57-59
1772632681177704200,1.8007041015625,0.0225238386330194,0.0190711956948041,0.1123719952046871,0.01530047878623,0.0085640996694564,0.0028394239488989,standing,2026-03-04_13-57-59
1772632681187653000,1.810653076171875,0.0103933654542081,-0.0290985225819051,0.1952554455965757,0.0029428792186081,0.0004944552201777,0.0023880179505795,standing,2026-03-04_13-57-59
1772632681197602000,1.82060205078125,-0.0057653403273783,-0.0936012437611818,0.2164788508892059,-0.0155211519449949,-0.0228032767772674,-0.0042141540907323,standing,2026-03-04_13-57-59
1772632681207550000,1.830550048828125,-0.0699523831536062,-0.0814589705467224,0.1904851624548435,-0.0342868492007255,-0.0444925911724567,-0.0157544296234846,standing,2026-03-04_13-57-59
1772632681217499100,1.8404990234375,-0.090466251937393,-0.0327668358311057,0.0581149198383092,-0.051542293280363,-0.0417830981314182,-0.0209737662225961,standing,2026-03-04_13-57-59
1772632681227448300,1.8504482421875,-0.0758433226220309,0.0115020756147801,-0.1008785412877798,-0.0574081726372242,-0.0118843214586377,-0.0189143437892198,standing,2026-03-04_13-57-59
1772632681237397200,1.860397216796875,-0.0665366381596773,0.0621155337817966,-0.2033814689069986,-0.0512897707521915,0.0169762223958969,-0.0136021915823221,standing,2026-03-04_13-57-59
1772632681247346200,1.87034619140625,-0.0577590190727263,0.084043580212444,-0.3300707432776689,-0.0306215099990367,0.0300238467752933,-0.0073168645612895,standing,2026-03-04_13-57-59
1772632681257294000,1.880294189453125,-0.0444331986295059,0.1050834456317126,-0.4255997402310371,0.0121511053293943,0.0499564111232757,0.0011583508457988,standing,2026-03-04_13-57-59
1772632681267243300,1.8902431640625,-0.0494017260233871,0.1260179509803652,-0.3710872287988662,0.0582248568534851,0.0532968156039714,0.0039599961601197,standing,2026-03-04_13-57-59
1772632681277192200,1.900192138671875,-0.0260126853957772,0.0576107697084546,-0.1675456008940935,0.0879471972584724,0.0184157956391572,0.0014879247173666,standing,2026-03-04_13-57-59
1772632681287141000,1.91014111328125,-0.0316633498349227,-0.0371212316483259,0.026951135289669,0.0947787389159202,-0.0207212213426828,-0.0062221931293606,standing,2026-03-04_13-57-59
1772632681297090000,1.920090087890625,-0.048020245069731,-0.0888749458916485,0.138086866697669,0.077003575861454,-0.0303370989859104,-0.0123047847300767,standing,2026-03-04_13-57-59
1772632681307038000,1.930037841796875,-0.0705595004675909,-0.0601003945671021,0.1992711109787225,0.0515378937125206,-0.0026852311566472,-0.0163602456450462,standing,2026-03-04_13-57-59
1772632681316987100,1.939987060546875,-0.0724315231508575,-0.0595614653848111,0.2787462142318487,0.0145553965121507,0.0164557099342346,-0.0216651894152164,standing,2026-03-04_13-57-59
1772632681326936300,1.949936279296875,-0.0399859551633708,-0.0912464973285794,0.345744113227725,-0.0300387013703584,0.0155992377549409,-0.0223576109856367,standing,2026-03-04_13-57-59
1772632681336885200,1.95988525390625,-0.0272684941431507,-0.0784071817606687,0.2506646136075258,-0.0548225790262222,0.021191207692027,-0.0217433497309684,standing,2026-03-04_13-57-59
1772632681346834200,1.969834228515625,-0.0606349763678386,-0.0156060038022696,0.1510112302005291,-0.0569419227540493,0.0315469093620777,-0.0227199308574199,standing,2026-03-04_13-57-59
1772632681356783000,1.979783203125,-0.0541756806932389,0.0198614692896604,0.0929027401030063,-0.0509605631232261,0.0088539794087409,-0.033163234591484,standing,2026-03-04_13-57-59
1772632681366731300,1.989731201171875,-0.0217880717043764,-0.0060645607359707,0.01374503223598,-0.0378887020051479,-0.015000220388174,-0.0360972397029399,standing,2026-03-04_13-57-59
1772632681376680200,1.99968017578125,0.0166866569121368,0.0512314439348876,-0.1558504869252443,-0.0091027952730655,0.0001321313902735,-0.0326869487762451,standing,2026-03-04_13-57-59
1772632681386629000,2.009629150390625,0.0301675765855237,0.1273161740973591,-0.1939776807457208,0.0180619806051254,0.0166807472705841,-0.0259712543338537,standing,2026-03-04_13-57-59
1772632681396578000,2.019578125,0.0548735815632157,0.0959073287464678,-0.0868213743627071,0.0307657569646835,-0.0080110188573598,-0.0253159087151289,standing,2026-03-04_13-57-59
1772632681406527000,2.02952685546875,0.1153364892997778,0.0494622423052787,-0.0379068290680646,0.0297729298472404,-0.034307338297367,-0.0212082490324974,standing,2026-03-04_13-57-59
1772632681416475100,2.03947509765625,0.1377099596766755,0.0947213338322937,-0.1044932246536016,0.0311508867889642,-0.0193277243524789,-0.0107251098379492,standing,2026-03-04_13-57-59
1772632681426424300,2.04942431640625,0.0430201169611886,0.1131039627410471,-0.1286065061688423,0.0235246587544679,0.0284776147454977,-0.0159118827432394,standing,2026-03-04_13-57-59
1772632681436373200,2.059373291015625,0.0099135460480116,0.1266163552649319,-0.0288718742191791,-0.0072067752480506,0.0495128631591796,-0.0132078193128108,standing,2026-03-04_13-57-59
1772632681446322200,2.069322265625,0.111254955607187,0.0910647110208869,0.032831425499916,-0.0272758230566978,0.0461588762700557,0.0052936938591301,standing,2026-03-04_13-57-59
1772632681456271000,2.07927099609375,0.1383355076964944,0.059789136660844,-0.0642062224507331,-0.0251250565052032,0.0416762456297874,0.0164981447160244,standing,2026-03-04_13-57-59
1772632681466219300,2.08921923828125,0.0898066737838089,0.117045832234621,-0.113103232088685,-0.0035574454814195,0.0411705113947391,0.0225613638758659,standing,2026-03-04_13-57-59
1772632681476168200,2.099168212890625,0.0497768064134754,0.0912896058179438,-0.0956137526273727,0.0185066945850849,0.028701189905405,0.0244516469538211,standing,2026-03-04_13-57-59
1772632681486117000,2.1091171875,0.0340515418794006,0.0267405612789094,-0.0398398429572582,0.0373964942991733,0.0135848196223378,0.027331855148077,standing,2026-03-04_13-57-59
1772632681496066000,2.119066162109375,0.0087181622509844,-0.000207943662256,0.0356026437789201,0.049822561442852,-0.000809165649116,0.0258622113615274,standing,2026-03-04_13-57-59
1772632681506015000,2.129014892578125,-0.03158029292766,-0.0075346332885324,0.1367109021693468,0.0500063225626945,-0.0232380423694849,0.0171371642500162,standing,2026-03-04_13-57-59
1772632681515963100,2.138963134765625,-0.0199859541858546,-0.0348528483249247,0.1819318536430597,0.0450339652597904,-0.0348001532256603,0.0106976963579654,standing,2026-03-04_13-57-59
1772632681525912000,2.148912109375,-0.02063972365316,-0.0261684604793786,0.1881611034214496,0.0253790374845266,-0.0238974392414093,0.0110913123935461,standing,2026-03-04_13-57-59
1772632681535861200,2.158861328125,-0.0546768899473361,-0.0045668695241212,0.1586456706017255,0.0028243707492947,-0.0061457427218556,0.0099165895953774,standing,2026-03-04_13-57-59
1772632681545810200,2.16881005859375,-0.0786161118036136,-0.0137806880712509,0.1355903737068176,-0.0156726147979497,0.0113427033647894,0.0032128805760294,standing,2026-03-04_13-57-59
1772632681555759000,2.178759033203125,-0.0558116295983083,0.0022151918314397,0.1099403841435909,-0.030463732779026,0.0161385238170623,0.0047163339331746,standing,2026-03-04_13-57-59
1772632681565708300,2.188708251953125,-0.0229459913015365,0.0195491884700953,0.0122965869933366,-0.0322440564632415,0.0155297257006168,0.0087166680023074,standing,2026-03-04_13-57-59
1772632681575656200,2.19865625,0.0014368278700858,0.0582527208738029,-0.0641688130497932,-0.0232650358229875,0.0126774832606315,0.0142620848491787,standing,2026-03-04_13-57-59
1772632681585605000,2.208605224609375,-0.0127449883479624,0.0640666678495705,-0.1152700547337532,-0.0061976346187293,0.0046256808564066,0.0158322863280773,standing,2026-03-04_13-57-59
1772632681595554000,2.218553955078125,-0.028054621285852,0.0456432685390114,-0.1087356845289468,0.0106035666540265,0.0009226878173649,0.0118630807846784,standing,2026-03-04_13-57-59
1772632681605503000,2.2285029296875,-0.0331573147197254,0.0342846930481493,-0.0799894825160503,0.0215931013226509,-0.0006088963709771,0.0089250812307,standing,2026-03-04_13-57-59
1772632681615452200,2.2384521484375,-0.0124626825415529,0.0207972888350486,-0.0263964240163564,0.0282656848430633,-0.0054057799279689,0.0101928040385246,standing,2026-03-04_13-57-59
1772632681625400000,2.248400146484375,0.0246174681777134,0.0368555664494633,0.0098217213124036,0.0286507774144411,-0.016761764883995,0.0124117489904165,standing,2026-03-04_13-57-59
1772632681635349000,2.258348876953125,0.0685454754977487,0.0658139499083161,-0.0180249015122652,0.0320216342806816,-0.0155404405668377,0.0229121446609497,standing,2026-03-04_13-57-59
1772632681645298400,2.26829833984375,0.0772764972303062,0.1157778581254184,-0.0735047966718673,0.0394023172557354,-0.0060686413198709,0.032674491405487,standing,2026-03-04_13-57-59
1772632681655247400,2.278247314453125,0.0686260664532892,0.1080624614425003,-0.0729781424492597,0.0423716306686401,-0.0013625726569443,0.0352597348392009,standing,2026-03-04_13-57-59
1772632681665196500,2.288196533203125,0.0415977012089453,0.104176267658919,-0.0268377380430698,0.0415923930704593,0.0023908864241093,0.0329851284623146,standing,2026-03-04_13-57-59
1772632681675144400,2.29814453125,0.0287959959713742,0.0988582875065505,0.0186310507118701,0.0316859036684036,0.0122704170644283,0.0347260124981403,standing,2026-03-04_13-57-59
1772632681685093600,2.30809375,0.0174174554047174,0.0947438379250466,0.0724701929271221,0.0218652300536632,0.0182177890092134,0.0343049652874469,standing,2026-03-04_13-57-59
1772632681695042600,2.31804248046875,0.0204941411700099,0.0661537032566964,0.1479214474916458,0.005499386228621,0.0216623228043317,0.0355674028396606,standing,2026-03-04_13-57-59
1772632681704991500,2.327991455078125,0.0334497765939682,0.019503303501755,0.2227589540719985,-0.011915024369955,0.0166308134794235,0.0360094867646694,standing,2026-03-04_13-57-59
1772632681714940700,2.337940673828125,0.0143833484058268,-0.0226271346107125,0.2190314579814672,-0.0254695173352956,0.011531526222825,0.0366678908467292,standing,2026-03-04_13-57-59
1772632681724888600,2.347888671875,0.0164089907482266,-0.0392861545972526,0.2049731220126152,-0.0273624937981367,-0.0011224837508052,0.0355435013771057,standing,2026-03-04_13-57-59
1772632681734837500,2.35783740234375,-0.024002514617145,-0.0486228688716888,0.147106039455533,-0.024259727448225,-0.0225414913147687,0.0332608073949813,standing,2026-03-04_13-57-59
1772632681744786400,2.367786376953125,-0.0416493217983283,-0.0492494763374328,0.0881482390522956,-0.020014913752675,-0.042176179587841,0.0304048359394073,standing,2026-03-04_13-57-59
1772632681754735400,2.3777353515625,-0.1058059694862924,-0.0700493955209851,0.0028010288953781,-0.0145509289577603,-0.0549951717257499,0.0217065308243036,standing,2026-03-04_13-57-59
1772632681764684500,2.3876845703125,-0.1869492434136569,-0.0799665400318801,-0.0697241090893745,-0.0140659669414162,-0.0466176681220531,0.0094392132014036,standing,2026-03-04_13-57-59
1772632681774633500,2.397633544921875,-0.2183066873708739,-0.0682341627925634,-0.141499890011549,-0.018569640815258,-0.0274564884603023,-0.0007625587750226,standing,2026-03-04_13-57-59
1772632681784581400,2.407581298828125,-0.1865117105129174,-0.0370863064654171,-0.1926180828303098,-0.0194029435515403,0.0014294884167611,-0.00446781469509,standing,2026-03-04_13-57-59
1772632681794530600,2.417530517578125,-0.0907290675920434,0.0078122811861336,-0.2326180847853422,-0.0152826094999909,0.0316012352705001,0.0057527087628841,standing,2026-03-04_13-57-59
1772632681804479500,2.4274794921875,-0.0152781600873917,0.0399557244218885,-0.2293231348931789,0.0044538103975355,0.05321891233325,0.0175816714763641,standing,2026-03-04_13-57-59
1772632681814428700,2.4374287109375,-0.0149754142811521,0.0497829986922442,-0.1413607738018036,0.0217855107039213,0.0483894124627113,0.0214039143174886,standing,2026-03-04_13-57-59
1772632681824377600,2.447377685546875,-0.0123556967694312,-0.0026619126856327,0.0343687180697917,0.0330091379582881,0.0170567911118268,0.01607546210289,standing,2026-03-04_13-57-59
1772632681834325500,2.457325439453125,-0.0108242676847614,-0.0436072326667606,0.1840343788802623,0.0334750600159168,-0.0256375502794981,0.0071183927357196,standing,2026-03-04_13-57-59
1772632681844274400,2.4672744140625,-0.0344968014288693,-0.0660788844548165,0.2120622034907341,0.0246144570410251,-0.0558002479374408,-0.0086136981844902,standing,2026-03-04_13-57-59
1772632681854223600,2.4772236328125,-0.0358022762705571,-0.0342768020026385,0.1214537118047475,0.0139363501220941,-0.0440233461558818,-0.0128143159672617,standing,2026-03-04_13-57-59
1772632681864172500,2.487172607421875,-0.0044476270586252,0.0404929000385105,0.065366498401761,0.0057452656328678,-0.0110084060579538,-0.0097178583964705,standing,2026-03-04_13-57-59
1772632681874121500,2.49712158203125,0.0310151333255693,0.0594980447597801,0.117525140184164,-0.0141487326472997,-0.0006793334614485,-0.0045738639310002,standing,2026-03-04_13-57-59
1772632681884069400,2.5070693359375,0.0713235984415747,0.0457277319520711,0.1180097088307142,-0.0380572602152824,-0.0127748791128396,0.0001774821430444,standing,2026-03-04_13-57-59
1772632681894018300,2.517018310546875,0.0479834019243717,0.0524357051581144,-0.0125058458298444,-0.043171502649784,0.0118846613913774,0.006337190978229,standing,2026-03-04_13-57-59
1772632681903967700,2.5269677734375,0.0117908294282853,0.1011519514016807,-0.111665308240056,-0.0393871515989303,0.0338645279407501,0.0103833312168717,standing,2026-03-04_13-57-59
1772632681913916700,2.536916748046875,0.0129852085783146,0.0846240104489028,-0.0938151787728071,-0.0296798236668109,0.0351198092103004,0.0104192709550261,standing,2026-03-04_13-57-59
1772632681923865600,2.546865478515625,0.0475116014278493,0.0237350958526134,-0.0878524709761142,-0.0130092352628707,0.0278608314692974,0.0126810939982533,standing,2026-03-04_13-57-59
1772632681933813500,2.5568134765625,0.0549127810624428,0.0199282509155571,-0.0750169548004865,0.0091583859175443,0.0232060216367244,0.0152370110154151,standing,2026-03-04_13-57-59
1772632681943762400,2.566762451171875,0.0457423632656224,0.0515615526720881,0.0156412212461233,0.0252563953399658,0.0044467146508395,0.0168676637113094,standing,2026-03-04_13-57-59
1772632681953711600,2.576711669921875,0.0683223525326699,-0.0088218966200947,0.1421481247872114,0.0232626609504222,-0.0450188368558883,0.0121995918452739,standing,2026-03-04_13-57-59
1772632681963660500,2.58666064453125,0.0644354098304174,-0.0436253528453409,0.1184475157260894,0.0167256630957126,-0.0643645748496055,0.0120651023462414,standing,2026-03-04_13-57-59
1772632681973609500,2.596609375,-0.0226917242795228,0.0184748372368514,-0.0302805719733238,0.0123346205800771,-0.0283750128000974,0.0158005636185407,standing,2026-03-04_13-57-59
1772632681983558400,2.606558349609375,-0.0633589214390143,0.0723135410606861,-0.0687263302236795,0.008057851344347,0.0192905105650424,0.0208557769656181,standing,2026-03-04_13-57-59
1772632681993506300,2.61650634765625,-0.0587412350431084,0.0371012117736041,0.0314683204531669,-0.0057065933942794,0.0289041232317686,0.0193358976393938,standing,2026-03-04_13-57-59
1772632682003455700,2.626455810546875,-0.0620772110654041,-0.0302634747080504,0.1183469779610633,-0.0244035795331001,0.0055133127607405,0.0102633070200681,standing,2026-03-04_13-57-59
1772632682013404700,2.63640478515625,-0.0467366715325973,-0.0447733538366854,0.0342594124764204,-0.0287898425012826,0.0130705628544092,0.0123514337465167,standing,2026-03-04_13-57-59
1772632682023353600,2.646353515625,-0.0553291981099173,0.0193101190172135,-0.033456279399991,-0.0200450848788023,0.0285840090364217,0.012228662148118,standing,2026-03-04_13-57-59
1772632682033302500,2.656302490234375,-0.0325886845189146,-0.0139507839411497,0.008491349491477,-0.0106508675962686,0.0136776333674788,0.0053852233104407,standing,2026-03-04_13-57-59
1772632682043250700,2.666250732421875,0.0129507583194412,-0.0448268375895917,-0.032753099566698,0.001961862668395,-0.00342891481705,0.0061301090754568,standing,2026-03-04_13-57-59
1772632682053199600,2.67619970703125,0.0072113926835358,0.0068181555822491,-0.0900952814668416,0.019775353372097,0.003772537689656,0.0123548414558172,standing,2026-03-04_13-57-59
1772632682063148500,2.6861484375,-0.0135552818175405,0.0442338401325047,-0.0113560912728309,0.0284591205418109,-0.0001178081147372,0.0130102448165416,standing,2026-03-04_13-57-59
1772632682073097500,2.696097412109375,-0.0292304418658837,-0.0266743641749024,0.127570148858428,0.0201546810567379,-0.0305855646729469,0.0034494993742555,standing,2026-03-04_13-57-59
1772632682083046400,2.70604638671875,-0.0351909577054902,-0.0644977527432143,0.1173994679778814,0.0057323332875967,-0.0352152027189731,7.10131134837e-05,standing,2026-03-04_13-57-59
1772632682092994600,2.71599462890625,-0.0695924638000316,-0.0097676530376076,0.0120703770220279,-0.0028239106759428,0.0009140295442193,-0.0012473968090489,standing,2026-03-04_13-57-59
1772632682102943500,2.725943603515625,-0.0724973549286834,0.0383664094038307,0.02349894900918,-0.0082016317173838,0.0288537852466106,-0.0014708359958603,standing,2026-03-04_13-57-59
1772632682112892700,2.735892578125,-0.0269077893382869,0.0081735157139599,0.1406985105007887,-0.0209298133850097,0.0109988963231444,-0.0036442794371396,standing,2026-03-04_13-57-59
1772632682122841600,2.745841552734375,0.0142202119996771,-0.0411091322407126,0.1372480777859688,-0.0293291546404361,-0.0247987806797027,-0.000245020724833,standing,2026-03-04_13-57-59
1772632682132790500,2.75579052734375,0.0160496193839237,0.0152620126701891,-0.0605535451620817,-0.018553402274847,-0.0154588166624307,0.0054421708919107,standing,2026-03-04_13-57-59
1772632682142739500,2.765739501953125,-0.0491694151048548,0.1007945162661373,-0.163659699371457,0.0024176593869924,0.0123222153633832,0.0050584091804921,standing,2026-03-04_13-57-59
1772632682152687600,2.7756875,-0.0531405289592221,0.0760271547563374,-0.1125537815123796,0.0170605964958667,0.0119123551994562,-0.0001730052754282,standing,2026-03-04_13-57-59
1772632682162636500,2.785636474609375,-0.0483414581144228,0.0070296063758432,-0.0248591314464807,0.0151982484385371,-0.0015557827427983,-0.0058117164298892,standing,2026-03-04_13-57-59
1772632682172585500,2.79558544921875,-0.0227624514281749,-0.0016197101563215,0.003453939846158,0.0173370670527219,0.006970596499741,-0.0046254871413111,standing,2026-03-04_13-57-59
1772632682182534400,2.805534423828125,-0.0002816664855927,0.0435308064296841,0.0829307966649532,0.0127918506041169,0.0183678604662418,-0.0026398340705782,standing,2026-03-04_13-57-59
1772632682192483300,2.8154833984375,0.0259519133855588,0.0136466864280402,0.2083972512423992,-0.0075523960404098,-0.0008042349945753,-0.0080591840669512,standing,2026-03-04_13-57-59
1772632682202431500,2.825431396484375,0.0491293936217203,-0.011977876432985,0.2140688671380281,-0.0243529472500085,-0.0146031379699707,-0.0038987942971289,standing,2026-03-04_13-57-59
1772632682212380400,2.83538037109375,0.023264647062961,0.0265548294484615,0.1020633671581745,-0.0338772907853126,-0.0015981255564838,0.0034855199046432,standing,2026-03-04_13-57-59
1772632682222329600,2.84532958984375,-0.0373999755244702,0.0497559645548462,0.0570475828677415,-0.0377037227153778,-0.0002859861124306,0.0034261313267052,standing,2026-03-04_13-57-59
1772632682232278500,2.855278564453125,-0.0364006257561966,0.0243327694848179,-0.0062298343002796,-0.0348113626241683,0.0056287599727511,0.0019651344045996,standing,2026-03-04_13-57-59
1772632682242227500,2.8652275390625,-0.0283783733475022,0.0255903683304786,-0.0580003535479307,-0.0216106083244085,0.0278352610766887,0.0032429192215204,standing,2026-03-04_13-57-59
1772632682252175600,2.875175537109375,-0.0499228455543518,0.0436886273398995,-0.0149164141029119,-0.0049532651901245,0.0407618470489978,0.0017735825385898,standing,2026-03-04_13-57-59
1772632682262124500,2.88512451171875,-0.0171514248796738,-0.011436170771718,0.1414735865265131,-0.0033958489075303,-0.0025834972038865,-0.0053455792367458,standing,2026-03-04_13-57-59
1772632682272073500,2.895073486328125,0.0356876186486333,-0.088321988184005,0.1950713212013244,-0.0117023065686225,-0.0498862937092781,-0.0133231049403548,standing,2026-03-04_13-57-59
1772632682282022400,2.9050224609375,0.0295990742488764,-0.0568158199384808,0.0411094245016574,-0.0154618918895721,-0.0488279536366462,-0.011914825066924,standing,2026-03-04_13-57-59
1772632682291971300,2.914971435546875,-0.0249671766645275,0.0254418997704982,-0.0752741444319486,-0.0165320932865142,-0.0288723614066839,-0.0092849005013704,standing,2026-03-04_13-57-59
1772632682301919500,2.92491943359375,-0.024269385392405,0.0081546648830175,-0.1165080720961093,-0.0217319168150424,-0.0192780569195747,-0.0083274943754076,standing,2026-03-04_13-57-59
1772632682311868400,2.934868408203125,0.0214684112959541,0.0155617262691259,-0.1708639316618442,-0.0250247418880462,0.0048549761995673,-0.0003977494779974,standing,2026-03-04_13-57-59
1772632682321817600,2.944817626953125,0.0234122205737978,0.0502773580804467,-0.1902940237969159,-0.0175210200250148,0.0376877561211586,0.0134221920743584,standing,2026-03-04_13-57-59
1772632682331766500,2.9547666015625,0.0061191222011111,0.0688445497758686,-0.1487169817835092,-0.0071295318193733,0.0417490862309932,0.0152908377349376,standing,2026-03-04_13-57-59
1772632682341715500,2.964715576171875,0.0220346303439699,0.0051072600111365,-0.0767979929983615,0.0062549831345677,0.0223221238702535,0.0126551073044538,standing,2026-03-04_13-57-59
1772632682351664600,2.97466455078125,0.0334494295340962,0.0116730482675135,-0.0763864895880222,0.0270626880228519,0.0155463749542832,0.0141680613160133,standing,2026-03-04_13-57-59
1772632682361612500,2.984612548828125,0.0359042022750712,0.0635625177197158,-0.0104027360707521,0.0420474968850612,0.0072178710252046,0.0134205128997564,standing,2026-03-04_13-57-59
1772632682371561500,2.9945615234375,0.0583157761726528,0.0261076702028512,0.1208726970463991,0.0421549603343009,-0.0152759887278079,0.0116562936455011,standing,2026-03-04_13-57-59
1772632682381510400,3.004510498046875,0.0643268348894082,-0.0321700389817357,0.2077086844563484,0.0285280980169773,-0.033687487244606,0.0126331411302089,standing,2026-03-04_13-57-59
1772632682391459600,3.01445947265625,-0.0046115854486823,-0.0118310153082013,0.2357511221140623,0.0072349216789007,-0.0323593653738498,0.0100726522505283,standing,2026-03-04_13-57-59
1772632682401408500,3.024408447265625,-0.0549314674966037,0.0083851126380264,0.2650859376698732,-0.019082436338067,-0.0221069958060979,0.0061908294446766,standing,2026-03-04_13-57-59
1772632682411356400,3.0343564453125,-0.0684655603956431,-0.0144876672968268,0.2459603814393282,-0.048099260777235,-0.016158428043127,0.0002168242353945,standing,2026-03-04_13-57-59
1772632682421305300,3.044305419921875,-0.0693512571889907,-0.0117608726814389,0.1443254688262939,-0.0692761912941932,-0.0021046618930995,-0.0010497751645743,standing,2026-03-04_13-57-59
1772632682431254500,3.054254638671875,-0.0725750415410846,0.0151233348518609,-0.0170370595186948,-0.0680601671338081,0.0218571331351995,-0.0003668679855763,standing,2026-03-04_13-57-59
1772632682441203700,3.06420361328125,-0.0723825694425962,0.0581030832700431,-0.149433605620265,-0.0502809025347232,0.0411354899406433,0.0034249408636242,standing,2026-03-04_13-57-59
1772632682451152600,3.074152587890625,-0.0237710987477563,0.0576623537652194,-0.1508458105057477,-0.0244085974991321,0.0358552411198616,0.0032435222528874,standing,2026-03-04_13-57-59
1772632682461100500,3.0841005859375,-0.0163490589882247,-0.001621609852463,-0.1042962407767772,-0.0038226270116865,0.0116801289841532,0.0011382934171706,standing,2026-03-04_13-57-59
1772632682471049500,3.094049560546875,-0.0339268377874977,-0.0369590268239378,-0.047231122252345,0.0122134257107973,-0.0122034940868616,-0.0009573457064107,standing,2026-03-04_13-57-59
1772632682480998400,3.103998291015625,-0.022468235988263,-0.0495227403208613,0.0252554372876882,0.0194878503680229,-0.0327314063906669,-0.0087055461481213,standing,2026-03-04_13-57-59
1772632682490947600,3.113947509765625,-0.009049695760291,-0.0535842906713485,0.0349023865550756,0.0148600731045007,-0.0440534427762031,-0.0104213394224643,standing,2026-03-04_13-57-59
1772632682500896500,3.123896484375,-0.0054925878006033,-0.0320135332457721,-0.0099468089967966,0.0054388744756579,-0.0350524894893169,-0.0070436527021229,standing,2026-03-04_13-57-59
1772632682510844400,3.133844482421875,-0.0381895367332734,0.0274758898161351,-0.0717453857839107,-0.0003749919123947,-0.0102688455954194,-0.0034016810823231,standing,2026-03-04_13-57-59
1772632682520793300,3.14379345703125,-0.0335226591670885,0.0286624692521989,-0.0736146867871284,-0.0074629955925047,0.0123136946931481,-0.00298090162687,standing,2026-03-04_13-57-59
1772632682530742500,3.153742431640625,-0.0154482376909814,0.0100891400769352,-0.0603279197126626,-0.0089630614966154,0.0279110297560691,0.0014464212581515,standing,2026-03-04_13-57-59
1772632682540691700,3.163691650390625,-0.0394473547746427,0.0118181558266282,-0.0342114816814661,-0.0082043260335922,0.0333585254848003,-0.0016212741611525,standing,2026-03-04_13-57-59
1772632682550640600,3.173640625,-0.0223392210474237,-0.0002570435009896,0.0089461075216531,-0.0064333118498325,0.026976928114891,-0.0030560158193111,standing,2026-03-04_13-57-59
1772632682560589600,3.183589599609375,0.0205636992748826,-0.0169916129417717,0.0547679474979639,-0.0039115650579333,0.0131197031587362,-0.0046901311725378,standing,2026-03-04_13-57-59
1772632682570537500,3.193537353515625,0.0142993781831115,-0.0253849088862538,0.0962339303523302,-0.0012502423487603,-0.0032089417800307,-0.0067202900536358,standing,2026-03-04_13-57-59
1772632682580486700,3.203486572265625,0.0134360941509716,-0.0237358265049755,0.1023614733219146,0.0042867357842624,-0.0168629698455333,-0.0039170468226075,standing,2026-03-04_13-57-59
1772632682590435600,3.213435546875,0.0127702506533823,-0.006709288380295,0.0647714551180601,0.0053354655392467,-0.0248784162104129,-0.0050495769828557,standing,2026-03-04_13-57-59
1772632682600384500,3.223384521484375,0.0026020357245579,0.0212887256138026,0.0123632224887609,0.0055602360516786,-0.0210458636283874,-0.0055475877597928,standing,2026-03-04_13-57-59
1772632682610333400,3.23333349609375,-0.0307701090559363,0.0465275040276348,-0.0213718738526105,0.006925034802407,-0.0088584320619702,-0.006152668967843,standing,2026-03-04_13-57-59
1772632682620281300,3.24328125,-0.0378339282286353,0.0622610797323286,0.0146469495117664,0.0010088221170008,-0.0054517164826393,-0.0094493962824344,standing,2026-03-04_13-57-59
1772632682630230500,3.25323046875,-0.0225922824930399,0.0251920166626572,0.0245949275523424,-0.0094215301796793,0.0003574341535568,-0.0046914918348193,standing,2026-03-04_13-57-59
1772632682640179700,3.2631796875,-0.0312538009196519,0.0289148365780711,0.0018675474375486,-0.0138253336772322,0.0127123706042766,0.0007024744991213,standing,2026-03-04_13-57-59
1772632682650128000,3.2731279296875,-0.0553657307280227,0.0423142702467739,-0.0094435356497764,-0.016781335696578,0.0165384039282798,-0.0006208630511537,standing,2026-03-04_13-57-59
1772632682660076800,3.283076904296875,-0.0605874108990654,0.003190904995799,0.0209948572337627,-0.0140372142195701,0.0113628162071108,-0.0022477880120277,standing,2026-03-04_13-57-59
1772632682670025000,3.29302490234375,-0.063104069895111,-0.0120277069240808,0.0365916548162698,-0.0100878067314624,3.38593963533e-05,-0.0037106077652424,standing,2026-03-04_13-57-59
1772632682679974000,3.302973876953125,-0.0730285757285542,-0.0294113879233598,-0.0008592471778392,-0.0022248239256441,-0.0025640539824962,-0.0088254753500223,standing,2026-03-04_13-57-59
1772632682689923000,3.312923095703125,-0.1025807055631652,-0.0406888610020279,-0.0559656328499317,0.0097453938797116,-0.0024474109522998,-0.0173832084983587,standing,2026-03-04_13-57-59
1772632682699872000,3.3228720703125,-0.0628428434093482,-0.0287665141485631,-0.0674386285007,0.0221751648932695,0.0018637143075466,-0.0216631758958101,standing,2026-03-04_13-57-59
1772632682709821000,3.332821044921875,0.0059368792356923,-0.0069188394777476,-0.016083704316616,0.0278737246990203,0.0024807748850435,-0.0217041987925767,standing,2026-03-04_13-57-59
1772632682719769900,3.342769775390625,0.0320904161405749,0.0029627953283488,0.0778267515242099,0.0174900609999895,-0.0072802430950105,-0.0178751051425933,standing,2026-03-04_13-57-59
1772632682729718000,3.352718017578125,0.0594948664220049,0.0026002456262707,0.1097024837344884,0.0050489092245697,-0.0175786931067705,-0.0117471599951386,standing,2026-03-04_13-57-59
1772632682739667000,3.3626669921875,0.0733649132771417,0.0414015393160283,0.0739881962746381,-0.0059560709632933,-0.0154995629563927,-0.0042602159082889,standing,2026-03-04_13-57-59
1772632682749615900,3.372615966796875,0.0106187717079184,0.0587599397435784,0.0170019882053136,-0.0118451341986656,-0.005675159394741,-0.0020897241774946,standing,2026-03-04_13-57-59
1772632682759564800,3.382564697265625,-0.023405005381722,0.0581466301508247,-0.0419593193292617,-0.0080671738833189,0.0175049938261508,-0.0018822639249265,standing,2026-03-04_13-57-59
1772632682769513700,3.392513671875,-0.019602781820856,0.0238395791403949,-0.0396831910908222,-0.001576978713274,0.03768190741539,-0.0027950808871537,standing,2026-03-04_13-57-59
1772632682779462000,3.4024619140625,0.0119665878539904,0.0155640643566846,0.0581155043601989,0.0005221245810389,0.0334565378725528,-0.0034427617210894,standing,2026-03-04_13-57-59
1772632682789410800,3.412410888671875,0.0270939778264611,-0.0200007316298782,0.2050292361140251,-0.0045287702232599,0.0095352195203304,-0.0040169130079448,standing,2026-03-04_13-57-59
1772632682799360000,3.422360107421875,0.003948518430069,-0.0758165807455778,0.2962123128175735,-0.0200336948037147,-0.0392991639673709,-0.0134615479037165,standing,2026-03-04_13-57-59
1772632682809309000,3.432308837890625,-0.0226314454596489,-0.090817312131077,0.2465063248842954,-0.035741988569498,-0.074282981455326,-0.019751850515604,standing,2026-03-04_13-57-59
1772632682819257900,3.4422578125,-0.0942904133354313,-0.0338503932841122,0.0051513914138078,-0.0402547158300876,-0.0546030178666114,-0.0252685882151126,standing,2026-03-04_13-57-59
1772632682829206000,3.4522060546875,-0.1471981929847039,0.0522010196194052,-0.2060579946398734,-0.0353770442306995,-0.0054461285471916,-0.0259151197969913,standing,2026-03-04_13-57-59
1772632682839155000,3.462155029296875,-0.0866961040152236,0.0882170665048062,-0.2765004811316728,-0.0248820595443248,0.0251980684697628,-0.0203022416681051,standing,2026-03-04_13-57-59
1772632682849104000,3.472103759765625,0.0219597932757809,0.084592884658277,-0.2671522225499153,-0.0080438638105988,0.0373657830059528,-0.0080031482502818,standing,2026-03-04_13-57-59
1772632682859052800,3.482052734375,0.0556068094749003,0.080808689944446,-0.2146212403237819,0.0156907588243484,0.0385926999151706,0.0068426439538598,standing,2026-03-04_13-57-59
1772632682869002000,3.492001953125,0.02431267654486,0.0456008907020092,-0.1377653796583414,0.0379426069557666,0.0243593025952577,0.0079501811414957,standing,2026-03-04_13-57-59
1772632682878951000,3.501950927734375,-0.0329775559723377,-0.019667261891812,-0.0296323371976614,0.0532746911048889,0.0010204243008047,-0.0030891532078385,standing,2026-03-04_13-57-59
1772632682888898800,3.51189892578125,-0.0443369534471072,-0.0648830987989902,0.0698830990433692,0.053557738661766,-0.0221008732914924,-0.0175759922713041,standing,2026-03-04_13-57-59
1772632682898848000,3.521847900390625,-0.0404606052041053,-0.0793451932631433,0.1200064356058835,0.0438824743032455,-0.028403777629137,-0.0217483658343553,standing,2026-03-04_13-57-59
1772632682908797000,3.531796875,-0.0188236141419038,-0.0449094013065099,0.1624275272279977,0.026235083118081,-0.018649810925126,-0.0256651174277067,standing,2026-03-04_13-57-59
1772632682918746000,3.54174609375,0.0147516702615655,-0.0092659871257841,0.1861988634377717,0.0008213357068598,-0.0001253944355994,-0.0229130070656538,standing,2026-03-04_13-57-59
1772632682928695000,3.551695068359375,0.0459259031389839,-0.0083466803237795,0.2326747834086418,-0.0268355906009674,0.0069516897201538,-0.0151174012571573,standing,2026-03-04_13-57-59
1772632682938643000,3.561642822265625,0.0396897669620811,0.0152532448418438,0.2146492973744869,-0.0506250783801078,0.0049111759290099,-0.0119066946208477,standing,2026-03-04_13-57-59
1772632682948591900,3.571591796875,0.0339237142486497,0.0342860082224011,0.0975111106812954,-0.0591631457209587,0.003289177082479,-0.0097299385815858,standing,2026-03-04_13-57-59
1772632682958540800,3.581540771484375,0.0112228568146005,0.0604645517043769,-0.0423953726589679,-0.0507622063159942,0.0084314746782183,-0.010060703381896,standing,2026-03-04_13-57-59
1772632682968490000,3.591489990234375,0.0317988127828575,0.0692426091827452,-0.1782587180882692,-0.0273269824683666,0.026291562244296,-0.0079943016171455,standing,2026-03-04_13-57-59
1772632682978439000,3.60143896484375,0.0222132748465053,0.0855590993419289,-0.2318663896352052,0.0037204171530902,0.0347745269536972,-0.0078041525557637,standing,2026-03-04_13-57-59
1772632682988386800,3.61138671875,0.054122343070805,0.0826680540755391,-0.1692179180204868,0.0314756445586681,0.0170173663645982,-0.0067098904401063,standing,2026-03-04_13-57-59
1772632682998335700,3.621335693359375,0.0967856824835762,0.0460503880351781,-0.0488093313544988,0.0455613695085048,-0.0107162604108452,-0.0002972646616399,standing,2026-03-04_13-57-59
1772632683008285000,3.631284912109375,0.107152251262404,0.0292960909806191,0.0432452674865722,0.0461857020854949,-0.0299907531589269,0.0060290764085948,standing,2026-03-04_13-57-59
1772632683018234000,3.641234130859375,0.0569726910006254,0.0325827114358544,0.0685100571244955,0.0367264188826084,-0.0307268500328063,0.0076733124442398,standing,2026-03-04_13-57-59
1772632683028183000,3.65118310546875,-0.0042243396967649,0.0299997092053294,0.1043809964507818,0.0134510416537523,-0.0285285450518131,0.0052993418648839,standing,2026-03-04_13-57-59
1772632683038132000,3.661132080078125,-0.0031561442096717,0.0039583822369575,0.0816787507772445,-0.0104103488847613,-0.0106656588613986,0.0043169017881155,standing,2026-03-04_13-57-59
1772632683048080000,3.671079833984375,-0.0314910802742466,0.0177289873056113,-0.0107762455582618,-0.0272604040801525,0.0211596507579088,0.0075385849922895,standing,2026-03-04_13-57-59
1772632683058029000,3.681029052734375,-0.0328136706475168,0.0303274798549711,-0.0344254166930913,-0.0315078794956207,0.0424385741353035,0.0105154663324356,standing,2026-03-04_13-57-59
1772632683067978000,3.69097802734375,-0.0004571691829711,0.0086579382300376,-0.0251776958763599,-0.0270548053085804,0.0447187721729278,0.0133075239136815,standing,2026-03-04_13-57-59
1772632683077927000,3.700927001953125,0.0019032946043647,-0.0172420805715024,-0.029259996753931,-0.0126708075404167,0.0333785004913806,0.0128499930724501,standing,2026-03-04_13-57-59
1772632683087875800,3.710875732421875,0.0025054800149053,-0.0117740244239568,-0.0069482117027044,0.0046971854753792,0.0140912262722849,0.0136988284066319,standing,2026-03-04_13-57-59
1772632683097823700,3.72082373046875,0.0105047351405024,-0.031433687531203,-0.009559855505824,0.0223611332476139,-0.0126988422125577,0.0110143618658185,standing,2026-03-04_13-57-59
1772632683107773000,3.73077294921875,-0.0036579745182767,-0.0417130894832313,-0.0048912791728973,0.0351255126297473,-0.0266552735120058,0.0063607259653508,standing,2026-03-04_13-57-59
1772632683117722000,3.74072216796875,-0.0334944377196021,-0.0154898300766944,0.0150438398748636,0.0392150618135929,-0.022476240992546,0.0044618919491767,standing,2026-03-04_13-57-59
1772632683127671000,3.750671142578125,-0.0427628359981812,0.0144034961447119,0.0523649780094623,0.0292680747807025,-0.0198351852595806,0.0039379489608109,standing,2026-03-04_13-57-59
1772632683137620000,3.760619873046875,-0.0120165096766315,0.0195040341541171,0.1152156941980123,0.0120699135586619,-0.0160489697009325,0.0050737871788442,standing,2026-03-04_13-57-59
1772632683147567900,3.77056787109375,-0.0206400159141048,0.0210110777162015,0.123414782744646,-0.0048824842087924,-0.0044884528033435,0.0056969253346323,standing,2026-03-04_13-57-59
1772632683157517000,3.78051708984375,-0.0286849916112609,0.0330126272857189,0.0889016877681016,-0.0199144296348094,-0.000145369907841,0.005214094184339,standing,2026-03-04_13-57-59
1772632683167466000,3.790466064453125,-0.0260105847702361,0.0236690448790788,0.0168453363388776,-0.0239503122866153,0.0031577474437654,0.0016003097407519,standing,2026-03-04_13-57-59
1772632683177415000,3.800414794921875,-0.0366734330818988,0.0477577764749527,-0.071274845662713,-0.0173267647624015,0.0123230163007974,0.00192068843171,standing,2026-03-04_13-57-59
1772632683187363800,3.81036376953125,-0.0238366199983283,0.0776822284869849,-0.1052472578912973,-0.0055804522708058,0.0208110436797142,0.0026806704699993,standing,2026-03-04_13-57-59
1772632683197312000,3.82031201171875,-0.0123325350895524,0.0762577486418187,-0.0684796619862318,0.0060024335980415,0.0105666629970073,0.004529170691967,standing,2026-03-04_13-57-59
1772632683207261000,3.830260986328125,-0.0063243807159364,0.0490903402529656,-0.0288648599565029,0.0156124047935009,-0.0074783838354051,0.0028417503926903,standing,2026-03-04_13-57-59
1772632683217210000,3.840210205078125,-0.0065073908663354,0.0468241488866508,-0.0109217915087938,0.0233978908509016,-0.0047806017100811,0.00519784912467,standing,2026-03-04_13-57-59
1772632683227159000,3.850158935546875,-0.0330656543808989,0.0468447532832622,0.0485801987737417,0.0173632577061653,-0.0035369067918509,0.0030250591225922,standing,2026-03-04_13-57-59
1772632683237108000,3.86010791015625,-0.0219239547774195,0.0125736503690481,0.1253606561154127,0.0012950762175023,-0.0138441389426589,-0.0032189881894737,standing,2026-03-04_13-57-59
1772632683247057000,3.870056884765625,-0.0164758819719776,0.0005352759204804,0.0997340474277734,-0.0112963132560253,-0.0060380175709724,-0.0024710334837436,standing,2026-03-04_13-57-59
1772632683257005000,3.880005126953125,-0.037135844695568,0.0360464420236647,-0.0066021747440099,-0.0130081921815872,0.0213707033544778,0.0026201312430202,standing,2026-03-04_13-57-59
1772632683266954000,3.8899541015625,-0.0523963595284149,0.0711383598014712,-0.0056914896398782,-0.0107450149953365,0.031723216176033,0.002447897568345,standing,2026-03-04_13-57-59
1772632683276903000,3.89990283203125,-0.0326898798710666,0.0256798001796007,0.0227069218486547,-0.0085492394864559,0.0237281396985054,-0.0005505555309355,standing,2026-03-04_13-57-59
1772632683286851800,3.909851806640625,0.0161541940032504,0.0016612112104892,0.0724620096206665,-0.0043305489234626,0.0175430811941623,0.0030355029739439,standing,2026-03-04_13-57-59
1772632683296800800,3.91980078125,0.0198448469484224,-0.0164484459757804,0.150744688218832,-0.0019861687906086,0.0122276786714792,0.0042869225144386,standing,2026-03-04_13-57-59
1772632683306749000,3.9297490234375,0.0213413325838744,-0.0395410061411559,0.2139221521437168,-0.0041041658259928,-0.0117273181676864,0.0032801507040858,standing,2026-03-04_13-57-59
1772632683316697900,3.93969775390625,0.0294160640984773,-0.0621339462213218,0.2546604052454233,-0.01182147487998,-0.0458866208791732,-0.003231011563912,standing,2026-03-04_13-57-59
1772632683326647000,3.94964697265625,-0.0010422390619292,-0.0559748390696942,0.1755862840086221,-0.0209476444870233,-0.0618878304958343,-0.0094526493921875,standing,2026-03-04_13-57-59
1772632683336596000,3.959595947265625,-0.0644049598932266,-0.0244242471605539,0.0555289949983358,-0.0316604785621166,-0.0605900734663009,-0.0142271649092435,standing,2026-03-04_13-57-59
1772632683346545000,3.969544921875,-0.0614991919817402,0.0105573421105742,-0.0558393761217594,-0.0402053110301494,-0.0479714833199977,-0.0187778063118457,standing,2026-03-04_13-57-59
1772632683356493800,3.979493896484375,-0.0385396288125775,0.0526056548975408,-0.2111713921308517,-0.0419347658753395,-0.0184482131153345,-0.0098716635257005,standing,2026-03-04_13-57-59
1772632683366442000,3.98944189453125,0.0091015172790735,0.1144958554908633,-0.3376280267894267,-0.0280528292059898,0.0198847968131303,0.0020800444763153,standing,2026-03-04_13-57-59
1772632683376391000,3.999390869140625,0.0260734574059955,0.1309367026820778,-0.3342664414018392,-0.0079757925122976,0.0462817847728729,0.0142248570919036,standing,2026-03-04_13-57-59
1772632683386339800,4.00933984375,0.0194909920094534,0.0882452696859836,-0.2476063950806856,0.0120582655072212,0.0489301644265651,0.0214665383100509,standing,2026-03-04_13-57-59
1772632683396288800,4.019288818359375,-0.0259269981400109,0.0086854107588529,-0.11411971565485,0.0296761412173509,0.0384532883763313,0.0175330489873886,standing,2026-03-04_13-57-59
1772632683406238000,4.029238037109375,-0.0483141682486981,-0.0218500127583742,0.0359463426500558,0.0383412018418312,0.0070056114345788,0.0045721298083662,standing,2026-03-04_13-57-59
1772632683416185900,4.039185791015625,-0.036330410064198,-0.0550444263517856,0.1617746162772178,0.0393342971801757,-0.0276660807430744,-0.0055841016583144,standing,2026-03-04_13-57-59
1772632683426134800,4.049134765625,0.0152162555660121,-0.0292594122320413,0.1829705490410327,0.0302163623273372,-0.0381018109619617,-0.0073041673749685,standing,2026-03-04_13-57-59
1772632683436084000,4.059083984375,0.004525551133044,0.0041487902425229,0.188386144348979,0.0134421754628419,-0.0327885374426841,-0.0054681841284036,standing,2026-03-04_13-57-59
1772632683446033000,4.069032958984375,0.0122345911404117,0.0187836109250783,0.1565150883138179,-0.0039959638379514,-0.0206317361444234,-0.0051951790228486,standing,2026-03-04_13-57-59
1772632683455982000,4.078982177734375,0.0067489628035575,0.0297447115309536,0.137909756565094,-0.0203171465545892,-0.0098448684439063,-0.0019764825701713,standing,2026-03-04_13-57-59
1772632683465930000,4.088929931640625,-0.0355377070502378,0.0315279416859149,0.1044295117676258,-0.0349326245486736,0.0054877498187124,-0.0017658683937042,standing,2026-03-04_13-57-59
1772632683475879000,4.09887890625,-0.0563486225518398,0.013344050219655,0.0650964492887258,-0.0422467291355133,0.0206906720995903,-0.0046338266693055,standing,2026-03-04_13-57-59
1772632683485827800,4.108827880859375,-0.0796373811427503,0.003618921149522,0.0425900184482336,-0.0461833626031875,0.0248623732477426,-0.0130972294136881,standing,2026-03-04_13-57-59
1772632683495776800,4.11877685546875,-0.0305106178695335,0.0004576806396245,0.0001560673445463,-0.0405851341784,0.0201552361249923,-0.0126673951745033,standing,2026-03-04_13-57-59
1772632683505726000,4.128725830078125,0.0183332550753839,0.0423567942142486,-0.0587871200114488,-0.0204023886471986,0.0181798376142978,-0.0050754090771079,standing,2026-03-04_13-57-59
1772632683515675000,4.1386748046875,0.0353363940581679,0.0657654345914721,-0.0402332261890172,-0.0013679773546755,-0.0058067222125828,-0.0022628449369221,standing,2026-03-04_13-57-59
1772632683525622800,4.148622802734375,0.0399920561105944,0.0218567347601056,-0.0281382992476224,0.0083799203857779,-0.0370135121047496,-0.005276939831674,standing,2026-03-04_13-57-59
1772632683535572000,4.158572021484375,0.012405198466964,-0.0076367784887552,-0.0259866741716861,0.0126508325338363,-0.0482105053961277,-0.0069246380589902,standing,2026-03-04_13-57-59
1772632683545521000,4.16852099609375,-0.0337046098715625,0.0149307348892092,-0.0548117866396904,0.0089798374101519,-0.0355216078460216,-0.0107950940728187,standing,2026-03-04_13-57-59
1772632683555470000,4.178469970703125,-0.0339764125502668,0.0467377857774496,-0.0586024110943078,0.0003099162131547,-0.0097810886800289,-0.0117216082289814,standing,2026-03-04_13-57-59
1772632683565419000,4.1884189453125,0.0159781067839823,0.0567540067486464,-0.0658884764492511,-0.0069876858033239,0.0138242356479167,-0.0092343846336007,standing,2026-03-04_13-57-59
1772632683575367000,4.198366943359375,0.025355171335116,0.0589187835671007,-0.0648415977448225,-0.01397155970335,0.0295760333538055,0.0017402360681444,standing,2026-03-04_13-57-59
1772632683585315800,4.20831591796875,0.017104023807682,0.0654303574182093,-0.0375765742003917,-0.0135097205638885,0.0298290345817804,0.0034574843011796,standing,2026-03-04_13-57-59
1772632683595265000,4.21826513671875,0.0167271350529976,0.0284624166354537,-0.0071872811555862,-0.0090843457728624,0.0122332628816366,0.0020590587519109,standing,2026-03-04_13-57-59
1772632683605214000,4.2282138671875,0.0057052259042859,0.0144485043302178,-0.0030628947019577,0.0005567325279116,-0.0025889528915286,0.0004865624941885,standing,2026-03-04_13-57-59
1772632683615163000,4.238162841796875,-0.0061296435951255,0.0225103763632476,-0.0318511822909116,0.0091635361313819,-0.0100575219839811,-0.0007486115209758,standing,2026-03-04_13-57-59
1772632683625110800,4.24811083984375,-0.0250859259396791,0.0081365447044372,-0.0549491492837667,0.0207577366381883,-0.0113872364163398,-0.0039237570017576,standing,2026-03-04_13-57-59
1772632683635059700,4.258059814453125,-0.0029267193679697,0.0097200145035982,-0.0220247848033905,0.0230943951755762,-0.0077909035608172,-0.0055469535291194,standing,2026-03-04_13-57-59
1772632683645009700,4.268009765625,0.017108170259837,0.0100911859035491,0.0557809239327907,0.0190904382616281,-0.0013970511499792,-0.0003202469088137,standing,2026-03-04_13-57-59
1772632683654958800,4.277958740234375,-0.0231771331762894,-0.018510054680705,0.1393599553734064,0.0075850491411983,-0.0059798182919621,-0.0023764735087752,standing,2026-03-04_13-57-59
1772632683664907800,4.28790771484375,-0.0321392054520547,-0.0526956712685525,0.1364186412245035,-0.0090172253549098,-0.0103363590314984,-0.0078658415004611,standing,2026-03-04_13-57-59
1772632683674856700,4.297856689453125,-0.0338581929980777,-0.0156413673765957,0.0821650729894638,-0.0137062538415193,0.0058018648996949,-0.0079036578536033,standing,2026-03-04_13-57-59
1772632683684804600,4.3078046875,-0.0236920421621762,0.031915771959722,0.074797759091854,-0.0214379429817199,0.0084628947079181,-0.0056748585775494,standing,2026-03-04_13-57-59
1772632683694753800,4.31775390625,-0.0236839867198839,0.007060732166469,0.0970265420347452,-0.0248771477490663,-0.0141169819980859,-0.0106925200670957,standing,2026-03-04_13-57-59
1772632683704703000,4.327702880859375,-0.0158451463203877,0.0121479723028838,-0.0328776027292013,-0.0207304116338491,-0.0172585807740688,-0.0100168054923415,standing,2026-03-04_13-57-59
1772632683714652000,4.33765185546875,-0.0360140010587871,0.0595275631152093,-0.149825235286355,-0.0030217221938073,0.0059343571774661,-0.0091763120144605,standing,2026-03-04_13-57-59
1772632683724600800,4.347600830078125,-0.0259006581223569,0.1009980760142207,-0.1636994468599557,0.012743323110044,0.0216436795890331,-0.0044238306581974,standing,2026-03-04_13-57-59
1772632683734548700,4.357548828125,0.0358787025076337,0.0727767746582627,-0.050136780565977,0.0197788625955581,0.0025235142093151,0.0001528116408735,standing,2026-03-04_13-57-59
1772632683744497700,4.36749755859375,0.0509700895849615,0.0470060813248157,0.0306739552050828,0.0162733569741249,-0.0291433371603488,-0.0004368280060589,standing,2026-03-04_13-57-59
1772632683754446800,4.37744677734375,0.0375168251034803,0.0448407199844718,-0.0040998365342617,0.0165513921529054,-0.0283084362745285,-0.0029673634562641,standing,2026-03-04_13-57-59
1772632683764395800,4.387395751953125,0.0100580142863094,0.0718104138441383,-0.0866337428361177,0.0163576956838369,0.0027297772467136,-0.0006780243711546,standing,2026-03-04_13-57-59
1772632683774344700,4.3973447265625,-0.019057276767306,0.089437255949527,-0.050067806982994,0.0097264247015118,0.0221913587301969,0.0005425023846328,standing,2026-03-04_13-57-59
1772632683784292600,4.407292724609375,0.0139350749153643,0.0494895687036216,0.027626258072257,-0.0003249580040574,0.0236345250159502,0.0013514717575162,standing,2026-03-04_13-57-59
1772632683794241800,4.41724169921875,0.0203162273198366,0.0162315883547067,0.0318517668128013,-0.0078382678329944,0.0324386693537235,0.0103886425495147,standing,2026-03-04_13-57-59
1772632683804191000,4.42719091796875,-0.017631847074069,0.0380612889774143,0.0569014523953199,-0.0048836874775588,0.0450071990489959,0.0143307670950889,standing,2026-03-04_13-57-59
1772632683814140000,4.437139892578125,-0.0091417579579167,0.0138918933607637,0.0975502736479043,0.0036940874997526,0.0250531956553459,0.0130274165421724,standing,2026-03-04_13-57-59
1772632683824088800,4.4470888671875,0.0008405972762964,-0.0199713594049215,0.1273188044458627,0.0146909728646278,-0.0057908724993467,0.006627055350691,standing,2026-03-04_13-57-59
1772632683834037800,4.457037841796875,-0.0140822100347839,-0.0341793329775333,0.0930535467505455,0.0266498979181051,-0.0209019146859645,0.0068606142885982,standing,2026-03-04_13-57-59
1772632683843986000,4.46698583984375,-0.053693961590901,-0.0391636972613632,0.1035474682360887,0.0318351313471794,-0.0246907956898212,-0.0009448181372135,standing,2026-03-04_13-57-59
1772632683853934800,4.476934814453125,-0.0800245720957405,-0.0723059422761201,0.1716974598765373,0.0224016830325126,-0.0451393462717533,-0.0140861868858337,standing,2026-03-04_13-57-59
1772632683863883800,4.4868837890625,-0.1463971970664337,-0.1027066334977745,0.2262000344365835,-0.0125470152124762,-0.0763421356678009,-0.0360840372741222,standing,2026-03-04_13-57-59
1772632683873832700,4.496832763671875,-0.1392562940695323,-0.0886357303082942,0.0946662426441907,-0.0428801514208316,-0.0622377693653106,-0.0379085689783096,standing,2026-03-04_13-57-59
1772632683883781600,4.50678173828125,-0.1127679174534045,0.0089082597292959,-0.1596136388510465,-0.0534992888569831,0.0039103580638766,-0.0287297572940588,standing,2026-03-04_13-57-59
1772632683893729800,4.516729736328125,-0.0968666935642249,0.1093836270436644,-0.3176227651149034,-0.044381957501173,0.0550971142947673,-0.0177546050399541,standing,2026-03-04_13-57-59
1772632683903678700,4.5266787109375,-0.0506174767550081,0.0995179204590618,-0.3453513145178556,-0.0205346923321485,0.0724653154611587,-0.008760480210185,standing,2026-03-04_13-57-59
1772632683913628000,4.5366279296875,-0.0152328048420138,0.0688685151733458,-0.3009907792657613,0.014983887784183,0.0630555599927902,-0.003503933083266,standing,2026-03-04_13-57-59
1772632683923576800,4.546576904296875,-0.0270581941270269,0.0350206061072647,-0.1934492729574441,0.0521386675536632,0.0412197783589363,-0.0036701562348753,standing,2026-03-04_13-57-59
1772632683933525800,4.55652587890625,-0.0738142644798383,-0.0119952659592032,-0.0096872812777757,0.0710132867097854,-0.0065517397597432,-0.020073365420103,standing,2026-03-04_13-57-59
1772632683943474000,4.566473876953125,-0.0918915355001576,-0.0719198655679821,0.1512923852294683,0.0677616596221923,-0.0458518676459789,-0.0389328002929687,standing,2026-03-04_13-57-59
1772632683953422800,4.5764228515625,-0.0612102007062174,-0.0833547211654484,0.1679004056811332,0.0530383735895156,-0.0444262772798538,-0.0431219525635242,standing,2026-03-04_13-57-59
1772632683963371800,4.586371826171875,-0.0185717948053032,-0.0291128433682024,0.1797217763781547,0.0251328255981206,-0.0251404717564582,-0.0416816659271717,standing,2026-03-04_13-57-59
1772632683973320700,4.59632080078125,0.0132703639289364,-0.000671323390305,0.1486094297558069,-0.0035763178020715,-0.0064112590625882,-0.037372138351202,standing,2026-03-04_13-57-59
1772632683983269600,4.60626953125,0.0090720902551896,0.0160201375611126,0.0413835652679204,-0.0207202807068824,0.025354528799653,-0.0297538563609123,standing,2026-03-04_13-57-59
1772632683993218600,4.616218505859375,-0.0373641735587269,0.031636078235507,-0.0193535197675228,-0.0256788209080696,0.0511110238730907,-0.029173020273447,standing,2026-03-04_13-57-59
1772632684003166700,4.626166748046875,-0.0530855839015916,0.0023477321699261,-0.0075099372386932,-0.0231106504797935,0.0399664975702762,-0.0374209992587566,standing,2026-03-04_13-57-59
1772632684013116000,4.636115966796875,-0.0329114319335669,-0.0411962260022759,-0.019222586864233,-0.0131911747157573,0.0186343118548393,-0.0498185455799102,standing,2026-03-04_13-57-59
1772632684023064800,4.64606494140625,0.0317726006293669,0.0198665838561952,-0.098088033786416,0.0105637451633811,0.0222732499241828,-0.0436290688812732,standing,2026-03-04_13-57-59
1772632684033013800,4.656013671875,0.0667665561917238,0.1005824809506535,-0.1303828681915998,0.0365894883871078,0.0184321738779544,-0.0350696668028831,standing,2026-03-04_13-57-59
1772632684042962700,4.665962646484375,0.113898601983767,0.0961390916757285,-0.0533662640064954,0.0573447309434413,-0.0045053614303469,-0.032029204070568,standing,2026-03-04_13-57-59
1772632684052910800,4.675910888671875,0.1370004414341412,0.0680434625260531,0.0468605353742837,0.0590510182082653,-0.0222806297242641,-0.0237720720469951,standing,2026-03-04_13-57-59
1772632684062859800,4.68585986328125,0.0913019903754815,0.0643573213592171,0.1199468143731355,0.0462524555623531,-0.0275395773351192,-0.0228481963276863,standing,2026-03-04_13-57-59
1772632684072808700,4.69580859375,0.0203812553800642,0.0348703839816153,0.1706178479462862,0.0213492363691329,-0.0350952334702014,-0.0245688650757074,standing,2026-03-04_13-57-59
1772632684082757600,4.705757568359375,0.0001823708295822,0.0137681208506226,0.1509656374931335,-0.007233140990138,-0.0227935593575239,-0.0301556438207626,standing,2026-03-04_13-57-59
1772632684092706600,4.71570654296875,-0.016447934519127,0.0462302746467292,0.0242068050175905,-0.0237340871244668,0.0150414388626813,-0.0226330123841762,standing,2026-03-04_13-57-59
1772632684102656000,4.725656005859375,-0.0250650475484319,0.0859289555676281,-0.079434186720848,-0.0244651474058628,0.0433893203735351,-0.0170807428658008,standing,2026-03-04_13-57-59
1772632684112603600,4.735603759765625,0.0275097738194279,0.0760202866241335,-0.0895148512303829,-0.0139683000743389,0.041474774479866,-0.0071338349953293,standing,2026-03-04_13-57-59
1772632684122552800,4.745552734375,0.0203866804738529,0.0517744647704064,-0.0909872618705034,0.0032523383852094,0.0324545204639434,-0.0021665201056748,standing,2026-03-04_13-57-59
1772632684132501800,4.755501708984375,-0.0283665002466179,0.0270572260126471,-0.0318839155167341,0.0264026634395122,0.0159940533339977,-0.002579309977591,standing,2026-03-04_13-57-59
1772632684142450700,4.76545068359375,-0.0561595114542171,-0.0175061383351683,0.0311386501073837,0.0400891937315464,-0.0131561132147908,-0.0121294204145669,standing,2026-03-04_13-57-59
1772632684152400000,4.77539990234375,-0.0692432119709439,-0.0654531537719071,0.1055968019813299,0.0439872629940509,-0.0360542349517345,-0.0239269584417343,standing,2026-03-04_13-57-59
1772632684162347800,4.78534765625,-0.0791142705840989,-0.0528223663881421,0.1505044497221708,0.0350723080337047,-0.0388347096741199,-0.0254275389015674,standing,2026-03-04_13-57-59
1772632684172296700,4.795296630859375,-0.0753663162274286,-0.0362073316738009,0.17454583504498,0.0163731891661882,-0.0315040946006774,-0.0258224830031394,standing,2026-03-04_13-57-59
1772632684182245600,4.80524560546875,-0.0649108635887503,-0.0455661116495728,0.146716163355112,-0.0068018711172044,-0.0151466894894838,-0.0227952115237712,standing,2026-03-04_13-57-59
1772632684192194800,4.81519482421875,-0.0711370628935284,-0.0412843426771461,0.0940139162153005,-0.0220372825860977,0.0063934898935258,-0.0242445040494203,standing,2026-03-04_13-57-59
1772632684202143700,4.825143798828125,-0.0752140300088562,-0.0252748726405203,0.0763648622781038,-0.0332014858722686,0.0150701981037855,-0.024602560326457,standing,2026-03-04_13-57-59
1772632684212091600,4.835091552734375,-0.0495335174432024,-0.0282829684153199,0.048943186867237,-0.0350720882415771,0.0072335805743932,-0.0251623559743165,standing,2026-03-04_13-57-59
1772632684222040800,4.845040771484375,-0.0437068753826431,-0.0104093119420111,-0.0167050510853528,-0.0250161066651344,-0.0048205507919192,-0.024486418813467,standing,2026-03-04_13-57-59
1772632684231989800,4.85498974609375,-0.0357379971290007,0.0171887429490685,-0.033183892199397,-0.0081503102555871,-0.0131546463817358,-0.0286175142973661,standing,2026-03-04_13-57-59
1772632684241939000,4.86493896484375,-0.0302091324386186,0.0478144750982522,-0.040332594910264,0.0062715061940252,-0.0200461093336343,-0.0350642278790473,standing,2026-03-04_13-57-59
1772632684251887900,4.874887939453125,-0.0018727533356286,0.0392069518812,-0.0401893870472907,0.0166770089417696,-0.02355189435184,-0.035358503460884,standing,2026-03-04_13-57-59
1772632684261836800,4.8848369140625,0.0598686681704595,0.0565842031396925,-0.0370189403176307,0.0201408080756664,-0.0250177010893821,-0.0315951108932495,standing,2026-03-04_13-57-59
1772632684271784700,4.89478466796875,0.1106144292139448,0.1015473804600536,-0.0109942722231149,0.0204944759607315,-0.0170788168907165,-0.0249004550278186,standing,2026-03-04_13-57-59
1772632684281733600,4.904733642578125,0.1468491968839429,0.1106523318052291,0.0170592713505029,0.0112620610743761,-0.0137651748955249,-0.0140564683824777,standing,2026-03-04_13-57-59
1772632684291682800,4.914682861328125,0.1461208643430843,0.0937551191486418,0.0071259063571691,-0.0019895611330866,-0.0102516654878854,-0.0043143592774868,standing,2026-03-04_13-57-59
1772632684301631700,4.9246318359375,0.1148982988119125,0.0708417149424553,-0.0159545249789953,-0.0093118073418736,0.003445369657129,0.0020708069205284,standing,2026-03-04_13-57-59
1772632684311580700,4.93458056640625,0.0776222053954377,0.0685768387503922,-0.0291074365407228,-0.0103208785876631,0.0176472086459398,0.0046194517053663,standing,2026-03-04_13-57-59
1772632684321528600,4.944528564453125,0.0792626843451522,0.0359339215599,-0.0640080695301294,-0.0059570232406258,0.0278415232896804,0.0076469331979751,standing,2026-03-04_13-57-59
1772632684331477800,4.954477783203125,0.0862041740461252,0.0237330500259995,-0.0552232900500297,0.0050386358052492,0.0320091024041175,0.0119229052215814,standing,2026-03-04_13-57-59
1772632684341427000,4.964427001953125,0.1157131223261356,0.0325090616777539,-0.0165893157511949,0.0214083343744277,0.0211607161909341,0.0178210511803627,standing,2026-03-04_13-57-59
1772632684351376000,4.9743759765625,0.0806170763624831,-0.0100211894072592,0.0721522130191326,0.0302739962935447,-0.0088035743683576,0.018871933221817,standing,2026-03-04_13-57-59
1772632684361324800,4.98432470703125,0.044684853569325,-0.0829929021157324,0.1678361082732677,0.0245185941457748,-0.0499632582068443,0.0117836212739348,standing,2026-03-04_13-57-59
1772632684371273700,4.994273681640625,0.0148233107256703,-0.106661508603394,0.1480845290988683,0.0111372750252485,-0.077874518930912,0.0033749565482139,standing,2026-03-04_13-57-59
1772632684381222000,5.004221923828125,-0.0766901669760234,-0.0607291939899325,0.0623573797136545,-0.0116610471159219,-0.0651363581418991,-0.0005040515679866,standing,2026-03-04_13-57-59
1772632684391170800,5.0141708984375,-0.0705011578764766,0.0193041276678442,-0.0598901128172874,-0.0286094043403863,-0.0300814360380172,0.0037644628901034,standing,2026-03-04_13-57-59
1772632684401119700,5.02411962890625,-0.0059681694230996,0.0541324260734021,-0.1600093601703643,-0.0373441725969314,0.0133639127016067,0.017705088481307,standing,2026-03-04_13-57-59
1772632684411068700,5.034068603515625,-0.0005357325782068,0.0950647404424846,-0.2170908453077077,-0.0321627259254455,0.0424751937389373,0.034301646053791,standing,2026-03-04_13-57-59
1772632684421017900,5.044017822265625,-0.0099620613648556,0.0787530725888907,-0.2092073985815048,-0.0083763785660266,0.0531684532761573,0.0426766984164714,standing,2026-03-04_13-57-59
1772632684430965800,5.0539658203125,-0.0040312100111506,0.0500482254996895,-0.1583914035797119,0.0227112341672182,0.0397144295275211,0.0436756499111652,standing,2026-03-04_13-57-59
1772632684440915000,5.0639150390625,-0.0310328699116595,-0.0020176234327256,-0.0604606061816215,0.0499100163578987,0.0115166110917925,0.0349062941968441,standing,2026-03-04_13-57-59
1772632684450863900,5.07386376953125,-0.0592980834745801,-0.0272751065470278,0.0719020376503467,0.0631619095802307,-0.0217156447470188,0.0212298966944217,standing,2026-03-04_13-57-59
1772632684460812800,5.083812744140625,-0.0399705383985303,-0.046397594037652,0.1671528021842241,0.0583970583975315,-0.044992733746767,0.0097384545952081,standing,2026-03-04_13-57-59
1772632684470761700,5.09376171875,0.0189148178230039,-0.021401830599457,0.2045405758142471,0.0432553887367248,-0.0407569780945777,0.0108551178127527,standing,2026-03-04_13-57-59
1772632684480710700,5.103710693359375,0.0555035682961344,0.0236440565682947,0.2184732395768165,0.0147095303982496,-0.0224682427942752,0.0171128213405609,standing,2026-03-04_13-57-59
1772632684490658800,5.113658935546875,0.033911347957421,0.0300660524398088,0.2489163086354732,-0.0207232944667339,-0.0139895370230078,0.0226567238569259,standing,2026-03-04_13-57-59
1772632684500607700,5.123607666015625,0.0060789728538133,-0.0086018241286277,0.1932394295990467,-0.0461432039737701,-0.0092741474509239,0.0207810010761022,standing,2026-03-04_13-57-59
1772632684510556700,5.133556640625,0.0131252198372036,0.0102069212377071,0.039385084927082,-0.0559915713965892,0.009171437472105,0.0237485617399215,standing,2026-03-04_13-57-59
1772632684520505600,5.143505615234375,-0.0207432753591798,0.0551287436343729,-0.0805512080520391,-0.0469238013029098,0.02595055103302,0.0211512930691242,standing,2026-03-04_13-57-59
1772632684530454800,5.153454833984375,-0.0128127928871661,0.0582293399982154,-0.1604734705507755,-0.0271911099553108,0.0277340691536664,0.021408287808299,standing,2026-03-04_13-57-59
1772632684540403000,5.16340283203125,0.0426010330325923,0.0452737045742571,-0.1622141767382621,-0.0022005420178174,0.0242481175810098,0.0257205590605735,standing,2026-03-04_13-57-59
1772632684550352000,5.173351806640625,0.0487978601124137,0.065920332892239,-0.1458054782509803,0.0208909288048744,0.0069604753516614,0.0304268989711999,standing,2026-03-04_13-57-59
1772632684560300800,5.18330078125,0.0596833199325017,0.0541644286468625,-0.0878355198413133,0.0403581149876117,-0.0114167984575033,0.0284549966454505,standing,2026-03-04_13-57-59
1772632684570249700,5.193249755859375,0.0545878416907042,0.0473282990165054,-0.0237532160311937,0.0473848655819892,-0.0264857634902,0.027976693585515,standing,2026-03-04_13-57-59
1772632684580198700,5.20319873046875,0.0374303523964248,0.0618115823991596,0.0225222129315137,0.0433199182152748,-0.0292200334370136,0.0332298465073108,standing,2026-03-04_13-57-59
1772632684590147800,5.21314794921875,-0.0096015940220095,0.0528930935367941,0.0525268905729055,0.0261404011398553,-0.0251206308603286,0.0347433201968669,standing,2026-03-04_13-57-59
1772632684600095700,5.223095703125,-0.0270313061201013,0.0317598507456481,0.0645855771571397,0.0041995565406978,-0.0109909642487764,0.0356206931173801,standing,2026-03-04_13-57-59
1772632684610044700,5.233044677734375,-0.0249215839571319,0.0440044152908027,0.0600403349429368,-0.0133155211806297,0.0093665048480033,0.0385794639587402,standing,2026-03-04_13-57-59
1772632684619993600,5.24299365234375,-0.0216547093819826,0.0286506326839327,0.0430161349058151,-0.0268673300743103,0.0243788845837116,0.0395636446774005,standing,2026-03-04_13-57-59
1772632684629942500,5.252942626953125,-0.047878863837663,0.0053974751293659,0.0187613990932703,-0.0279328599572181,0.034907691180706,0.0411351732909679,standing,2026-03-04_13-57-59
1772632684639892000,5.26289208984375,-0.0708782292942516,0.0079898297101259,-0.0100666359841823,-0.0182250663638114,0.0384475700557231,0.0376954972743988,standing,2026-03-04_13-57-59
1772632684649839600,5.272839599609375,-0.0837357563722878,-0.0031719080343842,-0.0127636199831962,-0.0051279072649776,0.0264649428427219,0.0266476385295391,standing,2026-03-04_13-57-59
1772632684659788500,5.28278857421875,-0.0697417543439194,-0.0294936593793332,0.0229500829547643,0.0081489421427249,0.0047010495327413,0.0189544484019279,standing,2026-03-04_13-57-59
1772632684669737500,5.292737548828125,-0.0564695272514596,-0.0265723651051521,0.0511485879570245,0.021703366190195,-0.0134081784635782,0.0161022040992975,standing,2026-03-04_13-57-59
1772632684679687000,5.30268701171875,-0.0566783476965501,-0.0023961013562977,0.0846042828351259,0.0266119446605443,-0.0250133015215396,0.0104339187964797,standing,2026-03-04_13-57-59
1772632684689635800,5.3126357421875,-0.0487761049383319,0.0133940268412232,0.082035893651843,0.0181404277682304,-0.0276381112635135,0.0102906404063105,standing,2026-03-04_13-57-59
1772632684702693600,5.325693603515625,-0.0401424061004072,0.0204465757012367,0.1013058267891407,0.0029320647008717,-0.0134639739990234,0.0149526130408048,standing,2026-03-04_13-57-59
1772632684712642600,5.335642578125,-0.0313723857980221,0.0341645737998187,0.1038064114332199,-0.0132080223411321,-0.0038707361090928,0.0149680599570274,standing,2026-03-04_13-57-59
1772632684722591700,5.345591796875,-0.0440140416356734,0.0522888440333306,0.08793488856256,-0.0210771523416042,0.0051017263904213,0.0150000480934977,standing,2026-03-04_13-57-59
1772632684732540700,5.355540771484375,-0.0537686525286175,0.053741088668257,0.0608154109686613,-0.0286474525928497,0.0138789722695946,0.0131273148581385,standing,2026-03-04_13-57-59
1772632684742489600,5.365489501953125,-0.077280223557353,0.0590951630473136,0.0268505975246429,-0.0303206406533718,0.0152716683223843,0.0101037416607141,standing,2026-03-04_13-57-59
1772632684752438800,5.375438720703125,-0.057216875020042,0.0459590564899146,0.0042494741380214,-0.0264617204666137,0.0061846962198615,0.0067529520019888,standing,2026-03-04_13-57-59
1772632684762386700,5.38538671875,0.0051103470173664,0.0480108744531869,-0.0220364752411842,-0.0160766765475273,-0.0071316417306661,0.0105932718142867,standing,2026-03-04_13-57-59
1772632684772335900,5.3953359375,0.0499656435164622,0.0813959883131086,-0.0820487531334161,0.0020940713584423,-0.0023097223602235,0.0173896588385105,standing,2026-03-04_13-57-59
1772632684782284800,5.405284912109375,0.0626886026957072,0.1291523034833371,-0.0889613090008497,0.0180274751037359,0.0027133990079164,0.0226196870207786,standing,2026-03-04_13-57-59
1772632684792233700,5.415233642578125,0.0351769474464468,0.0824354143634438,-0.0126660048276185,0.0190924741327762,-0.0091171618551015,0.0223232768476009,standing,2026-03-04_13-57-59
1772632684802182700,5.4251826171875,0.0055846865308471,0.0327832024440169,0.090534841927886,0.0099902180954813,-0.0272207930684089,0.0138780595734715,standing,2026-03-04_13-57-59
1772632684812130800,5.435130859375,-0.0201457478574477,0.0155766315773129,0.0972638579219579,-0.0030627334490418,-0.0207106955349445,0.0120077207684516,standing,2026-03-04_13-57-59
1772632684822079700,5.445079833984375,-0.0275740712272934,0.0524202153280377,0.0390735347598791,-0.0152712669223546,0.0043951841071248,0.0161440279334783,standing,2026-03-04_13-57-59
1772632684832028700,5.455028564453125,-0.0235496562831103,0.0824453512355685,0.0247352128058671,-0.0249625109136104,0.0223044101148843,0.0196721833199262,standing,2026-03-04_13-57-59
1772632684841977600,5.4649775390625,-0.0023986586395651,0.04145896859169,0.0613701222419738,-0.0290911979973316,0.0296282395720481,0.0206492003053426,standing,2026-03-04_13-57-59
1772632684851926800,5.4749267578125,0.0077154149492271,0.0240165431424975,0.0600029255419969,-0.0256634429097175,0.0337023399770259,0.0228066276758909,standing,2026-03-04_13-57-59
1772632684861875700,5.484875732421875,-0.0079264273514039,0.0179227563120424,0.0858317788034677,-0.0236714221537113,0.0155146829783916,0.0214772894978523,standing,2026-03-04_13-57-59
1772632684871824000,5.494823974609375,-0.015418628004007,-0.0446348221488296,0.1598556309133768,-0.0217813774943351,-0.0282005723565816,0.0122483717277646,standing,2026-03-04_13-57-59
1772632684881772800,5.504772705078125,-0.0430890174789354,-0.0916670608282089,0.1272246964216232,-0.0221668854355812,-0.0494804307818412,0.0016484293155372,standing,2026-03-04_13-57-59
1772632684891721700,5.5147216796875,-0.1235605296245776,-0.0910443988852202,0.0384761533886194,-0.0220398530364036,-0.0474769324064254,-0.0115850837901234,standing,2026-03-04_13-57-59
1772632684901670700,5.524670654296875,-0.1484967996941879,-0.053742842233926,-0.0231318692624568,-0.0301073230803012,-0.0369124412536621,-0.0196368433535099,standing,2026-03-04_13-57-59
1772632684911619600,5.53461962890625,-0.0805538749331608,-0.0314227277457714,-0.0669774407297372,-0.0354972928762435,-0.0170721560716629,-0.013968039304018,standing,2026-03-04_13-57-59
1772632684921567700,5.544567626953125,-0.0363662850951775,0.0434222314886748,-0.1756593492448329,-0.0306460298597812,0.0186357721686363,-0.0009046593913808,standing,2026-03-04_13-57-59
1772632684931516700,5.5545166015625,-0.0337637379139661,0.1140315989799797,-0.2548094583272934,-0.0134505340829491,0.0469185449182987,0.0118018146604299,standing,2026-03-04_13-57-59
1772632684941465600,5.564465576171875,-0.0380377802376635,0.0860981746546924,-0.229257668441534,0.0083334660157561,0.049257468432188,0.0126101281493902,standing,2026-03-04_13-57-59
1772632684951414500,5.57441455078125,-0.0155684117382392,0.0232161865450441,-0.1058686046600341,0.0268355123698711,0.0278837401419878,0.0071538435295224,standing,2026-03-04_13-57-59
1772632684961363700,5.58436376953125,-0.0298442446489818,-0.0059383040077984,0.0344984819293022,0.0383014604449272,0.0059109292924404,-0.0012118315789848,standing,2026-03-04_13-57-59
1772632684971311900,5.594311767578125,-0.020052279154025,-0.0119103641547262,0.1502636267036199,0.0384237021207809,-0.0179472658783197,-0.0069315023720264,standing,2026-03-04_13-57-59
1772632684981260800,5.6042607421875,0.0146497625233605,-0.033384529338032,0.2786538597732782,0.0184217039495706,-0.0390857085585594,-0.0135065261274576,standing,2026-03-04_13-57-59
1772632684991209700,5.614209716796875,0.0357917366102337,-0.0438677832990884,0.3639683367043733,-0.0140217235311865,-0.0465012826025486,-0.0140761760994791,standing,2026-03-04_13-57-59
1772632685001158700,5.62415869140625,0.0222046166160143,-0.0270817759320139,0.3020247984886169,-0.0475492998957634,-0.0466761216521263,-0.0116272456943988,standing,2026-03-04_13-57-59
1772632685011107600,5.634107666015625,0.021890837959107,0.0126117904223501,0.1266179627001285,-0.0642241537570953,-0.0206237472593784,-0.0034926203079521,standing,2026-03-04_13-57-59
1772632685021056800,5.644056884765625,0.0359235462963581,0.0889034413337707,-0.0683101506382227,-0.0651730969548225,0.0170273557305336,0.0022215130738914,standing,2026-03-04_13-57-59
1772632685031004700,5.654004638671875,-0.0156981755977496,0.0981866718553006,-0.1681260311305522,-0.0494447313249111,0.0374194458127021,0.0050924005918204,standing,2026-03-04_13-57-59
1772632685040953600,5.66395361328125,0.0259094259507022,0.0726557786270976,-0.1919564040511846,-0.0277118626981973,0.0364155732095241,0.0073633231222629,standing,2026-03-04_13-57-59
1772632685051523600,5.674523681640625,0.0632216135938651,0.0450084777668118,-0.1468921044439077,0.0016393670812249,0.018901826813817,0.0073055317625403,standing,2026-03-04_13-57-59
1772632685061472800,5.68447265625,0.0612458017425611,0.0334470731802284,-0.0998345851927995,0.0202251523733139,-0.0059123104438185,0.0067638158798217,standing,2026-03-04_13-57-59
1772632685071421700,5.694421630859375,0.0714842506296932,0.0168479666873812,-0.0108791214108467,0.0260454900562763,-0.0243722796440124,0.0038420623168349,standing,2026-03-04_13-57-59
1772632685081370600,5.70437060546875,0.0565594705572351,-0.0073471478924155,0.0396370138615369,0.0213037449866533,-0.0382418856024742,0.0005646795034408,standing,2026-03-04_13-57-59
1772632685091318500,5.714318603515625,0.037033936957363,-0.0083959262929856,0.0418447530388832,0.0095914285629987,-0.0405977144837379,0.001738600898534,standing,2026-03-04_13-57-59
1772632685101267500,5.724267333984375,0.060013008544594,0.0280386382654309,-0.0069242463052272,-0.0027557765133678,-0.0204663518816232,0.0103296758607029,standing,2026-03-04_13-57-59
1772632685111217000,5.734216796875,0.0274250364117324,0.0753154993556439,-0.0423679001301527,-0.0125548765063285,0.0033199363388121,0.0164802484214305,standing,2026-03-04_13-57-59
1772632685121165800,5.744165771484375,0.0148362798050977,0.0608021130956709,-0.0784668029934167,-0.0199359506368637,0.023285262286663,0.0230274051427841,standing,2026-03-04_13-57-59
1772632685131114800,5.75411474609375,-0.0210670822197571,0.0454762414090335,-0.063712301453948,-0.0140048246830701,0.0432480499148368,0.0229629576206207,standing,2026-03-04_13-57-59
1772632685141063700,5.764063720703125,-0.0441265986320562,0.0314585297115147,-0.0206371298372745,-0.0097864400595426,0.0401479974389076,0.0168744940310716,standing,2026-03-04_13-57-59
1772632685151011600,5.774011474609375,-0.0213608592682518,-0.0099938630089163,0.0211672911912202,-0.0040526529774069,0.0189055558294057,0.0141711197793483,standing,2026-03-04_13-57-59
1772632685160960800,5.783960693359375,0.0145121806835755,-0.0238587222322821,0.0405506215751171,0.0099319871515035,0.0001423868816345,0.0169687420129776,standing,2026-03-04_13-57-59
1772632685170909700,5.79390966796875,-0.0020892638968303,-0.008657353708148,0.0019914660781621,0.0233042519539594,-0.014275967143476,0.0140150291845202,standing,2026-03-04_13-57-59
1772632685180858600,5.803858642578125,-0.0055644474604167,0.0115839086793363,0.0064782561033964,0.034950103610754,-0.0243758745491504,0.0116570377722382,standing,2026-03-04_13-57-59
1772632685190807600,5.8138076171875,-0.0224466634772717,-0.0035750820077955,0.0473988800346851,0.0338880345225334,-0.0263277050107717,0.0128392148762941,standing,2026-03-04_13-57-59
1772632685200755700,5.823755615234375,-0.021101715141721,-0.0089189272537827,0.0904968480050563,0.0255550406873226,-0.0221414789557456,0.0138984117656946,standing,2026-03-04_13-57-59
1772632685210705000,5.833704833984375,-0.058953873146791,-0.0414171752765774,0.1293318978339433,0.0055802664719522,-0.010369773954153,0.010067987255752,standing,2026-03-04_13-57-59
1772632685220653800,5.84365380859375,-0.0931447138990275,-0.0740498633340001,0.1604237861901521,-0.0174110010266304,-0.0045279981568455,0.0024227800313383,standing,2026-03-04_13-57-59
1772632685230602800,5.853602783203125,-0.0871142198294401,-0.0871241567015647,0.1576005454629659,-0.0408593341708183,-3.5245437175e-05,-0.0028606650885194,standing,2026-03-04_13-57-59
1772632685240551700,5.8635517578125,-0.0609545819773338,-0.0720322399012744,0.0773486126184463,-0.0457201898097991,0.0125271575525403,0.0010751946829259,standing,2026-03-04_13-57-59
1772632685250500600,5.87350048828125,-0.0741286824575625,-0.0336997327670454,-0.0430295789092779,-0.0385818518698215,0.0180851742625236,-0.0021874438971281,standing,2026-03-04_13-57-59
1772632685260448800,5.88344873046875,-0.0835384254355914,-0.0258159937798976,-0.1055699139744043,-0.0190337337553501,0.0178461503237485,-0.0086305998265743,standing,2026-03-04_13-57-59
1772632685270397700,5.893397705078125,-0.0715680016566999,-0.0183272454597055,-0.1157972934782504,0.0036428167950361,0.0131944073364138,-0.0154371066018939,standing,2026-03-04_13-57-59
1772632685280346600,5.9033466796875,-0.0289909157552756,-0.0089982761003077,-0.0825046802073717,0.0219179950654506,0.0025466859806329,-0.0156122036278247,standing,2026-03-04_13-57-59
1772632685290295600,5.913295654296875,0.0210224758930504,0.0082306527286767,-0.0096130469977855,0.0300235915929079,-0.0091397976502776,-0.0175781492143869,standing,2026-03-04_13-57-59
1772632685300244700,5.92324462890625,0.056681763496343,0.0205307468533515,0.0903805281490087,0.021248061209917,-0.0213831420987844,-0.0186491161584854,standing,2026-03-04_13-57-59
1772632685310192600,5.933192626953125,0.0737603058028966,0.0455092668958008,0.1569353595525026,0.0040477700531482,-0.0304514709860086,-0.0079610515385866,standing,2026-03-04_13-57-59
1772632685320141800,5.943141845703125,0.0874059145187027,0.0856048381797969,0.1048047748208046,-0.0111484490334987,-0.0195474252104759,0.000590399838984,standing,2026-03-04_13-57-59
1772632685330090800,5.9530908203125,0.0269272612237371,0.1224317630566656,0.0193242936730384,-0.0180393774062395,0.0079393265768885,0.0062525467947125,standing,2026-03-04_13-57-59
1772632685340039700,5.963039794921875,-0.0334465069246478,0.1120209898099303,-0.0177981070190668,-0.0215006880462169,0.0329536013305187,0.0037979108747094,standing,2026-03-04_13-57-59
1772632685349988600,5.972988525390625,-0.0077244202395901,0.0713629623375833,-0.0024257658421993,-0.0190005134791135,0.0452845692634582,0.0042272126302123,standing,2026-03-04_13-57-59
1772632685359937800,5.982937744140625,0.0686331903138197,0.057514908118546,0.0804056621015071,-0.0170891843736171,0.0300040170550346,0.0084044933319091,standing,2026-03-04_13-57-59
1772632685369885700,5.9928857421875,0.0877881370356306,0.0292022752173244,0.1469336054980754,-0.0160361696034669,-0.0092115635052323,0.0132828708738088,standing,2026-03-04_13-57-59
1772632685379834600,6.002834716796875,0.06992357718423,-0.0095090021014213,0.1638315488070249,-0.0156905986368656,-0.0379972718656063,0.0065951542928814,standing,2026-03-04_13-57-59
1772632685389783600,6.012783447265625,-0.0022838183545507,-0.0281665024287998,0.1452308932334184,-0.0229873936623334,-0.0703160613775253,0.0042632911354303,standing,2026-03-04_13-57-59
1772632685399732500,6.022732421875,-0.0090930691111367,2.64496155083e-05,-0.009901216289401,-0.022540720179677,-0.0562501773238182,0.0048893447965383,standing,2026-03-04_13-57-59
1772632685409682000,6.032681884765625,-0.0274030529087875,0.0382198405399918,-0.1780126343727111,-0.0153680276125669,-0.0222264304757118,0.0080670285969972,standing,2026-03-04_13-57-59
1772632685419629600,6.042629638671875,-0.0831755834725685,0.1023074050471186,-0.2159469359695911,-0.0084280297160148,0.0193211436271667,0.0119354659691452,standing,2026-03-04_13-57-59
1772632685429578800,6.052578857421875,-0.0778932591554708,0.0717116296447813,-0.1837286739319562,-0.001481972169131,0.0355352684855461,0.0173009373247623,standing,2026-03-04_13-57-59
1772632685439527700,6.062527587890625,-0.0470376820394769,0.0052954760596156,-0.0986871687233447,0.0086433440446853,0.032179020345211,0.0178651064634323,standing,2026-03-04_13-57-59
1772632685449476600,6.0724765625,-0.0398584745924919,-0.0133560329183936,-0.0296487038105726,0.0177287179976701,0.0181393660604953,0.0142213702201843,standing,2026-03-04_13-57-59
1772632685459425800,6.08242578125,-0.0681138608811423,-0.0520458290576934,0.0181587570250034,0.0268514659255743,0.0023465536069124,0.0077270688489079,standing,2026-03-04_13-57-59
1772632685469374700,6.092374755859375,-0.0700602457085624,-0.0814500565879046,0.0736690473228693,0.0279678646475076,-0.0136113734915852,-0.0022038591559976,standing,2026-03-04_13-57-59
1772632685479322600,6.102322509765625,-0.0790994292079936,-0.122793728236854,0.1140086564958095,0.0203624311834573,-0.0278793927282094,-0.0119737777858972,standing,2026-03-04_13-57-59
1772632685489271600,6.112271484375,-0.0910712229600641,-0.120333767864108,0.1328904670983552,0.0005895257927477,-0.0291595738381147,-0.0232346877455711,standing,2026-03-04_13-57-59
1772632685499220700,6.122220703125,-0.0768135741599835,-0.0979243676573038,0.1117050557285547,-0.0203161649405956,-0.0160229913890361,-0.02487956546247,standing,2026-03-04_13-57-59
1772632685509169700,6.132169677734375,-0.0698161073549184,-0.0528473546989262,0.0242155728459358,-0.0360354706645011,0.0084229623898863,-0.0236569084227085,standing,2026-03-04_13-57-59
1772632685519118800,6.142118896484375,-0.0794889217159245,-0.0257223241470754,-0.0469978980183601,-0.0397938974201679,0.0264645405113697,-0.0247087888419628,standing,2026-03-04_13-57-59
1772632685529067800,6.15206787109375,-0.0507196219552308,0.0096345281772315,-0.1023006830453872,-0.0293939840048551,0.0406626500189304,-0.0199750214815139,standing,2026-03-04_13-57-59
1772632685539015700,6.162015625,-0.0071640281441621,0.0293770472623407,-0.1333434715628624,-0.0078619997948408,0.0405442751944065,-0.0172642432153224,standing,2026-03-04_13-57-59
1772632685548964900,6.17196484375,0.0203655463542789,0.0420090036898851,-0.1096627362459898,0.0156111009418964,0.0176195204257965,-0.0176996700465679,standing,2026-03-04_13-57-59
1772632685558913800,6.181913818359375,0.0328419103613123,0.0479475999586284,-0.0564952096819877,0.0321832671761512,-0.0063187042251229,-0.0165910255163908,standing,2026-03-04_13-57-59
1772632685568862700,6.19186279296875,0.0428314990539103,0.0326397023200988,-0.0003811082720756,0.040904588997364,-0.021036397665739,-0.0173239279538393,standing,2026-03-04_13-57-59
1772632685578811600,6.201811767578125,0.0330299620130099,0.0320255159445106,0.0777197840183973,0.0338336750864982,-0.0345940180122852,-0.0172301419079303,standing,2026-03-04_13-57-59
1772632685588759600,6.211759521484375,0.0088051281483843,-0.0007381050162017,0.1255330900728702,0.0190826915204525,-0.0415318198502063,-0.0220733657479286,standing,2026-03-04_13-57-59
1772632685598708700,6.221708740234375,0.0082944843456614,0.0094929277494549,0.028847908821702,0.0101966289803385,-0.0147623885422945,-0.0185990203171968,standing,2026-03-04_13-57-59
1772632685608657700,6.23165771484375,0.0135853207627777,0.0806312875509262,-0.0868190362751483,0.0080093750730156,0.0252350959926843,-0.0064084003679454,standing,2026-03-04_13-57-59
1772632685618606800,6.24160693359375,0.0254310313166119,0.1105003561139106,-0.0323439342439174,0.0043356120586395,0.0376855060458183,0.0016518523916602,standing,2026-03-04_13-57-59
1772632685628555800,6.2515556640625,0.038532523218356,0.0477978162243962,0.0823842686980962,-0.002968106418848,0.0182793159037828,0.0022049909457564,standing,2026-03-04_13-57-59
1772632685638504700,6.261504638671875,0.0132274381026625,-0.0226838332340121,0.0972545055717229,-0.0044911690056324,0.0085593117401003,-0.0026739202439785,standing,2026-03-04_13-57-59
1772632685648452600,6.27145263671875,-0.0173863296140916,-0.0297356514416635,0.0387555548518896,0.0032218783162534,0.0120272794738411,-0.0048079108819365,standing,2026-03-04_13-57-59
1772632685658401500,6.281401611328125,-0.0222916373123414,-0.0069753919705748,0.05003799636662,0.0064941952005028,-0.0023420732468366,-0.0092720845714211,standing,2026-03-04_13-57-59
1772632685668350500,6.2913505859375,0.0361542863123118,-0.0178418000303208,0.0454044913470745,0.0131193408742547,-0.0176738910377025,-0.0042909081093966,standing,2026-03-04_13-57-59
1772632685678299400,6.30129931640625,0.0660353375740349,-0.0017715397171676,-0.0149853876858949,0.0199981965124607,-0.0140658393502235,0.0037978272885084,standing,2026-03-04_13-57-59
1772632685688248300,6.311248291015625,-0.0077943619369529,0.0111969551883637,-0.0310556479990482,0.0271410606801509,-0.0018240868812426,0.0032521458342671,standing,2026-03-04_13-57-59
1772632685698196500,6.321196533203125,-0.107047932371404,-0.0257753695085644,0.0510287609696388,0.0219255704432725,-0.016888789832592,-0.0110314097255468,standing,2026-03-04_13-57-59
1772632685708145400,6.3311455078125,-0.1263083487616851,-0.0978955799542367,0.083453359234333,0.0081959096714854,-0.0275696646422147,-0.0263347327709198,standing,2026-03-04_13-57-59
1772632685718094300,6.34109423828125,-0.075245502859354,-0.0753055624835193,0.0455652348667383,-0.0013687876053154,-0.0026901485398411,-0.0239596832543611,standing,2026-03-04_13-57-59
1772632685728043500,6.35104345703125,-0.0644526349598541,-0.0024709201581776,-0.0362555547297,-0.0052708513103425,0.0272064991295337,-0.0175483897328376,standing,2026-03-04_13-57-59
1772632685737992400,6.360992431640625,-0.0400259401138871,0.0179155959188938,-0.0125426707088947,-0.0082079675048589,0.0277473870664834,-0.0165610574185848,standing,2026-03-04_13-57-59
1772632685747941400,6.37094140625,-0.0311062274088151,-0.0021317513316869,0.0218120188355445,-0.0056209727190434,0.0134906889870762,-0.0170508120208978,standing,2026-03-04_13-57-59
1772632685757889500,6.3808896484375,-0.0266529925933107,0.0011700666926801,-0.0042243396967649,0.0038808742538094,0.0109734702855348,-0.0157032944262027,standing,2026-03-04_13-57-59
1772632685767838500,6.39083837890625,-0.0598849251855164,0.035284810001403,-0.0147509944081306,0.0187250673770904,0.0126027911901474,-0.0164769422262907,standing,2026-03-04_13-57-59
1772632685777787400,6.400787353515625,-0.0401765458320267,0.026957711160928,0.0243558580994606,0.0264262910932302,-0.0085843885317444,-0.0257370062172412,standing,2026-03-04_13-57-59
1772632685787736300,6.410736328125,-0.0097424637974239,0.0196735455021262,0.0948433527767658,0.0265458654612302,-0.0233425609767436,-0.030462522059679,standing,2026-03-04_13-57-59
1772632685797685500,6.420685546875,0.0208652029721066,0.0258349907413125,0.0880272430211305,0.0200234502553939,-0.0175487212836742,-0.0235262475907802,standing,2026-03-04_13-57-59
1772632685807634400,6.430634521484375,0.0216504898645915,0.0623117870062589,0.0993728128999471,0.0035161122214049,-0.013764102011919,-0.0193615965545177,standing,2026-03-04_13-57-59
1772632685817582300,6.440582275390625,0.0084391991791315,0.0451772584624588,0.0941167920678854,-0.0148198027163743,-0.0109386295080184,-0.0168789569288492,standing,2026-03-04_13-57-59
1772632685827531300,6.45053125,0.0072108994931913,0.0382680635958909,0.0489864414870738,-0.0280154999345541,0.0088454615324735,-0.0117326648905873,standing,2026-03-04_13-57-59
1772632685837480400,6.46048046875,-0.0091687920953147,0.0570405686050653,0.0087245737254619,-0.0280667133629322,0.0282419361174106,-0.0071423547342419,standing,2026-03-04_13-57-59
1772632685847429600,6.4704296875,-0.0115228444081731,0.021953911524266,-0.0310386968642473,-0.0182620175182819,0.0334886275231838,-0.0047324602492153,standing,2026-03-04_13-57-59
1772632685857378600,6.480378662109375,0.0452813581577502,0.0213278885804116,-0.0637280835449695,0.0031899656169116,0.0234495773911476,-0.0010275121312588,standing,2026-03-04_13-57-59
1772632685867326500,6.490326416015625,0.0658161601317115,0.0366283335648477,0.0071492872327566,0.0189074091613292,-0.0075107356533408,-0.002897317521274,standing,2026-03-04_13-57-59
1772632685877275400,6.500275390625,0.0327747268766164,0.0173521168172359,0.1026303533911704,0.0201333537697792,-0.0527828782796859,-0.0082046473398804,standing,2026-03-04_13-57-59
1772632685887224300,6.510224365234375,0.0167841807361692,-0.0353720498934388,0.1397580147802829,0.0099606113508343,-0.0866127461194992,-0.0182269215583801,standing,2026-03-04_13-57-59
1772632685897173500,6.520173583984375,-0.0333155557550489,-0.0123350193075835,0.0492979916542768,-0.0026023783721029,-0.0696674510836601,-0.0196418035775423,standing,2026-03-04_13-57-59
1772632685907122400,6.530122314453125,-0.0724603839191608,0.0703733667783439,-0.0719850397586822,-0.0148121733218431,-0.0210216213017702,-0.0158710349351167,standing,2026-03-04_13-57-59
1772632685917071400,6.5400712890625,-0.0363942325480282,0.11621303467229,-0.1286257953912019,-0.0269251521676778,0.0150499697774648,-0.0061903996393084,standing,2026-03-04_13-57-59
1772632685927019300,6.550019287109375,0.0277839419851545,0.1174425764672458,-0.1349281104058027,-0.0288964230567216,0.0448502078652381,0.0098005514591932,standing,2026-03-04_13-57-59
1772632685936968400,6.559968505859375,0.0696758860334754,0.1280081018842756,-0.1443687234461307,-0.0141250640153884,0.0617399737238884,0.0229764003306627,standing,2026-03-04_13-57-59
1772632685946917600,6.569917724609375,0.0147608764813281,0.0956691360764205,-0.120009358215332,0.0077400216832757,0.0504993051290512,0.0202487912029027,standing,2026-03-04_13-57-59
1772632685956866600,6.579866455078125,-0.0184617220269516,0.0193916598208248,0.0007131167054176,0.0266065932810306,0.0164706259965896,0.011164803057909,standing,2026-03-04_13-57-59
1772632685966815500,6.5898154296875,-0.0281053102934733,-0.0474231376931071,0.0896288329988718,0.039619330316782,-0.0168865304440259,-0.0012657684274017,standing,2026-03-04_13-57-59
1772632685976763400,6.599763427734375,-0.0444482135355472,-0.0577833497963845,0.1343582015633583,0.0388786680996418,-0.0341015942394733,-0.0091166235506534,standing,2026-03-04_13-57-59
