time,seconds_elapsed,acc_x,acc_y,acc_z,gyr_x,gyr_y,gyr_z,activity,session
1772632275707380500,0.07438037109375,-0.1334955933846533,0.0578141833260655,-0.0790448951423168,0.0223269872367382,0.0152977360412478,-0.0620472654700279,standing,2026-03-04_13-51-15
1772632275717329400,0.084329345703125,-0.0721150228139013,0.0477742892183363,0.0152232880949974,0.011080602183938,0.0024378998205065,-0.0638728216290474,standing,2026-03-04_13-51-15
1772632275727277600,0.094277587890625,-0.0134984370637685,0.0253789175368845,0.0982546225249767,-0.0021976521238684,-0.0190910939127206,-0.0640688315033912,standing,2026-03-04_13-51-15
1772632275737226500,0.1042265625,0.0383971698682755,0.0355596814200282,0.0928109701663255,-0.0127382911741733,-0.0313714668154716,-0.0605788081884384,standing,2026-03-04_13-51-15
1772632275747174400,0.11417431640625,0.0891391863184049,0.0791287740334868,0.0531757098704576,-0.010865556076169,-0.0197470374405384,-0.0445764064788818,standing,2026-03-04_13-51-15
1772632275757123600,0.12412353515625,0.1125723766149952,0.1070952238455414,0.0171744221627712,-0.0136894397437572,0.004523036070168,-0.0252298265695571,standing,2026-03-04_13-51-15
1772632275767071500,0.134071533203125,0.1090638935700058,0.0954248059265315,0.0258791221439838,-0.0155866760760545,0.0056231878697872,-0.0157108884304761,standing,2026-03-04_13-51-15
1772632275777020400,0.1440205078125,0.0318509996278211,0.0261963713996112,0.0876280145704746,-0.0153714139014482,-0.0161377489566802,-0.0245700068771839,standing,2026-03-04_13-51-15
1772632275786968600,0.153968505859375,-0.0101916140707209,-0.0407967052906751,0.1363806473016738,-0.0200404692441225,-0.0472075194120407,-0.0414981245994567,standing,2026-03-04_13-51-15
1772632275796916500,0.16391650390625,0.0243471268037334,-0.0390855174586176,0.1249193420886993,-0.0281256884336471,-0.0828229710459709,-0.0508369021117687,standing,2026-03-04_13-51-15
1772632275806865400,0.173865478515625,0.1036869497720152,0.0323601547263562,0.0571510432422161,-0.0317763499915599,-0.1043255999684333,-0.0446735508739948,standing,2026-03-04_13-51-15
1772632275816813600,0.1838134765625,0.1345666566822677,0.0888721694126725,-0.0558054738521575,-0.0269252322614192,-0.0939921215176582,-0.0315101332962513,standing,2026-03-04_13-51-15
1772632275826762500,0.193762451171875,0.119878717572987,0.153147803837806,-0.1645043335020542,-0.0196968801319599,-0.0527908913791179,-0.0160092040896415,standing,2026-03-04_13-51-15
1772632275836710400,0.20371044921875,0.091407861902751,0.1851572454303502,-0.2061164468288421,-0.0160033404827117,-0.022974669933319,0.0042518600821495,standing,2026-03-04_13-51-15
1772632275846659600,0.21365966796875,0.0566848505025729,0.1611718280784785,-0.217538004553318,-0.0099438512697815,-0.0024443608708679,0.015584141947329,standing,2026-03-04_13-51-15
1772632275856607500,0.223607421875,0.0190975722450762,0.1251601651072502,-0.18651918143332,1.1641532182e-06,0.0134134013205766,0.0238894894719123,standing,2026-03-04_13-51-15
1772632275866556700,0.233556640625,0.0055170463884249,0.1251888066798448,-0.1066132855474948,0.0100316945463418,0.0149172898381948,0.029123667627573,standing,2026-03-04_13-51-15
1772632275876504600,0.243504638671875,-0.0178606873938813,0.060615358351916,-0.0273532863497734,0.0138321164995431,-0.006354194600135,0.025527399033308,standing,2026-03-04_13-51-15
1772632275886453500,0.25345361328125,-0.0995522245874628,-0.033456279399991,0.0056102410972118,0.0123631162568926,-0.0304693840444087,0.0085327038541436,standing,2026-03-04_13-51-15
1772632275896401700,0.263401611328125,-0.1105411630483344,-0.047270285218954,0.0040910687059164,0.0106709767132997,-0.0304367244243621,-0.0001761214807629,standing,2026-03-04_13-51-15
1772632275906350600,0.2733505859375,-0.0508204519812017,-0.0290834711432456,0.0124561614692211,0.0061997957527637,-0.0189979132264852,0.0026260565500706,standing,2026-03-04_13-51-15
1772632275916298800,0.283298828125,0.0059903264559805,-2.36731365323e-05,0.0431745403379201,-0.0029690945520997,-0.0106770861893892,0.0122229000553488,standing,2026-03-04_13-51-15
1772632275926247700,0.29324755859375,0.0295562762867659,0.0123987321935594,0.0388280355662107,-0.0095183411613106,-0.0061545055359601,0.0261102207005023,standing,2026-03-04_13-51-15
1772632275936195600,0.303195556640625,0.0384927757298573,0.0039057752668857,0.0365741191595792,-0.0073742866516113,-0.0006181960925459,0.0383512787520885,standing,2026-03-04_13-51-15
1772632275946144500,0.31314453125,0.0040174920130521,-0.0087310034662485,0.0505839398115873,0.0005198554135859,-0.0165755897760391,0.0413318909704685,standing,2026-03-04_13-51-15
1772632275956092700,0.3230927734375,-0.0224138571862131,-0.0595377922482788,0.0512567245066165,0.0076791965402662,-0.0374129936099052,0.035719022154808,standing,2026-03-04_13-51-15
1772632275966041600,0.33304150390625,-0.0729341206444427,-0.1346688749477267,0.0149836341202259,0.009913588874042,-0.0492368973791599,0.0239385310560464,standing,2026-03-04_13-51-15
1772632275975989500,0.342989501953125,-0.0734478788528591,-0.1231144846238195,-0.0020236147820949,0.011189691722393,-0.0373710766434669,0.0149821732193231,standing,2026-03-04_13-51-15
1772632275985938400,0.3529384765625,-0.0678370897663757,-0.105033322879672,0.0227139361113309,0.0035770465619862,-0.0299648288637399,0.0090265460312366,standing,2026-03-04_13-51-15
1772632275995886600,0.362886474609375,-0.1051255677403882,-0.1164925822660327,0.0390250194430351,-0.0091554019600152,-0.0221182014793157,-0.0019118112977594,standing,2026-03-04_13-51-15
1772632276005834500,0.37283447265625,-0.1035344991566613,-0.0898037511743605,0.0499468109518289,-0.0227183494716882,-0.0071690808981657,-0.0087891584262251,standing,2026-03-04_13-51-15
1772632276015783400,0.382783447265625,-0.0621544410200789,-0.0515321804471313,0.0226303494811058,-0.0264078378677368,0.0020288145169615,-0.0071953642182052,standing,2026-03-04_13-51-15
1772632276025731600,0.392731689453125,-0.077731803249754,-0.018870120164752,-0.0232914437383413,-0.023110844194889,0.0108398832380771,-0.0076995003037154,standing,2026-03-04_13-51-15
1772632276035680500,0.402680419921875,-0.0844781357048079,-0.0030544191345572,-0.0411836587816476,-0.0184336863458156,0.0228667240589857,-0.0043904716148972,standing,2026-03-04_13-51-15
1772632276045628700,0.412628662109375,-0.0552731936063617,0.0240521989777684,0.002898059529066,-0.0097834737971425,0.0221636500209569,-0.001026100362651,standing,2026-03-04_13-51-15
1772632276055577600,0.42257763671875,-0.0344131052007898,0.0052262102156877,0.0482844306975603,-0.0020304452627897,-0.0066192331723868,0.0002061333507299,standing,2026-03-04_13-51-15
1772632276065525500,0.432525390625,-0.0317278847048059,0.0105661099389195,0.0504015689820051,0.0090674795210361,-0.0282813869416713,-0.0003776315134018,standing,2026-03-04_13-51-15
1772632276075474400,0.442474365234375,-0.0329309038190171,0.0368165496133267,0.0352221200287342,0.0197656713426113,-0.0345720797777175,0.0058599337935447,standing,2026-03-04_13-51-15
1772632276085422600,0.452422607421875,-0.0489589689582586,0.0746640497095882,0.0342886385709047,0.0261854883283376,-0.0396267585456371,0.0115596307441592,standing,2026-03-04_13-51-15
1772632276095371500,0.46237158203125,-0.0983435063848272,0.0273166076011955,0.0451712671130895,0.0264117028564214,-0.0483371540904045,0.0066205826587975,standing,2026-03-04_13-51-15
1772632276105319400,0.4723193359375,-0.1534485768826678,0.0098968323752284,0.0442950688004493,0.0190560519695281,-0.0405724421143531,0.0012093058321624,standing,2026-03-04_13-51-15
1772632276115268400,0.482268310546875,-0.1477708965724334,-0.0192919988386333,0.0775175394445657,0.0023135724477469,-0.0344566106796264,-0.0003984498325735,standing,2026-03-04_13-51-15
1772632276125216500,0.492216552734375,-0.1481829845046624,-0.0187342188253998,0.0881038153886795,-0.0144920386373996,-0.0441987216472625,-0.0052014607936143,standing,2026-03-04_13-51-15
1772632276135165400,0.50216552734375,-0.1307162648644298,-0.0419407607592642,0.0165367087811231,-0.0176005773246288,-0.032205831259489,-0.0037660736124962,standing,2026-03-04_13-51-15
1772632276145113300,0.51211328125,-0.0939892566980794,-0.0118280926987528,-0.0344774391412735,-0.0139957219362258,-0.0127391889691352,0.0042553674429655,standing,2026-03-04_13-51-15
1772632276155062500,0.5220625,-0.08326656795796,0.0119898591317236,-0.0404208577156066,-0.0114764105528593,0.0061154700815677,0.0063348663970828,standing,2026-03-04_13-51-15
1772632276165010400,0.532010498046875,-0.096292090280354,-0.0258924200169742,-0.0411059173703193,-0.0053689843043684,0.0220702029764652,0.0069290176033973,standing,2026-03-04_13-51-15
1772632276174959600,0.541959716796875,-0.1103378590285778,-0.0568362782046198,0.0068745619446039,-0.0049548968672752,0.0330618359148502,0.0016024396754801,standing,2026-03-04_13-51-15
1772632276184907500,0.551907470703125,-0.1278761095350608,-0.0635384061917662,0.1234527766674757,-0.0143265603110194,0.019834715873003,-0.0035132262855768,standing,2026-03-04_13-51-15
1772632276194856700,0.561856689453125,-0.082469097437337,-0.0923817849688231,0.2025818429619073,-0.0273000933229923,-0.0038922745734453,-0.0101482421159744,standing,2026-03-04_13-51-15
1772632276204804600,0.5718046875,-0.0214398975875228,-0.0885302241072058,0.1943622961491346,-0.0334783606231212,-0.0091783832758665,-0.0071151675656437,standing,2026-03-04_13-51-15
1772632276214753500,0.58175341796875,0.0092949574919417,-0.040802550509572,0.2020470054328441,-0.0329485014081001,-0.008681483566761,0.0006312923505902,standing,2026-03-04_13-51-15
1772632276224701700,0.59170166015625,-0.0198248636063188,-0.0274390649370849,0.2102197904944419,-0.0346127115190029,-0.0209261663258075,-0.001713088247925,standing,2026-03-04_13-51-15
1772632276234649900,0.60164990234375,-0.0125591469196602,-0.071356970988214,0.1477823312819004,-0.028498325496912,-0.0299915373325347,-0.0100802183151245,standing,2026-03-04_13-51-15
1772632276244598000,0.611597900390625,-0.0339070188421756,-0.0818235660754144,0.1125011745423078,-0.0212326906621456,-0.0367525033652782,-0.0130877261981368,standing,2026-03-04_13-51-15
1772632276254545700,0.621545654296875,-0.0654973947724327,-0.0420573728762567,0.1104389813154935,-0.0201290398836135,-0.0634978413581848,-0.0250648632645607,standing,2026-03-04_13-51-15
1772632276264494800,0.631494873046875,-0.0334034532342106,-0.0126832482233643,0.0868190362751483,-0.0268505904823541,-0.0901169329881668,-0.0300359185785055,standing,2026-03-04_13-51-15
1772632276274443000,0.641443115234375,0.0528985368968918,0.0327113062515854,0.0425683911383152,-0.0362329259514808,-0.083244003355503,-0.0204181727021932,standing,2026-03-04_13-51-15
1772632276284392000,0.651391845703125,0.0535707005374133,0.1110758179143071,-0.0042816228419542,-0.0492419339716434,-0.0679539963603019,-0.0036362644750624,standing,2026-03-04_13-51-15
1772632276294339800,0.66133984375,0.0030365181516855,0.1675657668992876,-0.054167058995366,-0.0594160109758377,-0.0548994019627571,0.0102117322385311,standing,2026-03-04_13-51-15
1772632276304288800,0.671288818359375,-0.0087274598022922,0.1497277662612497,-0.0775017573535442,-0.06708325445652,-0.037406962364912,0.0266777910292148,standing,2026-03-04_13-51-15
1772632276314237000,0.68123681640625,-0.0009616115737706,0.1421289816953241,-0.1173328324824571,-0.0611701533198356,-0.0279026962816715,0.0442858710885047,standing,2026-03-04_13-51-15
1772632276324185900,0.691185791015625,-0.0536309428246691,0.0784396227255463,-0.1915109983712434,-0.0411200150847435,-0.018980573862791,0.0486705005168914,standing,2026-03-04_13-51-15
1772632276334133800,0.7011337890625,-0.1731082765225321,0.0405776557125151,-0.2436012510925531,-0.0114164669066667,-0.0158981122076511,0.040858656167984,standing,2026-03-04_13-51-15
1772632276344083000,0.7110830078125,-0.2271654819352552,-0.0181591954164206,-0.212002582257986,0.0165147669613361,-0.0186278522014617,0.0268427077680826,standing,2026-03-04_13-51-15
1772632276354030800,0.72103076171875,-0.2240963036229833,-0.0852057558596134,-0.1202566109746694,0.0361242815852165,-0.0350889638066291,0.0164226032793521,standing,2026-03-04_13-51-15
1772632276363979800,0.730979736328125,-0.1505912512227892,-0.1047236724086105,-0.0430249027341604,0.0453707799315452,-0.0518178753554821,0.013075808994472,standing,2026-03-04_13-51-15
1772632276373928000,0.740927978515625,-0.0819288530807942,-0.152947166699171,0.0273252292990684,0.0441045202314853,-0.0648503005504608,0.017240347340703,standing,2026-03-04_13-51-15
1772632276383876900,0.750876953125,-0.0848384203845635,-0.1895677553489804,0.0861579420179128,0.0307445079088211,-0.0739628449082374,0.0159851983189582,standing,2026-03-04_13-51-15
1772632276393824800,0.76082470703125,-0.1129073076577857,-0.2016796334251761,0.084275781533122,0.0182400736957788,-0.0728668123483657,0.0160250905901193,standing,2026-03-04_13-51-15
1772632276403773700,0.770773681640625,-0.1130295457979664,-0.223039816839993,0.0138075760781764,0.0130695477128028,-0.0611835196614265,0.0122769577428698,standing,2026-03-04_13-51-15
1772632276413721900,0.780721923828125,-0.1687592144675552,-0.2532366560526192,-0.0484223778635263,0.0081798480823636,-0.0427942834794521,0.001264207297936,standing,2026-03-04_13-51-15
1772632276423670800,0.7906708984375,-0.229076758916676,-0.2667864579774439,-0.0812011963933706,0.0087321875616908,-0.0271301008760929,-0.0121109867468476,standing,2026-03-04_13-51-15
1772632276433618700,0.80061865234375,-0.227492923791334,-0.2671310336314141,-0.0665764587134122,0.0091683976352214,-0.0173745155334472,-0.0276485681533813,standing,2026-03-04_13-51-15
1772632276443567900,0.81056787109375,-0.1873442706132307,-0.2532576988406479,-0.0326800343304872,0.007767841219902,-0.0134026762098073,-0.0364537797868251,standing,2026-03-04_13-51-15
1772632276453515800,0.820515869140625,-0.1767673104867339,-0.2357597438119351,0.0144318454563617,0.0002015829086303,-0.0113815739750862,-0.0474265441298484,standing,2026-03-04_13-51-15
1772632276463463700,0.830463623046875,-0.1619172030856832,-0.1943226947911083,0.0526823733955621,-0.0067463377490639,-0.0193223226815462,-0.0520037189126014,standing,2026-03-04_13-51-15
1772632276473412900,0.840412841796875,-0.1121318663058802,-0.1663503997601568,0.0736789841949939,-0.010181600227952,-0.0229629352688789,-0.0567471608519554,standing,2026-03-04_13-51-15
1772632276483360800,0.85036083984375,-0.1140343754589557,-0.1232158991716802,0.0433136565476655,-0.0028368686325848,-0.0153348417952656,-0.0570246614515781,standing,2026-03-04_13-51-15
1772632276493309700,0.860309814453125,-0.1247534474698826,-0.055442778019607,-0.0102647889047861,0.0087957065552473,-0.0087890224531292,-0.0557596161961555,standing,2026-03-04_13-51-15
1772632276503257900,0.8702578125,-0.0805732372207567,-0.0030041502520442,-0.0143330612570047,0.0208273343741893,-0.0111280772835016,-0.050079096108675,standing,2026-03-04_13-51-15
1772632276513206800,0.880206787109375,-0.0413676005138084,0.0102931382164359,-0.001469488030672,0.028827279806137,-0.016931127756834,-0.0494460016489028,standing,2026-03-04_13-51-15
1772632276523154700,0.89015478515625,-0.0202339558638632,0.044428047530353,0.0509703087806701,0.0324616953730583,-0.0177993196994066,-0.0459242351353168,standing,2026-03-04_13-51-15
1772632276533103600,0.900103515625,-0.0067364686481654,0.0848532891601324,0.1242412966966629,0.0228833369910717,-0.0132876876741647,-0.0433404259383678,standing,2026-03-04_13-51-15
1772632276543051800,0.9100517578125,0.0029147184029221,0.0938411899968981,0.1932289082050323,0.0024025626480579,-0.0200553126633167,-0.0394420884549617,standing,2026-03-04_13-51-15
1772632276553000700,0.920000732421875,0.0617329642049968,0.087714816071093,0.2232265715837478,-0.0212100129574537,-0.0315678305923938,-0.0321855321526527,standing,2026-03-04_13-51-15
1772632276562948600,0.929948486328125,0.0730782052902504,0.0786814686574041,0.1637438705235719,-0.0395402833819389,-0.0236121714115142,-0.0282887928187847,standing,2026-03-04_13-51-15
1772632276572897800,0.939897705078125,0.0197752523109316,0.1090825982704758,0.10130699583292,-0.054236426949501,-0.00816629268229,-0.0239732265472412,standing,2026-03-04_13-51-15
1772632276582845700,0.949845703125,-0.0022563275594264,0.1192056406170129,0.0707207189112901,-0.0623492114245891,-0.0033627492375671,-0.0213358979672193,standing,2026-03-04_13-51-15
1772632276592795000,0.959794921875,0.0339868426127359,0.0907267112381756,0.0580517914742231,-0.070253387093544,-0.0094252694398164,-0.0194680765271186,standing,2026-03-04_13-51-15
1772632276602742800,0.96974267578125,0.054213820746541,0.074093848606199,-0.0224818809211254,-0.0702099725604057,-0.0082846377044916,-0.008205035701394,standing,2026-03-04_13-51-15
1772632276612692000,0.97969189453125,0.0547273962918668,0.1216882512129843,-0.1354810681134462,-0.0550285875797271,0.0105676017701625,0.0005681137554347,standing,2026-03-04_13-51-15
1772632276622639900,0.989639892578125,0.0308261866247281,0.1431630009181797,-0.1797773059576749,-0.0391031503677368,0.0286936070770025,0.0097365789115428,standing,2026-03-04_13-51-15
1772632276632588800,0.9995888671875,0.0308105871967971,0.1105082471594214,-0.1144996548831462,-0.0266481172293424,0.030517354607582,0.0182870253920555,standing,2026-03-04_13-51-15
1772632276642537000,1.009536865234375,0.0645167497046291,0.0493231260955333,-0.0460053798496723,-0.0207159239798784,0.0111732156947255,0.0206572376191616,standing,2026-03-04_13-51-15
1772632276652486000,1.01948583984375,0.0514338346391916,0.01357245214805,-0.024976035824418,-0.0133716631680727,-0.0034708792809396,0.026089621707797,standing,2026-03-04_13-51-15
1772632276662433800,1.029433837890625,-0.0063080141030251,0.0030782384015619,-0.0279541748523712,-0.0067004445008933,-0.008930891752243,0.0283013768494129,standing,2026-03-04_13-51-15
1772632276672382700,1.0393828125,-0.0202581769896671,-0.0104689331747591,-0.0189104521751403,3.87942418456e-05,-0.0053230607882142,0.026402685791254,standing,2026-03-04_13-51-15
1772632276682331000,1.049330810546875,-0.0277726077403873,-0.0470103191085159,-0.0096317516982555,0.001382625196129,0.001630985410884,0.0303255226463079,standing,2026-03-04_13-51-15
1772632276692278800,1.05927880859375,-0.04870576138217,-0.0747786159999668,0.0103968908518552,0.0013762656599283,0.0142216775566339,0.0270163565874099,standing,2026-03-04_13-51-15
1772632276702227700,1.069227783203125,-0.0941108007185161,-0.1346643449030816,0.0497106641083955,-0.0022211326286196,0.0184731464833021,0.017815401777625,standing,2026-03-04_13-51-15
1772632276712175900,1.07917578125,-0.1055505151541903,-0.1687096762374043,0.1421224058240652,-0.0146163674071431,0.0017586397007107,-0.0012686067493632,standing,2026-03-04_13-51-15
1772632276722124800,1.089124755859375,-0.0895303410604596,-0.1941426620490849,0.1737690054535865,-0.0302352756261825,-0.024558451026678,-0.0118946190923452,standing,2026-03-04_13-51-15
1772632276732072700,1.09907275390625,-0.0703926925333216,-0.148441379712522,0.1071814408242702,-0.0425510480999946,-0.0301216468214988,-0.012321263551712,standing,2026-03-04_13-51-15
1772632276742022000,1.10902197265625,-0.1012902273612096,-0.0752720986053347,0.0108902273267507,-0.0440666526556015,-0.0253212992101907,-0.0119137996807694,standing,2026-03-04_13-51-15
1772632276751969800,1.1189697265625,-0.1229348354742862,-0.0314338336616754,-0.061785717305541,-0.0411036983132362,-0.0146398693323135,-0.0094967763870954,standing,2026-03-04_13-51-15
1772632276761918700,1.128918701171875,-0.1555132177948951,-0.0138256962567567,-0.1395423262029886,-0.0283772498369216,0.0023143466096371,-0.0042916280217468,standing,2026-03-04_13-51-15
1772632276771867000,1.138866943359375,-0.1731719711421988,0.0096695994906127,-0.1863157678157091,-0.0084411837160587,0.0217161085456609,-0.0012515115085989,standing,2026-03-04_13-51-15
1772632276781815800,1.14881591796875,-0.1639704823536798,0.0138053841210901,-0.1669803682267665,0.0100427521392703,0.031025456264615,-0.0011071681510657,standing,2026-03-04_13-51-15
1772632276791763700,1.158763671875,-0.1668044271379709,-0.0047875265374779,-0.1097059908658266,0.0236067362129688,0.0251547526568174,-0.0067634442821145,standing,2026-03-04_13-51-15
1772632276801712600,1.168712646484375,-0.1489983560081571,-0.0448180697612464,-0.0221621474474668,0.0280512850731611,0.0226383320987224,-0.0082646682858467,standing,2026-03-04_13-51-15
1772632276811660800,1.178660888671875,-0.1357393537234515,-0.0385370897956192,0.0695937607079744,0.0222329124808311,0.0147993639111518,-0.0138704804703593,standing,2026-03-04_13-51-15
1772632276821609700,1.188609619140625,-0.1142378256091848,-0.0524795442998409,0.1381996794223785,0.0076169520616531,-0.0037737875245511,-0.0201337039470672,standing,2026-03-04_13-51-15
1772632276831557600,1.1985576171875,-0.0597486585199832,-0.0463777202934026,0.1365735395252704,-0.0058589661493897,-0.0076456270180642,-0.0188022814691066,standing,2026-03-04_13-51-15
1772632276841506800,1.2085068359375,-0.0229493523024022,-0.0155716631412506,0.1057902787268161,-0.0207910444587469,0.0056752380914986,-0.0126011101529002,standing,2026-03-04_13-51-15
1772632276851454700,1.218454833984375,-0.0440638903930783,0.008584580732882,0.0839309136182069,-0.0243910085409879,0.0173416063189506,-0.0131472684442996,standing,2026-03-04_13-51-15
1772632276861403600,1.228403564453125,-0.0542747206209227,0.000765577545017,0.0626946488440036,-0.0297727230936288,0.025433087721467,-0.0159867312759161,standing,2026-03-04_13-51-15
1772632276871351800,1.238351806640625,-0.0253645967505872,-0.0075685355581343,0.0217132346361875,-0.0290952399373054,0.0289121363312006,-0.0157003439962863,standing,2026-03-04_13-51-15
1772632276881300700,1.24830078125,-0.0365603828951716,0.0149131992325186,-0.0259463421612977,-0.0173384472727775,0.0302530359476804,-0.0150020625442266,standing,2026-03-04_13-51-15
1772632276891248600,1.25824853515625,-0.0518139199979603,0.045059477301687,-0.0561591095954179,0.0036931955255568,0.0111640729010105,-0.0221495777368545,standing,2026-03-04_13-51-15
1772632276901196800,1.26819677734375,-0.0219803976723924,0.0326388255372643,-0.0620201105833053,0.021286305040121,-0.0123537704348564,-0.0287014860659837,standing,2026-03-04_13-51-15
1772632276911145700,1.278145751953125,0.0124240127652883,0.0446130487084388,-0.0599310293495655,0.0294251777231693,-0.022829882800579,-0.0255827512592077,standing,2026-03-04_13-51-15
1772632276921093600,1.28809375,0.0250243319455534,0.0941797743014991,-0.031509236985445,0.0245161727070808,-0.0131892394274473,-0.0203461777418851,standing,2026-03-04_13-51-15
1772632276931042800,1.298042724609375,0.039883791696839,0.1065019341275095,0.0245493348449468,0.008280555717647,0.0010131858289241,-0.0117782782763242,standing,2026-03-04_13-51-15
1772632276940990700,1.30799072265625,0.0833123433284461,0.1236459611520171,0.0529816486030817,-0.0135624259710311,0.0153404604643583,0.0005676038563251,standing,2026-03-04_13-51-15
1772632276950940000,1.31793994140625,0.0861059561023488,0.1415166950158774,0.0704278734445571,-0.0311190448701381,0.0266652517020702,0.0149373989552259,standing,2026-03-04_13-51-15
1772632276960887800,1.3278876953125,0.050026890450716,0.1328369833454489,0.0639537089943885,-0.0425607860088348,0.034448605030775,0.0169978868216276,standing,2026-03-04_13-51-15
1772632276970837000,1.3378369140625,-0.0112346568502485,0.0801388278588652,0.0300292275607585,-0.0474705696105957,0.0394099131226539,0.0108650624752044,standing,2026-03-04_13-51-15
1772632276980785000,1.347784912109375,-0.0440452587578445,0.0821368698082864,-0.0129021516710519,-0.0416797921061515,0.0399201773107051,0.0033035483211278,standing,2026-03-04_13-51-15
1772632276990733800,1.35773388671875,-0.0308377309320494,0.0892911254771053,-0.0503898785442113,-0.0323959216475486,0.0387900546193122,0.0020636373665183,standing,2026-03-04_13-51-15
1772632277000682000,1.367681884765625,-0.0026136165644973,0.1195955167174339,-0.0482131190270185,-0.021507054567337,0.0385298617184162,0.0098107727244496,standing,2026-03-04_13-51-15
1772632277010631000,1.377630859375,0.0449096570348367,0.1123150043204426,-0.0047281975656747,-0.0097725261002779,0.0258037652820348,0.0172819700092077,standing,2026-03-04_13-51-15
1772632277020578800,1.387578857421875,0.036465580751188,0.0792974085986614,0.0232838449537754,-0.000186210963875,0.0045842300169169,0.0229124259203672,standing,2026-03-04_13-51-15
1772632277030527700,1.39752783203125,0.0197975372079759,0.0577444790907204,0.0310182385981082,0.0101778097450733,-0.0056161503307521,0.0285079702734947,standing,2026-03-04_13-51-15
1772632277040476000,1.407475830078125,-0.0201088316468521,0.0615663754664361,0.022775310909748,0.018715638667345,-0.005875542294234,0.0332851484417915,standing,2026-03-04_13-51-15
1772632277050424800,1.4174248046875,-0.0513939044876024,0.0544121197976171,0.0304658654123544,0.0208390168845653,-0.0029249964281916,0.0342111214995384,standing,2026-03-04_13-51-15
1772632277060372700,1.427372802734375,-0.0947492447525262,0.0187615452237427,0.0585223315954208,0.0159593075513839,-0.0095109939575195,0.0301484689116477,standing,2026-03-04_13-51-15
1772632277070322000,1.437322021484375,-0.127634300135821,-0.0327574834808707,0.0687374361395835,0.0072822915390133,-0.0093089658766984,0.0227053463459014,standing,2026-03-04_13-51-15
1772632277080269800,1.447269775390625,-0.1473955969866365,-0.0184513102307915,0.0471773462384939,-0.0015785782597959,0.0035032357554882,0.0171870086342096,standing,2026-03-04_13-51-15
1772632277090217700,1.4572177734375,-0.1560240899264812,-0.0292851311951875,0.0578624063819646,-0.011993158608675,0.0164449494332075,0.0111133195459842,standing,2026-03-04_13-51-15
1772632277100167000,1.4671669921875,-0.143110759274289,-0.0733760557256639,0.093804072856903,-0.0244769938290119,0.0192423332482576,0.0048562232404947,standing,2026-03-04_13-51-15
1772632277110114800,1.47711474609375,-0.1279639704816043,-0.0608925678580999,0.1461111831992864,-0.038651056587696,0.0049952385015785,0.0036257305182516,standing,2026-03-04_13-51-15
1772632277120063700,1.487063720703125,-0.1221655133359134,-0.0750748224675655,0.1519295140892267,-0.0461523830890655,-0.007928017526865,0.0047783465124666,standing,2026-03-04_13-51-15
1772632277130012000,1.497011962890625,-0.1274147756336257,-0.0647124184072017,0.081302903202176,-0.0384194403886795,-0.0095256650820374,0.0040700575336813,standing,2026-03-04_13-51-15
1772632277139960800,1.5069609375,-0.1718376355322077,-0.0574276682265102,-9.11854147911e-05,-0.0267862193286418,-0.0016333869425579,0.0016393905971199,standing,2026-03-04_13-51-15
1772632277149908700,1.51690869140625,-0.1857785191338509,-0.074689622542262,-0.0614069471210241,-0.0025965943932533,0.0062739164568483,-0.0013210254255682,standing,2026-03-04_13-51-15
1772632277159857700,1.526857666015625,-0.1969465770212933,-0.1061192184202372,-0.001497545081377,0.0147288665175437,-0.0019552507437765,-0.0135489292442798,standing,2026-03-04_13-51-15
1772632277169805800,1.536805908203125,-0.2075595948418602,-0.1669442740000784,0.1144803656607866,0.0122997239232063,-0.0358804799616336,-0.0294337719678878,standing,2026-03-04_13-51-15
1772632277179754800,1.546754638671875,-0.1834989568293094,-0.2005503371343016,0.2238344743490219,-0.0043072160333395,-0.0728725865483284,-0.0512101761996746,standing,2026-03-04_13-51-15
1772632277189702700,1.55670263671875,-0.1924770669244229,-0.1992037448309361,0.221402278766036,-0.0345164164900779,-0.1050964370369911,-0.0740355402231216,standing,2026-03-04_13-51-15
1772632277199651800,1.56665185546875,-0.1656533939393237,-0.1481900352999567,0.0755915398180484,-0.0624623000621795,-0.0995972827076911,-0.0842745900154113,standing,2026-03-04_13-51-15
1772632277209599700,1.576599853515625,-0.1068205716226249,-0.0114002226755023,-0.1604366456717252,-0.073834016919136,-0.0523542426526546,-0.0748381167650222,standing,2026-03-04_13-51-15
1772632277219548700,1.586548583984375,-0.0521030391376465,0.11681465382725,-0.3665419865846633,-0.065444529056549,0.00585633283481,-0.0553403198719024,standing,2026-03-04_13-51-15
1772632277229496800,1.596496826171875,-0.0090784286644309,0.1642202558636665,-0.4663169505447149,-0.0465794242918491,0.0547956638038158,-0.0356639325618743,standing,2026-03-04_13-51-15
1772632277239446500,1.606446533203125,0.0502657407078891,0.1834678310386836,-0.381684610658884,-0.0205387659370899,0.0648996978998184,-0.0102813430130481,standing,2026-03-04_13-51-15
1772632277249394400,1.61639453125,0.1199341375546529,0.1226877836443483,-0.3276309489101171,0.008675786666572,0.0544080398976802,0.0063488730229437,standing,2026-03-04_13-51-15
1772632277259343400,1.62634326171875,0.0610882000280544,0.0849964970231056,-0.2326443882703781,0.0413687527179718,0.0301085598766803,0.00843146443367,standing,2026-03-04_13-51-15
1772632277269291500,1.63629150390625,-0.0142232076743617,0.0282348914898931,-0.1234089375257492,0.0639287903904914,0.00324323377572,-0.002242796588689,standing,2026-03-04_13-51-15
1772632277279239400,1.646239501953125,-0.0621721958724781,-0.0645959524206817,-0.0325520240366458,0.065592736005783,0.0037774636875838,-0.0258197598159313,standing,2026-03-04_13-51-15
1772632277289188400,1.656188232421875,-0.1263778703339398,-0.0466727577172219,0.0277244577497243,0.049904316663742,0.0057961400598287,-0.0379499271512031,standing,2026-03-04_13-51-15
1772632277299136500,1.666136474609375,-0.0700836996493861,0.0096874274082481,0.1230856969207525,0.0304006580263376,0.0150341130793094,-0.0443979725241661,standing,2026-03-04_13-51-15
1772632277309085400,1.67608544921875,0.0088526205519214,-0.0082829674378037,0.1410439629375934,0.0050073033198714,0.0167877990752458,-0.0492878556251525,standing,2026-03-04_13-51-15
1772632277319033300,1.686033447265625,0.0503152789380401,0.0482721557378768,0.1323673200070858,-0.016373885795474,0.0308428965508937,-0.0368924364447593,standing,2026-03-04_13-51-15
1772632277328982300,1.695982177734375,0.0645836409283801,0.077238284111768,0.0512543864190578,-0.0241765491664409,0.0496889129281044,-0.0227110590785741,standing,2026-03-04_13-51-15
1772632277338930400,1.705930419921875,0.0547389040665701,0.0367839625179767,-0.0366167892575263,-0.0232598893344402,0.0675810948014259,-0.0169791374355554,standing,2026-03-04_13-51-15
1772632277348879400,1.71587939453125,-0.0089327000508084,0.0365783569432795,-0.02014203979671,-0.0173283442854881,0.0712274834513664,-0.0156824961304664,standing,2026-03-04_13-51-15
1772632277358827300,1.7258271484375,-0.0504350693928077,0.0017364684037864,0.0011941782206296,-0.0130515741184353,0.0672782808542251,-0.0212945751845836,standing,2026-03-04_13-51-15
1772632277368776400,1.7357763671875,-0.0893910787202417,-0.0632129736296832,0.0568430002063512,-0.016624504700303,0.0435103401541709,-0.0321938171982765,standing,2026-03-04_13-51-15
1772632277378724400,1.745724365234375,-0.091207188231498,-0.0397169472299516,0.0735083038032054,-0.0110284034162759,0.0249553006142377,-0.0381033718585968,standing,2026-03-04_13-51-15
1772632277388673300,1.75567333984375,-0.066730589829199,-0.0094103640325367,0.0741384184002876,-0.0017009545117616,0.0065803276374936,-0.0369858182966709,standing,2026-03-04_13-51-15
1772632277398621400,1.765621337890625,-0.0480153314325958,0.0149244512788951,0.0471451975345611,0.0118617266416549,-0.0139483828097581,-0.035263817757368,standing,2026-03-04_13-51-15
1772632277408570400,1.7755703125,-0.0031163053896278,0.032716713079065,-0.0129027361929416,0.0276231504976749,-0.0186067949980497,-0.0284483581781387,standing,2026-03-04_13-51-15
1772632277418518300,1.785518310546875,-0.012894881680049,0.0684875530317425,-0.0350274742394685,0.0446932129561901,-0.0071911560371518,-0.0198282394558191,standing,2026-03-04_13-51-15
1772632277428467200,1.79546728515625,-0.062917278618738,0.066120970030874,-0.0058691842943429,0.0494600050151348,0.0027640066109597,-0.0207757912576198,standing,2026-03-04_13-51-15
1772632277438415400,1.805415283203125,-0.0825621094830334,0.0292576586663722,0.0503647441029548,0.0428332611918449,0.0026518874801695,-0.0255329962819814,standing,2026-03-04_13-51-15
1772632277448364300,1.8153642578125,-0.0534587645955383,0.0078534899793565,0.1289192253798246,0.0246637724339962,0.0056705633178353,-0.0228249803185462,standing,2026-03-04_13-51-15
1772632277458312200,1.825312255859375,-0.0368891764581203,0.033051497991383,0.1885655925691127,0.0018900167196989,0.00700294226408,-0.0199431739747524,standing,2026-03-04_13-51-15
1772632277468260400,1.83526025390625,-0.0464698555562645,0.0045857203550636,0.2278746896505355,-0.0200433284044265,-0.0025164256803691,-0.025317046791315,standing,2026-03-04_13-51-15
1772632277478209300,1.845209228515625,-0.0359350175384432,-0.0124316115498542,0.2257452764064073,-0.0355213545262813,-0.0202613342553377,-0.0259410254657268,standing,2026-03-04_13-51-15
1772632277488157200,1.8551572265625,-0.0326452552780509,0.0018326222546398,0.1238742169499397,-0.0429639890789985,-0.0327266678214073,-0.0237366706132888,standing,2026-03-04_13-51-15
1772632277498106400,1.8651064453125,-0.0372962228890508,0.0400489556632936,0.0157318221390247,-0.0357260517776012,-0.0271380245685577,-0.02313719317317,standing,2026-03-04_13-51-15
1772632277508054300,1.87505419921875,-0.0541338143128901,0.0524088171511888,-0.0921615663468837,-0.0195410512387752,-0.019733041524887,-0.023802688345313,standing,2026-03-04_13-51-15
1772632277518003200,1.885003173828125,-0.0412055052872747,0.0554762418977916,-0.1437245803236961,-0.0023817722685635,-0.0183814875781536,-0.0226298328489065,standing,2026-03-04_13-51-15
1772632277527951400,1.894951416015625,-0.0005742196913808,0.0702877343215048,-0.1443546949207782,0.015359429642558,-0.0119993798434734,-0.0146801266819238,standing,2026-03-04_13-51-15
1772632277537900500,1.904900634765625,0.0469858422543853,0.094384210832417,-0.1298228962212801,0.0298041477799415,-0.0020796381868422,-0.0032879230566322,standing,2026-03-04_13-51-15
1772632277547848200,1.91484814453125,0.0676663728419691,0.1125299622453749,-0.0582774169236421,0.0331882573664188,0.0004826956428587,0.0048524653539061,standing,2026-03-04_13-51-15
1772632277557797400,1.92479736328125,0.0331659181512892,0.0505289947539567,0.0208060566633939,0.0260126367211341,-0.0123271085321903,0.0035874641034752,standing,2026-03-04_13-51-15
1772632277567745500,1.93474560546875,-0.0206789231523871,0.0001348784260451,0.0747685329973697,0.0146220568567514,-0.0215344261378049,-0.0046108230017125,standing,2026-03-04_13-51-15
1772632277577694500,1.944694580078125,-0.0514236420387402,0.0015193185217678,0.0671183105051517,0.0027161296457052,-0.0269824545830488,-0.0131686246022582,standing,2026-03-04_13-51-15
1772632277587642400,1.954642333984375,-0.0269467879081144,0.0275702901013195,0.0230938753396272,-0.0077546616084873,-0.005616701208055,-0.0133717209100723,standing,2026-03-04_13-51-15
1772632277597591300,1.96459130859375,0.0083179656859487,0.0447856287963688,-0.0321826062023639,-0.0114862825721502,0.033704075962305,-0.0064152786508202,standing,2026-03-04_13-51-15
1772632277607539500,1.97453955078125,0.0299613864889368,0.0671349693790078,-0.0163286189883947,-0.0131818410009145,0.06569504737854,0.0071302442811429,standing,2026-03-04_13-51-15
1772632277617488400,1.98448828125,0.0589918853359296,0.0410391357444226,0.070853405380249,-0.0135472267866134,0.0646329745650291,0.0129101034253835,standing,2026-03-04_13-51-15
1772632277627436300,1.994436279296875,0.0309806830666959,-0.0355438993290066,0.1729348927170038,-0.0152938030660152,0.0246547292917966,0.0080948704853653,standing,2026-03-04_13-51-15
1772632277637385500,2.004385498046875,-0.0043695203211158,-0.1104237837463617,0.2042956611424684,-0.01859718747437,-0.0254364013671875,-0.0014791935682296,standing,2026-03-04_13-51-15
1772632277647333400,2.01433349609375,-0.018896460182406,-0.0929145766712725,0.160722476875782,-0.0188987720757722,-0.0548769310116767,-0.0080766091123223,standing,2026-03-04_13-51-15
1772632277657281300,2.02428125,-0.0189686121031641,-0.0347787601754069,0.0546294158101081,-0.0162217617034912,-0.0607460066676139,-0.0083298757672309,standing,2026-03-04_13-51-15
1772632277667230500,2.03423046875,-0.0499543732037767,-0.0094506960429251,-0.042574236357212,-0.0078616803511977,-0.0511527732014656,-0.0080841174349188,standing,2026-03-04_13-51-15
1772632277677178400,2.044178466796875,-0.0706255514411255,0.0038169279396533,-0.131876321619749,0.0005738828331232,-0.0244154334068298,-0.0063735693693161,standing,2026-03-04_13-51-15
1772632277687127300,2.054127197265625,-0.1151596896944567,0.0247583014205098,-0.1739484536737203,0.0090820929035544,0.0030924868769943,-0.0032743408810347,standing,2026-03-04_13-51-15
1772632277697075500,2.064075439453125,-0.0995981460884213,0.0482936369173228,-0.1598269893407821,0.0185498967766761,0.0260148476809263,0.0013909847475588,standing,2026-03-04_13-51-15
1772632277707024400,2.0740244140625,-0.0532778916032984,0.0458195018887519,-0.1130780976474285,0.0201103165745735,0.0366374142467975,0.0117271319031715,standing,2026-03-04_13-51-15
1772632277716972300,2.08397216796875,-0.0147887326026335,0.0166527363762259,-0.0181219321459531,0.0142082180827856,0.0308157429099082,0.0182119291275739,standing,2026-03-04_13-51-15
1772632277726921200,2.093921142578125,-0.0213426477581262,-0.0221292680911719,0.026960487639904,0.0112989814952015,0.0164341423660516,0.0179490745067596,standing,2026-03-04_13-51-15
1772632277736869400,2.103869384765625,-0.025016587030515,-0.0478349333643913,0.061658876055479,0.0106342565268278,0.0004423931241035,0.0162028409540653,standing,2026-03-04_13-51-15
1772632277746818300,2.113818359375,-0.0225691573457792,-0.0370344301477074,0.0419213254064321,0.0142486989498138,-0.0122933760285377,0.0138944126665592,standing,2026-03-04_13-51-15
1772632277756766200,2.12376611328125,-0.0275432194313034,-0.0095386665873229,0.0165893157511949,0.0233833417296409,-0.0192700587213039,0.0130339451134204,standing,2026-03-04_13-51-15
1772632277766715400,2.13371533203125,-0.031640937073715,-0.0064003685615956,0.0151350252896547,0.0288950446993112,-0.0239573810249567,0.0116396835073828,standing,2026-03-04_13-51-15
1772632277776663300,2.143663330078125,-0.0483255298929288,-0.0085809274710714,0.0309708923250436,0.0330732762813568,-0.0231512431055307,0.0086758518591523,standing,2026-03-04_13-51-15
1772632277786612200,2.1536123046875,-0.0276079552305862,0.0028936756148934,0.0369131418555974,0.0296213813126087,-0.014376719482243,0.0112196784466505,standing,2026-03-04_13-51-15
1772632277796560400,2.163560302734375,-0.0527705266030505,0.0077079440288245,0.0487339280307292,0.0207072496414184,-0.0007016533054411,0.011584797874093,standing,2026-03-04_13-51-15
1772632277806509300,2.17350927734375,-0.0981081632589921,0.0057015726424753,0.0679787267267704,0.0082461684942245,0.0092979064211249,0.0047717653214931,standing,2026-03-04_13-51-15
1772632277816457200,2.183457275390625,-0.0948776569051668,-0.0188404556788504,0.061121700438857,0.0032673890236765,0.0132588269189,-0.0027940087020397,standing,2026-03-04_13-51-15
1772632277826406100,2.19340625,-0.0647639293987304,0.0018486966066062,0.0606441460549831,-0.0058581647463142,0.0102916033938527,-0.0047076744958758,standing,2026-03-04_13-51-15
1772632277836354300,2.203354248046875,-0.0124955801641568,0.0417342784017324,0.0787222390592098,-0.0164570119231939,0.0065586501732468,-0.0002444828860461,standing,2026-03-04_13-51-15
1772632277846302200,2.21330224609375,0.0012037132339552,0.0466965769842267,0.086582889431715,-0.0212263949215412,0.0014821088407188,0.003702649148181,standing,2026-03-04_13-51-15
1772632277856251100,2.223251220703125,-0.0090561803000047,0.0459347988314926,0.0527373184531927,-0.0210138745605945,0.0006898182909935,0.0081336162984371,standing,2026-03-04_13-51-15
1772632277866199300,2.23319921875,-0.0587134337207302,0.0504525685168802,0.0240998375117778,-0.0152888856828212,-0.0003711075987666,0.0059910174459218,standing,2026-03-04_13-51-15
1772632277876148200,2.243148193359375,-0.0946498760312795,0.0356552507489919,0.0064794251471757,-0.0117261093109846,0.0010992235038429,0.003453291254118,standing,2026-03-04_13-51-15
1772632277886096100,2.25309619140625,-0.0738697940593585,0.0245437818869948,-0.0112204821944236,-0.0018610605038702,0.0045951134525239,0.0052670324221253,standing,2026-03-04_13-51-15
1772632277896045600,2.263045654296875,-0.0388862320268526,0.052200581227988,-0.036734862679243,0.0090472474694252,0.0095848124474287,0.0105403577908873,standing,2026-03-04_13-51-15
1772632277905993200,2.2729931640625,-0.0301593932790681,0.0630132132738828,-0.0302320566564798,0.0197821408510208,0.0056496537290513,0.0143283549696207,standing,2026-03-04_13-51-15
1772632277915942400,2.2829423828125,-0.0442437770046293,0.0233145323529839,0.0344143107771873,0.0248482711613178,-0.0050045880489051,0.0172359943389892,standing,2026-03-04_13-51-15
1772632277925890600,2.292890625,-0.0837651285972446,-0.0225377027615904,0.0751455496162176,0.0223278347402811,-0.0190832279622554,0.0104719288647174,standing,2026-03-04_13-51-15
1772632277935839500,2.302839599609375,-0.1153035551445558,-0.0520461213186383,0.1032809262543916,0.0144091919064521,-0.0308450795710086,0.0032888499554246,standing,2026-03-04_13-51-15
1772632277945787400,2.312787353515625,-0.0925367928674444,-0.0460965652644634,0.1206745441257953,0.0010054684244096,-0.0405770987272262,0.0012211825232952,standing,2026-03-04_13-51-15
1772632277955736300,2.322736328125,-0.0635640520896762,-0.0387457641102373,0.0829021550923585,-0.0153178451582789,-0.0303321834653615,0.0034417263232171,standing,2026-03-04_13-51-15
1772632277965684500,2.3326845703125,-0.0826752875339239,-0.0186747437231242,0.0004991816937923,-0.0278144665062427,-0.0022403213661164,0.0094626927748322,standing,2026-03-04_13-51-15
1772632277975633400,2.34263330078125,-0.1194045607225969,-0.0220559105940163,-0.0323164617151021,-0.0348731763660907,0.0134640727192163,0.0058919265866279,standing,2026-03-04_13-51-15
1772632277985581300,2.352581298828125,-0.1418299987487495,-0.0683734251327812,-0.0548036033332347,-0.0327073894441127,0.0163305178284645,0.0008214986883103,standing,2026-03-04_13-51-15
1772632277995530200,2.3625302734375,-0.1254899085182696,-0.0849164175242185,-0.1037152260184288,-0.0220203902572393,0.0179899334907531,0.0003871370572596,standing,2026-03-04_13-51-15
1772632278005478400,2.372478515625,-0.0760901369899511,-0.0619594664372503,-0.1398322490602731,-0.0021171025000512,0.0144106382504105,-0.0017317244783043,standing,2026-03-04_13-51-15
1772632278015426300,2.38242626953125,-0.0939035877086222,-0.0648443742237985,-0.1319277595460414,0.0213871579617261,0.008126376196742,-0.007388012483716,standing,2026-03-04_13-51-15
1772632278025375500,2.39237548828125,-0.0868910420654341,-0.0296519186809658,-0.0955114612966775,0.0325557254254817,0.0037763863801956,-0.0077844043262302,standing,2026-03-04_13-51-15
1772632278035323400,2.402323486328125,-0.0819562525443732,-0.0237942786939442,-0.0325292276829481,0.0350497774779796,0.0004301248118281,-0.0087476689368486,standing,2026-03-04_13-51-15
1772632278045272300,2.412272216796875,-0.0790241080826148,-0.0350096463218331,0.0588058247119188,0.0250456556677818,-0.0020926995202898,-0.013117485679686,standing,2026-03-04_13-51-15
1772632278055220500,2.422220458984375,-0.0316868220420554,-0.0275672213613986,0.1239209787011146,0.0142864845693111,0.0113014029338955,-0.0078755859285593,standing,2026-03-04_13-51-15
1772632278065169400,2.43216943359375,-0.0151881071837618,-0.019312018713355,0.1368891813457012,0.0008491831831634,0.0410724766552448,0.0016650296747684,standing,2026-03-04_13-51-15
1772632278075117300,2.442117431640625,-0.035583902545832,0.0023166063793003,0.1991851862609386,-0.0093390066176652,0.0374838672578334,-0.0018767083529382,standing,2026-03-04_13-51-15
1772632278085066200,2.452066162109375,-0.0574614974308758,-0.0540022238224744,0.2737164033710956,-0.0221793949604034,-0.0125153940171003,-0.017125803977251,standing,2026-03-04_13-51-15
1772632278095014400,2.462014404296875,-0.0370887176182121,-0.1151360530905425,0.2426221769273281,-0.0295725967735052,-0.0563070848584175,-0.0298533178865909,standing,2026-03-04_13-51-15
1772632278104963300,2.47196337890625,-0.0533774795202538,-0.0644596126899123,0.096142744937539,-0.02656726911664,-0.0708180591464042,-0.0360281951725482,standing,2026-03-04_13-51-15
1772632278114911200,2.4819111328125,-0.0695419574555009,0.0216242411784827,-0.0715033937215805,-0.0192188080400228,-0.063112735748291,-0.0374535210430622,standing,2026-03-04_13-51-15
1772632278124860200,2.491860107421875,-0.0298538709938526,0.0556884233437478,-0.2059668092250824,-0.007040599361062,-0.0414070934057235,-0.0283889528363943,standing,2026-03-04_13-51-15
1772632278134808300,2.501808349609375,0.02934351031892,0.0958573521248996,-0.2817231842160225,0.0033585121855139,-0.0064666867256164,-0.0078602414578199,standing,2026-03-04_13-51-15
1772632278144757200,2.51175732421875,0.0275908579653128,0.138445909268409,-0.3040565965771675,0.0169330909848213,0.0362898558378219,0.0181212294846773,standing,2026-03-04_13-51-15
1772632278154705400,2.521705322265625,-0.0316668386999517,0.1323420394353568,-0.2186409973591566,0.0290811024606227,0.050265859812498,0.0283206030726432,standing,2026-03-04_13-51-15
1772632278164654300,2.531654296875,-0.0644045580344274,0.0384834599122405,-0.1070247889578342,0.0380993485450744,0.036803163588047,0.0234598070383071,standing,2026-03-04_13-51-15
1772632278174602200,2.541602294921875,-0.0853793223282322,-0.0521450516484677,-7.0727148652e-05,0.040958784520626,0.0228628478944301,0.0127999726682901,standing,2026-03-04_13-51-15
1772632278184551200,2.55155126953125,-0.154316116964817,-0.085623250619322,0.0765413878887891,0.0371202491223812,0.0131159797310829,-0.004666862078011,standing,2026-03-04_13-51-15
1772632278194499300,2.561499267578125,-0.1364151706257834,-0.092999332345277,0.1430956347703933,0.0297345034778118,0.0029136762022972,-0.0122819049283862,standing,2026-03-04_13-51-15
1772632278204447200,2.571447265625,-0.0416087888585403,-0.0966812357284128,0.2154015770465135,0.0129496473819017,-0.0106381922960281,-0.0126583781093359,standing,2026-03-04_13-51-15
1772632278214396200,2.581396240234375,0.0005531769033521,-0.0752839351736009,0.2381803950875997,-0.0083979852497577,-0.0209155958145856,-0.0078369919210672,standing,2026-03-04_13-51-15
1772632278224344300,2.59134423828125,-0.0296763955350965,-0.0562400658771395,0.1984177090197801,-0.0278650261461734,-0.0228092595934867,-0.0071355607360601,standing,2026-03-04_13-51-15
1772632278234293200,2.601293212890625,-0.0744342230090871,-0.0466205891385674,0.1211556056410074,-0.0414199866354465,-0.0109374187886714,-0.007290557026863,standing,2026-03-04_13-51-15
1772632278244241000,2.611240966796875,-0.0977443349152803,-0.047232145165652,0.0174473938852548,-0.0465244837105274,0.013992816209793,-0.0103683676570653,standing,2026-03-04_13-51-15
1772632278254190000,2.621190185546875,-0.1083003253189846,-0.0461101553983986,-0.0519540591210126,-0.0387451238930225,0.0298801697790622,-0.0128509663045406,standing,2026-03-04_13-51-15
1772632278264138000,2.631137939453125,-0.1176547944458201,-0.0494118272922933,-0.0683908146589994,-0.0241992343217134,0.0238651260733604,-0.0206177961081266,standing,2026-03-04_13-51-15
1772632278274087200,2.641087158203125,-0.0781598559360951,-0.053954585288465,-0.0724251847416162,-0.0075640655122697,0.0022756778635084,-0.0241922922432422,standing,2026-03-04_13-51-15
1772632278284035000,2.65103515625,-0.0224260225480422,-0.0361545785732567,-0.061043374505639,0.0079326499253511,-0.0137627655640244,-0.0211376622319221,standing,2026-03-04_13-51-15
1772632278293984300,2.660984375,-0.0238050558162853,-0.0092513740785419,-0.0651940644443035,0.0173791497945785,-0.0183063857257366,-0.0175589080899953,standing,2026-03-04_13-51-15
1772632278303932200,2.67093212890625,-0.0251321031689643,0.0227766260839998,-0.0971276643216609,0.0241686757653951,-0.0155832078307867,-0.0137473233044147,standing,2026-03-04_13-51-15
1772632278313881000,2.680881103515625,-0.014506445062533,0.0332607568278908,-0.0839355897933244,0.0227201823145151,-0.0038913984317332,-0.0106820249930024,standing,2026-03-04_13-51-15
1772632278323829200,2.690829345703125,-0.0258291089897975,0.0436976874291896,-0.0942319428801536,0.0158723518252372,0.0101698795333504,-0.002332022646442,standing,2026-03-04_13-51-15
1772632278333778200,2.700778076171875,-0.0431751613924279,0.0573792990401387,-0.1186357317745685,0.0195509754121303,0.0342246145009994,0.002198813483119,standing,2026-03-04_13-51-15
1772632278343726000,2.71072607421875,-0.0519241754394024,0.0470366225935518,-0.1110299329459667,0.0301547329872846,0.0467443652451038,0.0021236713510006,standing,2026-03-04_13-51-15
1772632278353675000,2.720675048828125,-0.0342525078115984,0.0303353709004819,-0.0264852713435888,0.0345023460686206,0.0379737764596939,0.0009920941665768,standing,2026-03-04_13-51-15
1772632278363623200,2.730623046875,0.020856690872088,-0.0007758066780865,0.1135083057582378,0.0260105952620506,0.0175703130662441,0.0052227079868316,standing,2026-03-04_13-51-15
1772632278373572000,2.740572021484375,0.0480643947387114,-0.0279626504197716,0.1907148795574903,0.0136585878208279,0.0017178466077893,0.0115381283685565,standing,2026-03-04_13-51-15
1772632278383520000,2.75052001953125,0.021019918609783,-0.0287535085365176,0.2067763720422983,0.0029577342793345,-0.0079345917329192,0.0128793800249695,standing,2026-03-04_13-51-15
1772632278393468200,2.76046826171875,-0.0086817940296605,-0.0486908195413649,0.1978933928847313,-0.0099583305418491,-0.0158071629703044,0.0079972725361585,standing,2026-03-04_13-51-15
1772632278403417000,2.7704169921875,-0.0528061093730852,-0.0637219460651278,0.1724316193699836,-0.01678959839046,-0.0245337300002574,0.0029931098688393,standing,2026-03-04_13-51-15
1772632278413365200,2.780365234375,-0.067685406336002,-0.0557120964802801,0.0837286690443754,-0.0162095632404088,-0.0239486340433359,-0.0014762070495635,standing,2026-03-04_13-51-15
1772632278423314200,2.790314208984375,-0.0831850636869668,-0.0173559162095189,0.0133078098624944,-0.00498957792297,-0.0152341499924659,-0.0038824076764285,standing,2026-03-04_13-51-15
1772632278433262000,2.800261962890625,-0.0793905667748302,0.0145500650085508,-0.0292909764140844,0.0048119202256202,-0.0146413305774331,-0.0074830017983913,standing,2026-03-04_13-51-15
1772632278443211000,2.8102109375,-0.0871343858346343,0.0250698515877127,-0.0625853432506322,0.0128076616674661,-0.0056027164682745,-0.0030515475664287,standing,2026-03-04_13-51-15
1772632278453159200,2.8201591796875,-0.0433007240008562,0.0543089516840875,-0.054127896028757,0.0178668685257434,0.0063301096670329,0.0017503979615867,standing,2026-03-04_13-51-15
1772632278463108000,2.830108154296875,0.012861965791136,0.0696095427989959,-0.0349397959560155,0.0165622271597385,0.0120103536173701,0.0123049356043338,standing,2026-03-04_13-51-15
1772632278473056000,2.840055908203125,0.0484542708391323,0.0635701165042817,-0.0054074120014905,0.0104681150987744,0.0168154947459697,0.0239698477089405,standing,2026-03-04_13-51-15
1772632278483005000,2.8500048828125,-0.0174033355478197,0.0605300181560218,0.0758580817997455,0.0018383110873401,0.0097164483740925,0.022766575217247,standing,2026-03-04_13-51-15
1772632278492953000,2.859953125,-0.0832398260815069,0.0227678582556545,0.1116290678828954,-0.00488563766703,-0.0030443535652011,0.0153347589075565,standing,2026-03-04_13-51-15
1772632278502902000,2.869902099609375,-0.0887049230869859,-0.0045167467720806,0.0738747990280389,-0.0086584063246846,0.0027066303882747,0.0093746492639184,standing,2026-03-04_13-51-15
1772632278512850000,2.879849853515625,-0.0737790835686028,0.0274456408083438,0.0519546436429023,-0.0086538782343268,0.0207796413451433,0.0120993293821811,standing,2026-03-04_13-51-15
1772632278522799000,2.889799072265625,-0.0233338946405798,0.0454911467172205,0.0823591342568397,-0.0108028892427682,0.0269115231931209,0.0155405234545469,standing,2026-03-04_13-51-15
1772632278532747000,2.8997470703125,0.0326100013015791,-0.0024808570303022,0.1134112751245498,-0.0153334587812423,0.0199990198016166,0.0192455127835273,standing,2026-03-04_13-51-15
1772632278542696000,2.909696044921875,0.0582542917763814,-0.0440571683913469,0.1721416965126991,-0.0256730206310749,0.0095074148848652,0.023696755990386,standing,2026-03-04_13-51-15
1772632278552644000,2.91964404296875,0.0079748148040845,-0.0572471970930695,0.1755412758231163,-0.0328883230686187,-0.0106210233643651,0.0175054389983415,standing,2026-03-04_13-51-15
1772632278562593000,2.929593017578125,-0.0571123186670243,-0.0566803569905459,0.1054442417681217,-0.0358799993991851,-0.0243488140404224,0.0081783011555671,standing,2026-03-04_13-51-15
1772632278572541000,2.939541015625,-0.0580703865768387,-0.0332509660862386,0.0401706823468208,-0.0338562652468681,-0.0298865903168916,0.0089399656280875,standing,2026-03-04_13-51-15
1772632278582489000,2.949489013671875,-0.0365039400001987,0.0031317221544682,0.0010837035834789,-0.0344268083572387,-0.0328524522483348,0.0144283259287476,standing,2026-03-04_13-51-15
1772632278592438000,2.95943798828125,-0.0664622942818328,0.0218725168511271,-0.0667436319738626,-0.0312587134540081,-0.0351632758975029,0.0174925588071346,standing,2026-03-04_13-51-15
1772632278602386000,2.969385986328125,-0.0990744144752621,0.0064694882750511,-0.185728323316574,-0.0165223199874162,-0.0263419523835182,0.0235500782728195,standing,2026-03-04_13-51-15
1772632278612334800,2.9793349609375,-0.0867621184561401,0.031451369318366,-0.277492414778471,0.0043917498551309,0.005762985907495,0.0299134347587823,standing,2026-03-04_13-51-15
1772632278622283000,2.989282958984375,-0.1140512900611385,0.0611659779720008,-0.2883949170649051,0.0247029773890972,0.0349415019154548,0.0326637364923954,standing,2026-03-04_13-51-15
1772632278632232200,2.999232177734375,-0.123311833826825,0.0364271119043231,-0.2099614318192005,0.0380219779908657,0.0447533875703811,0.0317068621516227,standing,2026-03-04_13-51-15
1772632278642180000,3.00918017578125,-0.066013527601026,-0.0040042672052979,-0.0699801296770572,0.0415286608040332,0.0334060452878475,0.0306533761322498,standing,2026-03-04_13-51-15
1772632278652129300,3.01912939453125,-0.0411542500240728,-0.0411113241977989,0.0741238053530454,0.0354398749768734,0.0084056239575147,0.0286975502967834,standing,2026-03-04_13-51-15
1772632278662077200,3.0290771484375,-0.0284678599955514,-0.0614281360395252,0.178195589724183,0.0199089832603931,-0.0128024946898221,0.0230702497065067,standing,2026-03-04_13-51-15
1772632278672026000,3.039026123046875,-0.0174008513297885,-0.0832462923549115,0.1903898853868246,0.0011142552830278,-0.020067598670721,0.0223085843026638,standing,2026-03-04_13-51-15
1772632278681974300,3.048974365234375,-0.0447362366966903,-0.0680897858858108,0.120490419730544,-0.0096670016646385,-0.0125230588018894,0.018944825977087,standing,2026-03-04_13-51-15
1772632278691923200,3.058923095703125,-0.0848286296429112,-0.0517502071119844,0.044637014105916,-0.0111626330763101,0.0044404780492186,0.0143167842179536,standing,2026-03-04_13-51-15
1772632278701871000,3.06887109375,-0.0548398071577772,-0.0383886212356388,-0.0025409166544675,-0.0092582236975431,0.0168832298368215,0.0180475264787673,standing,2026-03-04_13-51-15
1772632278711820000,3.078820068359375,-0.0335593013830482,-0.0101309333920478,-0.0028033669829368,-0.0019363956525921,0.0138408336788415,0.0208355896174907,standing,2026-03-04_13-51-15
1772632278721768200,3.088768310546875,-0.0421255427416414,-0.0082698156952857,-0.0124900637388229,0.0134432455524802,0.0016978012863546,0.0185341220349073,standing,2026-03-04_13-51-15
1772632278731717000,3.098717041015625,-0.0578864083120599,0.0001795943506062,-0.0248942027598619,0.0284248571842908,-0.003714008256793,0.0168211758136749,standing,2026-03-04_13-51-15
1772632278741665000,3.1086650390625,-0.0582563741356134,0.0022844576753675,0.015397475618124,0.0343656837940216,-0.0061886114999651,0.014633173123002,standing,2026-03-04_13-51-15
1772632278751614200,3.1186142578125,-0.0848791177211329,-0.024337299529463,0.061835986188054,0.026605499908328,-0.0122310575097799,0.0082940515130758,standing,2026-03-04_13-51-15
1772632278761562000,3.12856201171875,-0.1184205546539276,-0.050109746428579,0.0887047038912773,0.0113244038075208,-0.0112870018929243,-0.001274992362596,standing,2026-03-04_13-51-15
1772632278771510000,3.138510009765625,-0.1192514525201171,-0.0248622001864016,0.1225210487753152,-0.0082362480461597,0.0035332227125763,-0.0038188439793884,standing,2026-03-04_13-51-15
1772632278781459200,3.148459228515625,-0.1040805521994829,-0.0006773147396743,0.1803741028070449,-0.0301061123609542,0.0011833971366286,-0.0040992805734276,standing,2026-03-04_13-51-15
1772632278791407000,3.158406982421875,-0.0790866884574294,0.0034745442427694,0.1226788696855306,-0.04317157715559,-0.0067504262551665,-0.003953605890274,standing,2026-03-04_13-51-15
1772632278801356000,3.16835595703125,-0.072589033533819,0.0181749775074422,-0.0139577982038259,-0.0390253029763698,0.0067355553619563,0.0044571897014975,standing,2026-03-04_13-51-15
1772632278811304200,3.17830419921875,-0.0751477415733039,0.0782316790632903,-0.1381441498428583,-0.0178819373250007,0.0374247580766677,0.0117598436772823,standing,2026-03-04_13-51-15
1772632278821253000,3.188253173828125,-0.099375552846305,0.0779616299502551,-0.1470189456939697,0.0028808619827032,0.0416501723229885,0.0114651238545775,standing,2026-03-04_13-51-15
1772632278831201000,3.198200927734375,-0.0603413271835073,0.0093605335414409,-0.0631482378304004,0.0159793533384799,0.0104890558868646,0.0100706927478313,standing,2026-03-04_13-51-15
1772632278841150000,3.20814990234375,0.021115926330164,-0.0383522347480058,-0.0104132574647665,0.0229078233242034,-0.0105359908193349,0.0156057206913828,standing,2026-03-04_13-51-15
1772632278851098000,3.21809814453125,0.0032354382572695,-0.0194023273453116,0.0124590840786695,0.0287734363228082,-0.0063977050594985,0.0183453150093555,standing,2026-03-04_13-51-15
1772632278861047000,3.228047119140625,-0.1017482733270153,-0.0425441334798932,0.1001285997033119,0.0225703455507755,-0.0138264624401927,0.0075628152117133,standing,2026-03-04_13-51-15
1772632278870995000,3.237994873046875,-0.142198576332815,-0.1159897473104298,0.1546329278290271,0.005390559323132,-0.0264035072177648,-0.005762577522546,standing,2026-03-04_13-51-15
1772632278880944000,3.247944091796875,-0.1103353748105466,-0.1341295073740184,0.143126029908657,-0.0168352294713258,-0.0172654092311859,-0.0077051380649209,standing,2026-03-04_13-51-15
1772632278890892000,3.25789208984375,-0.1021462596686556,-0.0669540598541498,0.1105968022257089,-0.032933235168457,-0.0095307901501655,-0.0097786746919155,standing,2026-03-04_13-51-15
1772632278900841000,3.267841064453125,-0.0618673311743885,-0.0194559572286903,0.0440910706609487,-0.038345381617546,-0.0167690124362707,-0.0073625408113002,standing,2026-03-04_13-51-15
1772632278910789000,3.2777890625,-0.02540021605324,-0.0143785078339278,-0.0622065730661153,-0.0340070910751819,-0.0074961520731449,-0.0023355584125965,standing,2026-03-04_13-51-15
1772632278920738000,3.287738037109375,-0.05287157582473,0.0075075991511344,-0.1705085423529148,-0.017154611647129,0.0136290285736322,0.0019988201092928,standing,2026-03-04_13-51-15
1772632278930686000,3.29768603515625,-0.0891964329309761,0.0373098860882222,-0.2131727950811386,0.0080317016690969,0.0281403288245201,-0.0022553133312612,standing,2026-03-04_13-51-15
1772632278940634000,3.307634033203125,-0.0684512396093458,0.036807635654509,-0.1689484534293413,0.0275023095309734,0.0291946455836296,-0.0047136656939983,standing,2026-03-04_13-51-15
1772632278950583000,3.3175830078125,-0.0396040614400058,0.0571234245829284,-0.0531979217022657,0.0339346416294574,0.0204549469053745,-0.0020153510849922,standing,2026-03-04_13-51-15
1772632278960531000,3.327531005859375,-0.0459781630491837,0.051886254581809,0.0883481455385685,0.0251643769443035,0.0072495331987738,-0.0002170263323932,standing,2026-03-04_13-51-15
1772632278970480000,3.337480224609375,-0.0429841688649728,0.0289377790622413,0.1804284633427858,0.009873304516077,-0.0007199761457741,-0.0027723293751478,standing,2026-03-04_13-51-15
1772632278980428000,3.347427978515625,-0.0294597936423495,0.0075273267649114,0.1907043581634759,-0.0038930941373109,0.0082829874008893,-0.0030860553961247,standing,2026-03-04_13-51-15
1772632278990377200,3.357377197265625,-0.0225210073551163,0.0253559750527143,0.2090361336678266,-0.0160429663956165,0.0273821149021387,1.33314169943e-05,standing,2026-03-04_13-51-15
1772632279000325000,3.3673251953125,-0.0443675495147705,-0.018624767101556,0.2182400153428316,-0.0305229928344488,0.0248297452926635,-0.0035872114822268,standing,2026-03-04_13-51-15
1772632279010274000,3.377274169921875,-0.0705659302083775,-0.0767348646342754,0.217157480803132,-0.0359979197382926,-0.0029270502272993,-0.0234719701111316,standing,2026-03-04_13-51-15
1772632279020222200,3.38722216796875,-0.0852857988258823,-0.0860823925636708,0.1885410426497459,-0.0376392975449562,-0.0372456274926662,-0.0354677997529506,standing,2026-03-04_13-51-15
1772632279030171100,3.397171142578125,-0.0658419338937848,-0.0297647314056754,0.1174193417221307,-0.042479857802391,-0.0588622391223907,-0.0419645830988884,standing,2026-03-04_13-51-15
1772632279040119300,3.407119384765625,-0.0110635380670428,0.0341410467937588,0.0281499896854162,-0.0480630509555339,-0.062012605369091,-0.0348224714398384,standing,2026-03-04_13-51-15
1772632279050068200,3.417068115234375,0.045153767989017,0.095897684135288,-0.1071831943899393,-0.0483986064791679,-0.0425976291298866,-0.0144050791859626,standing,2026-03-04_13-51-15
1772632279060016000,3.42701611328125,0.0358657516945153,0.1521273747488856,-0.251816706252098,-0.0375425405800342,-0.0066027864813804,0.0075614904053509,standing,2026-03-04_13-51-15
1772632279069965000,3.436965087890625,-0.0024664997113868,0.1758741610392928,-0.3285585851490497,-0.0164207406342029,0.025502685457468,0.0239583067595958,standing,2026-03-04_13-51-15
1772632279079913200,3.446913330078125,-0.0496945897564291,0.1324627432055771,-0.312013693061471,0.007934957742691,0.040140513330698,0.0312082152813673,standing,2026-03-04_13-51-15
1772632279089862100,3.456862060546875,-0.1095123314572498,0.0565745585285127,-0.2386275543332099,0.0291102826595306,0.0366834662854671,0.0255924090743064,standing,2026-03-04_13-51-15
1772632279099810000,3.46681005859375,-0.1592371336888521,-0.0217588273435831,-0.1291015962094068,0.0466725714504718,0.0192685388028621,0.0091307656839489,standing,2026-03-04_13-51-15
1772632279109759000,3.476759033203125,-0.1535420638523995,-0.0849010738246142,-0.0208083947509527,0.0452160872519016,-6.41460064798e-05,-0.0061746872961521,standing,2026-03-04_13-51-15
1772632279119707100,3.48670703125,-0.0658068625804036,-0.0739244833886623,0.0764069478541612,0.032709963619709,-0.0116286799311637,-0.0057660965248942,standing,2026-03-04_13-51-15
1772632279129655000,3.496655029296875,0.0120858668521046,-0.0569490909293293,0.1402045895040035,0.0136537179350852,-0.0158673673868179,-0.0017234180122613,standing,2026-03-04_13-51-15
1772632279139604000,3.50660400390625,0.0186064642598852,-0.0320585414312779,0.1298439390093088,0.0009209099225699,-0.0120168626308441,0.0093115605413913,standing,2026-03-04_13-51-15
1772632279149552000,3.51655224609375,0.0142936060294508,-0.0113604751870036,0.0726052174836397,-0.0089165400713682,0.0052177840843796,0.0181716307997703,standing,2026-03-04_13-51-15
1772632279159501000,3.5265009765625,-0.0349465179577469,-0.0382264164112508,0.0599912351042032,-0.01072558760643,0.0143118575215339,0.0159662496298551,standing,2026-03-04_13-51-15
1772632279169449200,3.53644921875,-0.1316249406745657,-0.0748059423983097,0.0592214197754859,-0.0144026149064302,0.0104622589424252,0.0006211157888174,standing,2026-03-04_13-51-15
1772632279179398100,3.546398193359375,-0.1315272524537518,-0.1183010929927229,0.0216857621073722,-0.0150474049150943,0.0025260504335165,-0.0131902014836668,standing,2026-03-04_13-51-15
1772632279189346000,3.556345947265625,-0.0755768902381882,-0.1070974158026278,-0.0194400290071964,-0.0102289468050003,0.0019215126521885,-0.0163021050393581,standing,2026-03-04_13-51-15
1772632279199295000,3.566294921875,-0.0451906294006854,-0.0680723963595926,-0.0660690937131643,0.0004028109833598,0.008222279138863,-0.0148866865783929,standing,2026-03-04_13-51-15
1772632279209243100,3.5762431640625,-0.0295905438825488,-0.0168270700298249,-0.0748655636310577,0.0124693270772695,0.0026661267038434,-0.0136203533038496,standing,2026-03-04_13-51-15
1772632279219192000,3.586192138671875,0.0134689917735755,0.0010936404556035,-0.0547761308044195,0.026166133582592,-0.0035242494195699,-0.0068205604329705,standing,2026-03-04_13-51-15
1772632279229140000,3.596139892578125,0.0186081447603181,0.0253184195213019,0.0087871175676584,0.0268098227679729,-0.0044214683584868,0.0016192633192986,standing,2026-03-04_13-51-15
1772632279239089000,3.6060888671875,-0.0169842698855325,0.0387982249498367,0.0542652586728334,0.0204606745392084,-0.0049499813467264,0.0045677050948143,standing,2026-03-04_13-51-15
1772632279249037000,3.616037109375,-0.0440705758621916,0.0165926767520606,0.0896802709251642,0.0140568371862173,-0.0136100491508841,-0.0002478226087987,standing,2026-03-04_13-51-15
1772632279258986000,3.625986083984375,-0.0733128908289596,0.0016666180379688,0.0972165116488933,0.0080869114026427,-0.0126321595162153,-0.0075480174273252,standing,2026-03-04_13-51-15
1772632279268934000,3.635933837890625,-0.0887584068398922,0.005714285993576,0.0774433051645755,-0.0017918180674314,-0.0005637786816805,-0.0124128134921193,standing,2026-03-04_13-51-15
1772632279278883000,3.645883056640625,-0.0847610808320343,0.0543695958301424,0.0920540143191814,-0.0146163906902074,0.0090087233111262,-0.0133848274126648,standing,2026-03-04_13-51-15
1772632279288831000,3.6558310546875,-0.0435894412817433,0.0305767784409224,0.0907861863404512,-0.0253843516111373,0.0082049807533621,-0.0120636336505413,standing,2026-03-04_13-51-15
1772632279298780000,3.66577978515625,-0.009955284564197,0.0617252192899584,0.0327425781726837,-0.0237125325947999,0.0066257207654416,-0.0048012444749474,standing,2026-03-04_13-51-15
1772632279308728000,3.67572802734375,0.0136308312717825,0.1135707034699618,-0.036762919729948,-0.0134889222681522,0.0099919568747282,0.0072660706937313,standing,2026-03-04_13-51-15
1772632279318676000,3.685676025390625,-0.0442026778092607,0.1133444934986531,-0.068007368299365,0.0022946060635149,0.0134064238518476,0.0108639914542436,standing,2026-03-04_13-51-15
1772632279328625000,3.695625,-0.0671812562061473,0.0834279325321316,-0.0595037438482046,0.0176701005548238,0.0053170723840594,0.008568612858653,standing,2026-03-04_13-51-15
1772632279338573000,3.705572998046875,-0.0522107738284394,0.02979337297827,0.0246574713945388,0.0210890099406242,-0.0152578465640544,0.0025225460994988,standing,2026-03-04_13-51-15
1772632279348522000,3.71552197265625,-0.0675827131465077,-0.0181976277306675,0.0809200413644313,0.0146739864721894,-0.0290061496198177,-0.0023808660916984,standing,2026-03-04_13-51-15
1772632279358470000,3.725469970703125,-0.0739977312879636,-0.0328819866433739,0.0650391661435365,0.0032844645902514,-0.0260957404971122,-0.0033266521058976,standing,2026-03-04_13-51-15
1772632279368418800,3.735418701171875,-0.0582018674694001,0.0011067921981215,0.0338432328909635,-0.0024125697091221,-0.0180572550743818,0.0012108418159186,standing,2026-03-04_13-51-15
1772632279378367000,3.745366943359375,-0.0421162999892607,0.0269255624569952,-0.0062713353544473,-0.0114221777766942,-0.0076310923323035,0.0048471679911017,standing,2026-03-04_13-51-15
1772632279388316000,3.75531591796875,-0.0535157920124009,-0.0022897183723747,-0.0325935250908136,-0.0094533022493124,-0.0003710486926138,0.0083175338804721,standing,2026-03-04_13-51-15
1772632279398263800,3.765263916015625,-0.1039711735408753,-0.0362900415211915,-0.0805623139679431,0.001553542446345,0.0025200790259987,0.0004801165778189,standing,2026-03-04_13-51-15
1772632279408213000,3.775212890625,-0.1400757024273276,-0.0583827769942581,-0.0737812755256891,0.0109161511063575,0.0033981234300881,-0.0095714526250958,standing,2026-03-04_13-51-15
1772632279418161000,3.785160888671875,-0.1231530265359207,-0.0565904867500066,-0.0393979444086551,0.0177938267588615,-0.0052229673601686,-0.0123786237090826,standing,2026-03-04_13-51-15
1772632279428109800,3.79510986328125,-0.1143398977441713,-0.0498128093086183,-0.0676309362024068,0.0257702581584453,-0.0058839637786149,-0.0142393745481967,standing,2026-03-04_13-51-15
1772632279438058000,3.80505810546875,-0.1313589466821402,-0.0287152223527431,-0.1267611705631017,0.0430148318409919,0.0121065825223922,-0.0181264542043209,standing,2026-03-04_13-51-15
1772632279448007000,3.8150068359375,-0.1054713124381378,-0.00431274863258,-0.1004109237760305,0.0546645671129226,0.035593532025814,-0.0153200160712003,standing,2026-03-04_13-51-15
1772632279457954800,3.824954833984375,-0.0415825219061225,-0.022643939615041,0.024250644159317,0.0546966940164566,0.0421377830207347,-0.0116488197818398,standing,2026-03-04_13-51-15
1772632279467903700,3.83490380859375,-0.0043492447180673,-0.0683557433456182,0.1761076775342226,0.0424613319337368,0.0190481767058372,-0.0125428428873419,standing,2026-03-04_13-51-15
1772632279477852000,3.844851806640625,-0.0009524418866261,-0.1122480765640735,0.3266957138866186,0.0153023414313793,-0.0190835129469633,-0.0240598376840353,standing,2026-03-04_13-51-15
1772632279487800800,3.85480078125,-0.0357472033487632,-0.1293447573155164,0.4024094187796115,-0.018800500780344,-0.0544457659125328,-0.0386515632271766,standing,2026-03-04_13-51-15
1772632279497748700,3.864748779296875,-0.0532591138375923,-0.1183639290958643,0.3461322357624769,-0.0527893975377082,-0.075640745460987,-0.0522380135953426,standing,2026-03-04_13-51-15
1772632279507697000,3.87469677734375,-0.0534877349616959,-0.0519634114712476,0.1274222648203372,-0.0710456296801567,-0.0635638386011123,-0.0496539510786533,standing,2026-03-04_13-51-15
1772632279517645800,3.884645751953125,-0.0491042591804638,0.0688984719201922,-0.1324655196845531,-0.0664344951510429,-0.0177733022719621,-0.0394337624311447,standing,2026-03-04_13-51-15
1772632279527593700,3.89459375,-0.0231821016123518,0.1712199054926633,-0.3090682872593402,-0.0415456555783748,0.022762406617403,-0.017954034730792,standing,2026-03-04_13-51-15
1772632279537543000,3.90454296875,0.0330493060342967,0.2205081064052879,-0.3530062131851911,-0.0072510447353124,0.0374092869460582,0.0081944661214947,standing,2026-03-04_13-51-15
1772632279547490800,3.91449072265625,0.0448436425939202,0.1975827195003628,-0.2841279072701931,0.0253329966217279,0.0288850404322147,0.0247880909591913,standing,2026-03-04_13-51-15
1772632279557439700,3.924439697265625,0.0036922055814415,0.1299117435485124,-0.1652946070969104,0.0501986742019653,0.0036962549202144,0.0322538129985332,standing,2026-03-04_13-51-15
1772632279567388000,3.934387939453125,-0.0253362839715555,0.0584726472347974,-0.0750648855954408,0.0670109391212463,-0.0192929506301879,0.0256028361618518,standing,2026-03-04_13-51-15
1772632279577337000,3.944337158203125,-0.0665845689546316,0.0109713297389447,-0.0371557184398174,0.0709595754742622,-0.0243053156882524,0.0156591366976499,standing,2026-03-04_13-51-15
1772632279587284700,3.95428466796875,-0.0927333383528515,0.0028736557401716,0.0249970786124467,0.0658697411417961,-0.0220597367733716,0.0062975925393402,standing,2026-03-04_13-51-15
1772632279597234000,3.96423388671875,-0.0470576653815805,-0.0038023148924112,0.0959539443671703,0.0485308170318603,-0.0128837320953607,0.0042565139010548,standing,2026-03-04_13-51-15
1772632279607182000,3.97418212890625,0.046439204689674,0.0019971651665866,0.1435690975010395,0.0175262968987226,-0.0069784391671419,0.0091106565669178,standing,2026-03-04_13-51-15
1772632279617131000,3.984131103515625,0.0801493857854977,-0.0030934359706938,0.1791793400645256,-0.0155351068824529,0.0013931652065366,0.017303729429841,standing,2026-03-04_13-51-15
1772632279627079000,3.994078857421875,0.0471280272040516,-0.0325447175130248,0.1533306130588054,-0.0357815213501453,0.0117842871695756,0.0207525230944156,standing,2026-03-04_13-51-15
1772632279637028000,4.004028076171875,-0.0334772491227835,-0.0449422806628048,0.0601046323508024,-0.0382792800664901,0.0222016554325819,0.0141050033271312,standing,2026-03-04_13-51-15
1772632279646976000,4.01397607421875,-0.0527923731086775,-0.0354604588292539,-0.0473065255761146,-0.0221905894577503,0.0263420715928077,0.0084290076047182,standing,2026-03-04_13-51-15
1772632279656925000,4.023925048828125,-0.0147121602350845,-0.0105845223784446,-0.0728384417176246,-0.0002913218922913,0.0213780235499143,0.0086849005892872,standing,2026-03-04_13-51-15
1772632279666873000,4.033873046875,0.0274071354288607,0.0060074237212538,-0.0462374350398778,0.0197769273072481,0.0038184702862054,0.0122133232653141,standing,2026-03-04_13-51-15
1772632279676822000,4.043822021484375,0.0485975152347236,-0.0028759938277304,-0.0238613525807857,0.0353680439293384,-0.0097405277192592,0.0173003524541854,standing,2026-03-04_13-51-15
1772632279686770000,4.05377001953125,-0.0057318947155028,0.0195500652529299,-0.0114946229606866,0.0437764450907707,-0.0201031547039747,0.016225766390562,standing,2026-03-04_13-51-15
1772632279696718000,4.063718017578125,-0.0715162897357717,0.0202148127719759,0.0619447072595357,0.0389186814427375,-0.0317050218582153,0.0077623771503567,standing,2026-03-04_13-51-15
1772632279706667000,4.0736669921875,-0.0819029149219393,-0.0120861591130495,0.0881388867020607,0.0187324546277523,-0.0282578263431787,0.0054126698523759,standing,2026-03-04_13-51-15
1772632279716615000,4.083614990234375,-0.0623548589630052,0.0146552789486944,0.0666723203033208,-0.0026661213487386,0.0010755860712379,0.0087255807593464,standing,2026-03-04_13-51-15
1772632279726563800,4.093563720703125,-0.0966559551566839,0.0647357992827892,0.0618494301915168,-0.0216493997722864,0.0227249544113874,0.0090339751914143,standing,2026-03-04_13-51-15
1772632279736512000,4.103511962890625,-0.1143192202823236,0.0542611670196056,0.0320598566055297,-0.0343118570744991,0.0317900665104389,0.0082486700266599,standing,2026-03-04_13-51-15
1772632279746461000,4.1134609375,-0.0629804435154423,0.0451798888109624,-0.0084393270432949,-0.0343549996614456,0.0413151271641254,0.0143140191212296,standing,2026-03-04_13-51-15
1772632279756408800,4.123408935546875,-0.0498926696117967,0.0568655042991042,-0.0751350282222032,-0.0152719523757696,0.054081741720438,0.02144555747509,standing,2026-03-04_13-51-15
1772632279766358000,4.13335791015625,-0.1264366147838533,0.0550559706591069,-0.064956164035201,0.0100778779014945,0.0399922877550125,0.0111167524009943,standing,2026-03-04_13-51-15
1772632279776306000,4.143305908203125,-0.1297898707345127,-0.0284936885565519,-0.0248877730190753,0.0284794904291629,0.0008996815886348,-0.0013762140879407,standing,2026-03-04_13-51-15
1772632279786254800,4.1532548828125,-0.0590574613854289,-0.0533743011824786,0.0240805482894182,0.0383164063096046,-0.0216101538389921,-0.0018380061956122,standing,2026-03-04_13-51-15
1772632279796203000,4.163203125,-0.0480234051411971,-0.0333070801876485,0.0544388616740703,0.0424062237143516,-0.0222019087523221,0.0036252024583518,standing,2026-03-04_13-51-15
1772632279806152000,4.17315185546875,-0.0528020907850936,0.0027102818720042,0.1173152968257665,0.0325091183185577,-0.0334819965064525,0.0029658037237823,standing,2026-03-04_13-51-15
1772632279816099800,4.183099853515625,-0.0291638063704594,-0.0298624926917254,0.1264215633451938,0.0129899196326732,-0.0362747535109519,0.0082243336364626,standing,2026-03-04_13-51-15
1772632279826048800,4.193048828125,-0.0308796338450163,-0.0218972129009664,0.0701788671195507,-0.0024468279443681,-0.0064958166331052,0.0183483399450778,standing,2026-03-04_13-51-15
1772632279835997000,4.202996826171875,-0.1069533676894381,-0.0021378888115286,0.0018383213430643,-0.0091616958379745,0.0308684408664703,0.0189642328768968,standing,2026-03-04_13-51-15
1772632279845945900,4.21294580078125,-0.1789235386725515,-0.0310664616540074,0.0476730208009481,-0.015179106965661,0.0271168462932109,0.0035882059019058,standing,2026-03-04_13-51-15
1772632279855893800,4.222893798828125,-0.2020117879889905,-0.1153374208815395,0.1257493631720543,-0.0280561465770006,-0.0061670402064919,-0.0144717143848538,standing,2026-03-04_13-51-15
1772632279865843000,4.232843017578125,-0.1647311645278707,-0.1440824538506567,0.080422613236308,-0.03154968470335,-0.0160479005426168,-0.02333072014153,standing,2026-03-04_13-51-15
1772632279875790800,4.242790771484375,-0.150765511811152,-0.0650219227477908,-0.0164373400598764,-0.0215540565550327,-0.0011766904499381,-0.0286818034946918,standing,2026-03-04_13-51-15
1772632279885738800,4.25273876953125,-0.0764652173800393,0.0145379361793398,-0.0999082349509,-0.003502351231873,0.0036537509877234,-0.0248449873179197,standing,2026-03-04_13-51-15
1772632279895688000,4.26268798828125,0.0259081655753776,0.06141454590559,-0.1399719497919082,0.0166303757578134,0.0040346896275877,-0.0091958176344633,standing,2026-03-04_13-51-15
1772632279905635800,4.2726357421875,0.0394052143996581,0.102444767691195,-0.1017155766338109,0.033553697168827,0.0028160272631794,0.0072795622982084,standing,2026-03-04_13-51-15
1772632279915584800,4.282584716796875,-0.0281058217501267,0.0972071592986583,-0.0603331804096698,0.0419796295464038,-0.0071668205782771,0.0071843229234218,standing,2026-03-04_13-51-15
1772632279925533000,4.292532958984375,-0.113503191191703,0.0218432907566428,-0.0072948331832885,0.0403926521539688,-0.014684391207993,-0.0097091728821396,standing,2026-03-04_13-51-15
1772632279935482000,4.302482177734375,-0.1331966469706967,-0.0264431857675313,-0.0076467153608798,0.0343558490276336,0.0097138034179806,-0.0200326666235923,standing,2026-03-04_13-51-15
1772632279945429800,4.3124296875,-0.0684350556595251,0.0296668239891529,0.0144242466717958,0.0234528686851263,0.055744145065546,-0.0140285696834325,standing,2026-03-04_13-51-15
1772632279955379000,4.32237890625,-0.0186888453137129,0.026566081494838,0.1717407144963741,0.0030779561493545,0.061062853783369,-0.008707620203495,standing,2026-03-04_13-51-15
1772632279965327000,4.3323271484375,0.0497689701668918,-0.0358428822755813,0.3336228828012943,-0.0220484361052513,0.0200818683952093,-0.0082594100385904,standing,2026-03-04_13-51-15
1772632279975276000,4.342276123046875,0.0753646357269957,-0.0738569711104035,0.3629880934953689,-0.0437562614679336,-0.0321042165160179,-0.0105163939297199,standing,2026-03-04_13-51-15
1772632279985224000,4.352223876953125,-0.0090260408900678,-0.0596263473145663,0.253704127433896,-0.0535210072994232,-0.0644115582108497,-0.0174448732286691,standing,2026-03-04_13-51-15
1772632279995172900,4.3621728515625,-0.0396248119670897,-0.0100944007739424,0.0643324791789054,-0.0521522909402847,-0.0664995089173317,-0.0226956009864807,standing,2026-03-04_13-51-15
1772632280005121000,4.37212109375,-0.0496520657889544,0.0360704074211418,-0.133998720601201,-0.0395155921578407,-0.0458933040499687,-0.0141377998515963,standing,2026-03-04_13-51-15
1772632280015070000,4.382070068359375,-0.0810773142853751,0.1007498003415763,-0.284018017154932,-0.0197309348732233,-0.0137433251366019,-0.0017115010414272,standing,2026-03-04_13-51-15
1772632280025017900,4.392017822265625,-0.0563689894864335,0.1153331830978393,-0.3557698326796293,0.008381925523281,0.0141317164525389,0.0128772957250475,standing,2026-03-04_13-51-15
1772632280034967000,4.401967041015625,-0.0517534219823777,0.1129991871923208,-0.3088397392004728,0.033403106033802,0.0201828014105558,0.0263313241302967,standing,2026-03-04_13-51-15
1772632280044915000,4.4119150390625,-0.0681282547326758,0.0597955664016306,-0.1950146225780248,0.0501778237521648,0.0145289115607738,0.030841389670968,standing,2026-03-04_13-51-15
1772632280054864000,4.42186376953125,-0.1138925923680886,-0.0129918757811188,-0.0717296036928892,0.0558926276862621,0.0018088375218212,0.023929264396429,standing,2026-03-04_13-51-15
1772632280064812000,4.43181201171875,-0.1550856400325894,-0.0869312644779682,0.010682722055912,0.0594380944967269,-0.0030144134070724,0.0075942347757518,standing,2026-03-04_13-51-15
1772632280074760000,4.441760009765625,-0.2234254551567137,-0.145225194144994,0.0736889210671186,0.0492695160210132,-0.0046308105811476,-0.0143108544871211,standing,2026-03-04_13-51-15
1772632280084708900,4.451708984375,-0.1705432483401149,-0.1572138842329382,0.1526075594812631,0.0321280807256698,-0.0091898757964372,-0.0245720129460096,standing,2026-03-04_13-51-15
1772632280094657000,4.461656982421875,-0.0723985524630174,-0.1352206636115908,0.2002361566185951,0.010936215519905,-0.0106157613918185,-0.0229535996913909,standing,2026-03-04_13-51-15
1772632280104606000,4.47160595703125,-0.0154024805868044,-0.0947185573533177,0.2155272492527961,-0.0077943298965692,-0.0068324748426675,-0.0178392641246318,standing,2026-03-04_13-51-15
1772632280114553900,4.481553955078125,-0.017170878498815,-0.0738055331841111,0.1736824962139129,-0.0163470655679702,-0.0026681674644351,-0.0145139563828706,standing,2026-03-04_13-51-15
1772632280124502800,4.491502685546875,-0.0723120797559618,-0.1023167573973536,0.1312894616425037,-0.0201460663229227,0.0046789618209004,-0.0221226084977388,standing,2026-03-04_13-51-15
1772632280134451000,4.501450927734375,-0.1252095572069287,-0.1281473642244935,0.095818335288763,-0.0242524500936269,0.0118539137765765,-0.0325719453394413,standing,2026-03-04_13-51-15
1772632280144400000,4.51139990234375,-0.1102172648562118,-0.1090181547321379,0.0637917964309453,-0.0251472704112529,0.0179988928139209,-0.0395036190748214,standing,2026-03-04_13-51-15
1772632280154347800,4.52134765625,-0.0570809006154537,-0.0800786221042275,0.0664361734598875,-0.0207667704671621,0.0172536261379718,-0.0419819131493568,standing,2026-03-04_13-51-15
1772632280164297000,4.531296875,-0.0052144467126578,-0.0403361020416021,0.0943728126555681,-0.021698610857129,0.0008221892639994,-0.0417731218039989,standing,2026-03-04_13-51-15
1772632280174244900,4.541244873046875,0.0841503650551661,-0.0043989656113088,0.1018856725037097,-0.0272090286016464,-0.0079055810347199,-0.0284258686006069,standing,2026-03-04_13-51-15
1772632280184193800,4.55119384765625,0.0814979143176227,0.0384758611276745,0.076401687157154,-0.0273056998848915,-0.0184881836175918,-0.01508130133152,standing,2026-03-04_13-51-15
1772632280194142000,4.561141845703125,0.058500229361467,0.0668261956907808,0.0138256962567567,-0.0238699633628129,-0.0245332531630992,-0.0095357093960046,standing,2026-03-04_13-51-15
1772632280204091000,4.5710908203125,0.0435521049460396,0.0807281720541417,-0.0952343979209661,-0.0134929567575454,-0.0152718434110283,-0.0019454343710094,standing,2026-03-04_13-51-15
1772632280214038800,4.581038818359375,0.0288426115920767,0.1134330485649406,-0.1675350795000791,0.0005174009129405,0.000580889172852,0.0096696764230728,standing,2026-03-04_13-51-15
1772632280223987700,4.59098779296875,-0.0187033487631008,0.1125385839432477,-0.1767933217108249,0.0154353640973567,0.0023894417099654,0.0080297021195292,standing,2026-03-04_13-51-15
1772632280233936000,4.600935791015625,-0.0332499797055497,0.0682252488337457,-0.145785604506731,0.0214956924319267,-0.0016540472861379,0.003401824273169,standing,2026-03-04_13-51-15
1772632280243885300,4.61088525390625,0.0091487539542838,0.0351043388679623,-0.1279968498378992,0.0223353877663612,0.0117858611047267,0.0122144902125,standing,2026-03-04_13-51-15
1772632280253833200,4.620833251953125,0.0316800269750878,0.0450593311712145,-0.080342533737421,0.0210079811513423,0.0323176011443138,0.0205420479178428,standing,2026-03-04_13-51-15
1772632280263781400,4.630781494140625,0.0346073491312563,0.0353795025475323,0.0117827922523021,0.0128131676465272,0.0354319028556346,0.0262153800576925,standing,2026-03-04_13-51-15
1772632280273730300,4.640730224609375,0.0682865505669265,-0.0025176819093525,0.081439096802473,0.0042279465124011,0.0186355356127023,0.0343450345098972,standing,2026-03-04_13-51-15
1772632280283678200,4.65067822265625,0.1022017892481759,-0.034100568652898,0.1249719490587711,-0.005815100390464,-5.85238449275e-05,0.0415131971240043,standing,2026-03-04_13-51-15
1772632280293627100,4.660627197265625,0.0355811625994741,-0.0542056374400854,0.0850847598284482,0.0004220600239932,-0.0067502604797482,0.0450830608606338,standing,2026-03-04_13-51-15
1772632280303575300,4.6705751953125,-0.0526070431370288,-0.042692748170346,0.0344774391412735,0.0092400526627898,-0.010974034667015,0.0388869494199752,standing,2026-03-04_13-51-15
1772632280313524200,4.680524169921875,-0.0578278099926188,-0.0629652824789285,0.0336088396131992,0.0145504381507635,-0.0138110695406794,0.0362735837697982,standing,2026-03-04_13-51-15
1772632280323472400,4.690472412109375,-0.0625451939033344,-0.0865716373853385,0.034924013864994,0.0176479611545801,-0.0095750456675887,0.032867394387722,standing,2026-03-04_13-51-15
1772632280333421300,4.70042138671875,-0.119111057668738,-0.0722735013112425,0.0543301406025886,0.0140019608661532,-0.0106466310098767,0.0241541936993598,standing,2026-03-04_13-51-15
1772632280343369200,4.710369140625,-0.1177385637391358,-0.0848933289095759,0.0884843391388654,0.0061482987366616,-0.0103739229962229,0.0204302966594696,standing,2026-03-04_13-51-15
1772632280353318100,4.720318115234375,-0.0923315891515463,-0.0741134300895035,0.075030983325839,-0.0043638106435537,-0.0026286281645298,0.0242321640253067,standing,2026-03-04_13-51-15
1772632280363266300,4.730266357421875,-0.1146725272320211,-0.0532440989315509,0.0474427191764116,-0.0108960131183266,0.0089089851826429,0.0219176094979047,standing,2026-03-04_13-51-15
1772632280373215200,4.74021533203125,-0.1316539475733414,-0.055807373548299,0.0152326404452323,-0.010652370750904,0.0085883513092994,0.0181088596582412,standing,2026-03-04_13-51-15
1772632280383163100,4.7501630859375,-0.090774678565748,-0.0653641603142023,-0.0188017311036586,-0.0063194083049893,0.0091982157900929,0.0197946410626173,standing,2026-03-04_13-51-15
1772632280393112000,4.760112060546875,-0.0747615917999297,-0.0458083959728479,-0.0292915609359741,0.0045622610487043,0.0081924172118306,0.0163875725120306,standing,2026-03-04_13-51-15
1772632280403060200,4.770060302734375,-0.1194871975047513,-0.0369163567259907,-0.0253927999317646,0.0122659867629408,-0.0034922021441161,0.0083181951195001,standing,2026-03-04_13-51-15
1772632280413009200,4.780009033203125,-0.0960840735528618,-0.0522669244624674,0.038348143094778,0.0154689196497201,-0.0188929438591003,0.0076752351596951,standing,2026-03-04_13-51-15
1772632280422957000,4.78995703125,-0.0774997115269303,-0.0300993701875209,0.0541986231774091,0.0165773276239633,-0.0182420667260885,0.0090182675048708,standing,2026-03-04_13-51-15
1772632280432906200,4.79990625,-0.0909299787253141,-0.0104027360707521,0.0628606530606746,0.0103649562224745,0.0009578862227499,0.0124743487685918,standing,2026-03-04_13-51-15
1772632280442854100,4.809854248046875,-0.0842656619979068,-0.0238182440914213,0.094889530006051,0.0028974525630474,0.0179022476077079,0.014402212575078,standing,2026-03-04_13-51-15
1772632280452803000,4.819802978515625,-0.0548290665680542,-0.0278267490804195,0.1491857683390378,-0.0100158937275409,0.0180725958198308,0.0130037674680352,standing,2026-03-04_13-51-15
1772632280462751200,4.829751220703125,-0.0686774495806545,-0.0846694570258259,0.1830290012300014,-0.0224440675228834,0.0037927269004285,0.0016642934642732,standing,2026-03-04_13-51-15
1772632280472699100,4.83969921875,-0.0758278327919542,-0.1093861112616956,0.1941857705384492,-0.0311484783887863,-0.0160805042833089,-0.0099685294553637,standing,2026-03-04_13-51-15
1772632280482648000,4.84964794921875,-0.0308463526299223,-0.087830551405251,0.1676829635381698,-0.0388122573494911,-0.0405861139297485,-0.0156397316604852,standing,2026-03-04_13-51-15
1772632280492596200,4.85959619140625,-0.0079061334820464,-0.0284808290749788,0.0790682760179042,-0.0424343720078468,-0.0559888258576393,-0.0174183845520019,standing,2026-03-04_13-51-15
1772632280502545200,4.869545166015625,-0.0252074699601158,0.0312869725368916,-0.027010756522417,-0.0418386235833168,-0.0508529171347618,-0.0115330647677183,standing,2026-03-04_13-51-15
1772632280512493000,4.8794931640625,0.0045984702387824,0.106169048911333,-0.1650777494758367,-0.0333928167819976,-0.0263516400009393,0.0067297001369297,standing,2026-03-04_13-51-15
1772632280522442000,4.88944189453125,-0.0136101903425529,0.1460172213055193,-0.244565712210536,-0.019749442115426,-0.0126973474398255,0.0217754952609539,standing,2026-03-04_13-51-15
1772632280532390100,4.89939013671875,-0.0463202910177409,0.1339104577958583,-0.2055897926062345,-0.0103756692260503,0.0048111900687217,0.0262442845851182,standing,2026-03-04_13-51-15
1772632280542339300,4.90933935546875,-0.1071312450069934,0.0652234366692602,-0.1570657079339027,-0.0086818989366292,0.0346969179809093,0.0303503461182117,standing,2026-03-04_13-51-15
1772632280552287000,4.919286865234375,-0.1132910097457468,0.0002989829465746,-0.1120832413911819,-0.0016452884301543,0.0462517999112606,0.0303409341722726,standing,2026-03-04_13-51-15
1772632280562236400,4.929236328125,-0.111366581021808,-0.0460443966858089,-0.0382072733193635,0.006514370907098,0.0470965541899204,0.0178033038973808,standing,2026-03-04_13-51-15
1772632280572184300,4.939184326171875,-0.1010736620010808,-0.0417749026730656,0.0912958894282579,0.0081701297312974,0.0239247158169746,0.0115504469722509,standing,2026-03-04_13-51-15
1772632280582133200,4.94913330078125,-0.0563530247323215,-0.0844525994047522,0.1800841799497604,-0.0007764934562146,0.0023557737004011,0.0091717112809419,standing,2026-03-04_13-51-15
1772632280592081400,4.959081298828125,-0.0136912562221288,-0.1087722171470522,0.2324088259488344,-0.0105736898258328,-0.013847216963768,0.009062061086297,standing,2026-03-04_13-51-15
1772632280602030300,4.9690302734375,-0.0610479045502841,-0.1145665826395154,0.2485503979325294,-0.02046599984169,-0.0309798642992973,0.001337562687695,standing,2026-03-04_13-51-15
1772632280611978200,4.978978271484375,-0.1182263472560793,-0.1205452186577022,0.1539735871374607,-0.0248652771115303,-0.0450091324746608,-0.0144826788455247,standing,2026-03-04_13-51-15
1772632280621927200,4.98892724609375,-0.1455049244018271,-0.1017066626749932,-0.0134662152945995,-0.0221059769392013,-0.0261502228677272,-0.0211110226809978,standing,2026-03-04_13-51-15
1772632280631875300,4.998875244140625,-0.1146652937736362,-0.0324270824827253,-0.1457943723350763,-0.0139903575181961,0.0201574955135583,-0.0150920674204826,standing,2026-03-04_13-51-15
1772632280641824300,5.00882421875,-0.0853757055990397,0.0023446634300053,-0.1570306366205215,-0.0038048303686082,0.0494765043258667,-0.0112059824168682,standing,2026-03-04_13-51-15
1772632280651772200,5.018772216796875,-0.0581943417500704,-0.0127503221102058,-0.071841831895709,-0.0035743354819715,0.0426776073873043,-0.0108666494488716,standing,2026-03-04_13-51-15
1772632280661720300,5.02872021484375,-0.0646057431623339,-0.0491173743903636,0.0201011232644319,-0.002844629343599,0.0273575074970722,-0.016300031915307,standing,2026-03-04_13-51-15
1772632280671669200,5.038669189453125,-0.07102635079436,-0.0484057189896702,0.0760223324507474,-0.0041002463549375,0.0205409750342369,-0.0173838697373867,standing,2026-03-04_13-51-15
1772632280681617200,5.0486171875,-0.0881852100618183,-0.021804566181451,0.0916097776830196,-0.0097157880663871,0.0058299386873841,-0.025493461638689,standing,2026-03-04_13-51-15
1772632280691566300,5.05856640625,-0.035745376717858,-0.0713388508096337,0.0825274765610694,-0.0168969314545393,-0.0145179256796836,-0.0292350500822067,standing,2026-03-04_13-51-15
1772632280701514200,5.06851416015625,-0.067299658421427,-0.0158320676431059,0.0524497336834669,-0.0223947595804929,-0.0045087016187608,-0.0292907115072011,standing,2026-03-04_13-51-15
1772632280711463200,5.078463134765625,-0.0893291559325531,0.0370258084498345,-0.0069312605679035,-0.0275124050676822,0.0092212185263633,-0.0260531567037105,standing,2026-03-04_13-51-15
1772632280721411300,5.088411376953125,-0.059723633676581,0.0441693965941667,-0.0380173037052154,-0.0289712846279144,0.0189651940017938,-0.0226906482130289,standing,2026-03-04_13-51-15
1772632280731360300,5.0983603515625,-0.0439495067657902,0.0385721611090004,-0.0730576374262571,-0.0230429321527481,0.0238510239869356,-0.0155622176826,standing,2026-03-04_13-51-15
1772632280741308200,5.10830810546875,-0.0952673138098791,0.0225666365951299,-0.0787245771467685,-0.0153466630727052,0.0270968843251466,-0.0187971591949462,standing,2026-03-04_13-51-15
1772632280751257000,5.118257080078125,-0.0928175460375845,-0.0003833002291619,-0.0575824203968048,-0.0064930622465908,0.0269624590873718,-0.02406832203269,standing,2026-03-04_13-51-15
1772632280761205200,5.128205322265625,-0.0807901679070666,-0.0228380008824169,-0.0245680395454168,0.0023022936657071,0.0206433087587356,-0.0299741495400667,standing,2026-03-04_13-51-15
1772632280771154200,5.138154296875,-0.0846075342381373,-0.0248497790962457,0.00372983417809,0.0085607003420591,0.0174199379980564,-0.0316151827573776,standing,2026-03-04_13-51-15
1772632280781102000,5.14810205078125,-0.0356677083717659,-0.0037282267428934,0.0084533555686473,0.0133056547492742,0.0107236858457326,-0.0316719077527523,standing,2026-03-04_13-51-15
1772632280791051300,5.15805126953125,0.0090773326858878,-0.0012903320714831,0.0574941575914621,0.0109612615779042,0.0019329348579049,-0.0272815078496933,standing,2026-03-04_13-51-15
1772632280800999200,5.167999267578125,0.0335675942873582,0.0037583296202123,0.0600824205189943,0.0073409602046012,-0.0025504969526082,-0.021447854116559,standing,2026-03-04_13-51-15
1772632280810948000,5.177947998046875,0.0141471832960844,0.0254151578940451,0.06363397552073,-0.0001851329579949,0.0022277468815445,-0.0164850540459156,standing,2026-03-04_13-51-15
1772632280820896300,5.187896240234375,-0.0425175377339124,0.0152688808023929,0.0716220516651868,-0.0100942235440015,0.0047308513894677,-0.0178081113845109,standing,2026-03-04_13-51-15
1772632280830845200,5.19784521484375,-0.0266975258547812,0.0147258599668741,0.0732926152259111,-0.0186934154480695,0.004480242729187,-0.0189179014414548,standing,2026-03-04_13-51-15
1772632280840793000,5.20779296875,-0.0417910500902682,0.0117911216892302,0.0476636684507131,-0.0233728550374507,0.0036517335101962,-0.0194145813584327,standing,2026-03-04_13-51-15
1772632280850741200,5.2177412109375,-0.0283538782270625,0.0297810980185866,0.0442225880861282,-0.0244328994303941,0.0049760397523641,-0.0162054374814033,standing,2026-03-04_13-51-15
1772632280860690200,5.227690185546875,-0.067782802295871,0.0254011293686926,0.0169856215924024,-0.0240978728979825,0.0085390834137797,-0.0195136163383722,standing,2026-03-04_13-51-15
1772632280870638000,5.23763818359375,-0.090397625414282,0.0095274145409464,-0.0274766204684972,-0.0178497694432735,0.002653325907886,-0.0226747225970029,standing,2026-03-04_13-51-15
1772632280880587000,5.2475869140625,-0.0974009648377075,0.0194615101866424,-0.0542225885748863,-0.0122102592140436,0.0053561679087579,-0.0278255417943,standing,2026-03-04_13-51-15
1772632280890535200,5.25753515625,-0.0532624383058398,0.0311605696782469,-0.0376782810091972,-0.0054560117423534,0.0040889410302042,-0.0252988021820783,standing,2026-03-04_13-51-15
1772632280900484400,5.267484375,-0.0251579317299649,0.0121744219183921,-0.0239741653054952,-0.0069183530285954,-0.0007154014892876,-0.0262823067605495,standing,2026-03-04_13-51-15
1772632280910432000,5.277431884765625,-0.0054676542887464,0.0090672496832907,-0.0376572382211685,-0.005015293136239,0.0027639891486614,-0.0243203453719615,standing,2026-03-04_13-51-15
1772632280920381200,5.287381103515625,-0.0247272852277383,0.0328241189762949,-0.0609679711818695,-0.001933217048645,0.0100639797747135,-0.0206752773374319,standing,2026-03-04_13-51-15
1772632280930329300,5.297329345703125,-0.0426839438093826,0.0659333385042846,-0.0503922166317701,0.0015820190310478,0.0186863839626312,-0.0172168500721454,standing,2026-03-04_13-51-15
1772632280940278300,5.3072783203125,-0.0299496229859068,0.0510607635430991,-0.0207341604709625,0.0045724823139607,0.0220845770090818,-0.0164093784987926,standing,2026-03-04_13-51-15
1772632280950226400,5.317226318359375,-0.0208302777891978,0.0060867725677788,0.0060363575547933,0.0087804868817329,0.0239169616252183,-0.0135935116559267,standing,2026-03-04_13-51-15
1772632280960175400,5.32717529296875,-0.0080834993429481,0.0020440730482339,0.0475789127767086,0.0096862278878688,0.0286496635526418,-0.0133884483948349,standing,2026-03-04_13-51-15
1772632280970123300,5.337123291015625,-0.000179557817988,-0.0176798874668776,0.1185726034104824,0.0083761233836412,0.0213980190455913,-0.0139211369678378,standing,2026-03-04_13-51-15
1772632280980072200,5.347072265625,-0.0062123717088252,-0.0608038666613399,0.2187549791276454,-0.0027028936892747,-0.0098547078669071,-0.0243151877075433,standing,2026-03-04_13-51-15
1772632280990020400,5.357020263671875,-0.010944405199401,-0.1023711179330945,0.271261411434412,-0.021974267438054,-0.0504371523857116,-0.0348161421716213,standing,2026-03-04_13-51-15
1772632280999969300,5.36696923828125,-0.0223371752208098,-0.0913648630112409,0.2054407395243644,-0.0351947322487831,-0.0719845220446586,-0.0420175939798355,standing,2026-03-04_13-51-15
1772632281009917200,5.376917236328125,-0.0459498868027701,0.0071333590112626,0.0538771361380815,-0.0407592579722404,-0.066838152706623,-0.0425056219100952,standing,2026-03-04_13-51-15
1772632281019866000,5.3868662109375,-0.0858657176056876,0.0752443338155746,-0.1384276429593563,-0.0368422828614711,-0.0408033579587936,-0.0415737815201282,standing,2026-03-04_13-51-15
1772632281029814300,5.396814208984375,-0.0893004778273403,0.1212939911983907,-0.2613607796669006,-0.0281254779547452,-0.0055458904244005,-0.0316878668963909,standing,2026-03-04_13-51-15
1772632281039762200,5.40676220703125,-0.0586043107904493,0.1477238790929317,-0.3307026114404201,-0.0144224483519792,0.0276751779019832,-0.0175645910203456,standing,2026-03-04_13-51-15
1772632281049711000,5.416711181640625,-0.0579645150495693,0.1636516621954739,-0.3195861741423607,0.0068820714950561,0.0544940419495105,-0.003908977843821,standing,2026-03-04_13-51-15
1772632281059659300,5.4266591796875,-0.0612913944499567,0.1296544077865779,-0.2338590247571468,0.0277809612452983,0.0637591779232025,0.0034868868533521,standing,2026-03-04_13-51-15
1772632281069608200,5.436608154296875,-0.0681531699782237,0.0705715196989476,-0.0946253261119127,0.041738785803318,0.0470100045204162,0.0012462162412703,standing,2026-03-04_13-51-15
1772632281079556400,5.446556396484375,-0.0807219980416819,0.0191645730666816,0.0320014044165611,0.0481647253036499,0.0127463098615407,-0.0067725614644587,standing,2026-03-04_13-51-15
1772632281089505300,5.45650537109375,-0.0648450683435425,-0.0087089377649128,0.127307114008069,0.04634740203619,-0.0205323621630668,-0.0166573300957679,standing,2026-03-04_13-51-15
1772632281099453200,5.466453125,-0.038236207152903,-0.0115166886620223,0.1442149941891431,0.0400460958480834,-0.0364205129444599,-0.0227237455546855,standing,2026-03-04_13-51-15
1772632281109402000,5.476402099609375,-0.0132777069851756,0.0210635385558009,0.1346095459759235,0.028458584100008,-0.0287632942199707,-0.0189605802297592,standing,2026-03-04_13-51-15
1772632281119350300,5.486350341796875,0.0066554758338257,0.0474209457360208,0.1138999354243278,0.0121829416602849,-0.008910758420825,-0.0165648013353347,standing,2026-03-04_13-51-15
1772632281129299200,5.49629931640625,-0.0147780650781467,0.0238007084347307,0.1331926649153232,-0.0098217669874429,0.0074058789759874,-0.0180739015340805,standing,2026-03-04_13-51-15
1772632281139247000,5.5062470703125,-0.0341308541933074,-0.0069986267156898,0.1661807422816753,-0.0327129662036895,0.020940862596035,-0.0193942952901124,standing,2026-03-04_13-51-15
1772632281149196000,5.516196044921875,-0.0418083300186321,-0.0165220957338809,0.1735188300848007,-0.0486534722149372,0.0181908886879682,-0.0216984134167432,standing,2026-03-04_13-51-15
1772632281159144200,5.526144287109375,-0.0452604797665029,-0.0119436819024384,0.1270037471473216,-0.0507733486592769,0.0053706970065832,-0.0262822452932596,standing,2026-03-04_13-51-15
1772632281169093000,5.536093017578125,-0.0286975770981982,-0.0030918285354971,0.0324520707935094,-0.0405927672982215,-0.008093973621726,-0.0300803929567337,standing,2026-03-04_13-51-15
1772632281179041000,5.546041015625,-0.0111150490585714,0.0303346402481198,-0.0594189881742,-0.0200757775455713,-0.0195599477738142,-0.0294209942221641,standing,2026-03-04_13-51-15
1772632281188990200,5.555990234375,0.0013955460116267,0.060648968360573,-0.1030646531552076,0.0018179584294557,-0.0235083550214767,-0.0244665015488863,standing,2026-03-04_13-51-15
1772632281198938000,5.565938232421875,0.0097353582032024,0.0976039035312831,-0.1298953769356012,0.0175452567636966,-0.0213780924677848,-0.0170360170304775,standing,2026-03-04_13-51-15
1772632281208886300,5.57588623046875,0.0023221958698704,0.104575496109575,-0.0916524477809667,0.0231764931231737,-0.0151919834315776,-0.0143672563135623,standing,2026-03-04_13-51-15
1772632281218835200,5.585835205078125,-0.0137192036749795,0.0814298905827105,-0.0442716879248619,0.0137406485155224,-0.0126390773802995,-0.0102028716355562,standing,2026-03-04_13-51-15
1772632281228783000,5.595783203125,-0.0450648841291666,0.0451956709019839,-0.0124655138194561,0.0020816815085709,-0.0060184826143085,-0.0125144328922033,standing,2026-03-04_13-51-15
1772632281238731800,5.605731689453125,-0.0698902229038998,0.0570813390068709,-0.0060106385916471,-0.0057035372592508,0.0079734995961189,-0.0132550578564405,standing,2026-03-04_13-51-15
1772632281248680000,5.615679931640625,-0.0858223899206146,0.0405899306721985,-0.0200198747217655,-0.0071542053483426,0.012338432483375,-0.0152547238394618,standing,2026-03-04_13-51-15
1772632281258628900,5.62562890625,-0.0750140321910381,0.0236222831279039,-0.0344996509730815,-0.0001554177142679,0.0013062874786555,-0.016706945374608,standing,2026-03-04_13-51-15
1772632281268576800,5.63557666015625,-0.0551265882099047,0.0213861946389079,-0.0749783763557672,0.0152244167402386,-0.0061323591507971,-0.0169193968176841,standing,2026-03-04_13-51-15
1772632281278526000,5.64552587890625,-0.0263007085569202,0.0498037492193281,-0.0798491972625255,0.0232876688241958,-0.0014870073646306,-0.0098487036302685,standing,2026-03-04_13-51-15
1772632281288473900,5.655473876953125,-0.0247475608307868,0.056585079922527,-0.0508615877091884,0.0265395510941743,0.0030361695680767,-0.0048480592668056,standing,2026-03-04_13-51-15
1772632281298422800,5.6654228515625,-0.0208433564664796,0.0317377850443124,0.0038695349097251,0.0227759703993797,0.001759982900694,-0.0021345645654946,standing,2026-03-04_13-51-15
1772632281308371000,5.675370849609375,-0.0090480335261672,-0.0045068098999559,0.0552478399693965,0.0140935331583023,0.0025842313189059,-0.0043170251883566,standing,2026-03-04_13-51-15
1772632281318320000,5.685320068359375,-0.0190064964281395,-0.0065593585155904,0.1103472113788127,0.0032547337468713,0.001933887368068,-0.0040624267421662,standing,2026-03-04_13-51-15
1772632281328267800,5.695267822265625,-0.0525462893931195,-0.0290269186504185,0.1277390756845474,-0.0055652586743235,-0.0117815043777227,-0.0137632116675376,standing,2026-03-04_13-51-15
1772632281338217000,5.705217041015625,-0.017615188200213,-0.0381100965552032,0.1029383964270353,-0.0092609282582998,-0.0286193415522575,-0.0169052090495824,standing,2026-03-04_13-51-15
1772632281348165000,5.7151650390625,-0.0454972476644441,0.0003447217844426,0.0160422032624483,-0.0019277934916317,-0.0223268587142229,-0.0155736692249774,standing,2026-03-04_13-51-15
1772632281358114000,5.725114013671875,-0.0788490072440356,0.0391496687360107,-0.0401958167880773,0.0077115180902183,-0.0108198728412389,-0.016502846032381,standing,2026-03-04_13-51-15
1772632281368062000,5.73506201171875,-0.0512576012894511,0.043520723427087,-0.0587350975632667,0.0144877545535564,-0.0013247386086732,-0.0125138144940137,standing,2026-03-04_13-51-15
1772632281378011000,5.745010986328125,-0.0215307176761329,0.0338338805407285,-0.0162847798466682,0.0158973671495914,0.0029813265427947,-0.0058567114174366,standing,2026-03-04_13-51-15
1772632281387959000,5.754958984375,-0.0339670419337227,0.0128286480434238,0.0664729983389377,0.0044774613343179,-0.0027728881686925,-0.0039758058264851,standing,2026-03-04_13-51-15
1772632281397908000,5.764907958984375,-0.0672465034620836,-0.0195518188185989,0.1455681623637676,-0.01175157725811,-0.0205079428851604,-0.006475182250142,standing,2026-03-04_13-51-15
1772632281407855900,5.77485595703125,-0.1211648849260061,-0.0526009787224233,0.1368038411498069,-0.0256345681846141,-0.0342418476939201,-0.0187213104218244,standing,2026-03-04_13-51-15
1772632281417804000,5.784803955078125,-0.1514826836371794,-0.0730675742983818,0.0010743512332439,-0.0216044038534164,-0.0218786559998989,-0.0270348992198705,standing,2026-03-04_13-51-15
1772632281427753000,5.7947529296875,-0.1488729395302012,-0.002178220821917,-0.1338204414248466,-0.0058302683755755,0.0056087188422679,-0.0282868333160877,standing,2026-03-04_13-51-15
1772632281437700900,5.804700927734375,-0.0771833755867555,0.0641742198772728,-0.1940975077331066,0.016626838594675,0.0245696268975734,-0.0215961728245019,standing,2026-03-04_13-51-15
1772632281447650000,5.814650146484375,-0.000498377976194,0.0949384837143123,-0.1247515843063592,0.0300414152443408,0.0156321413815021,-0.0090106930583715,standing,2026-03-04_13-51-15
1772632281457598000,5.824597900390625,0.0559100302051752,0.0937764541976153,-0.0248211375236511,0.0394005626440048,-0.0029354183934628,0.0051778303459286,standing,2026-03-04_13-51-15
1772632281467547000,5.834546875,0.0260609815169125,0.0637364129818975,0.0469540588766336,0.0426445975899696,-0.0125598283484578,0.0076009389013051,standing,2026-03-04_13-51-15
1772632281477495000,5.8444951171875,-0.061284562850371,0.0098822193279862,0.0985392846852541,0.0364586077630519,-0.0097259581089019,-0.0006671117153018,standing,2026-03-04_13-51-15
1772632281487444000,5.85444384765625,-0.0914554639041423,-0.0438895567394793,0.1794300999552011,0.0238285828381776,-0.0134808672592043,-0.0105077633634209,standing,2026-03-04_13-51-15
1772632281497391900,5.864391845703125,-0.0636294089434668,-0.0789255065463483,0.2285346148639917,0.003556067822501,-0.0211877897381782,-0.0177116133272647,standing,2026-03-04_13-51-15
1772632281507340800,5.8743408203125,-0.007511252412945,-0.0661081105493009,0.265246681189537,-0.0190911032259464,-0.0324912555515766,-0.0199774540960788,standing,2026-03-04_13-51-15
1772632281517289000,5.8842890625,0.0002751271469518,-0.0332834070511162,0.2394488075882196,-0.0410999953746795,-0.0492611825466156,-0.0223529934883117,standing,2026-03-04_13-51-15
1772632281527238000,5.89423779296875,0.0413923696288838,-0.0288332957744598,0.1523100378394127,-0.0561943836510181,-0.0614106059074401,-0.0229867920279502,standing,2026-03-04_13-51-15
1772632281537185800,5.904185791015625,0.0325894334375858,0.0133013801217079,-0.0050040918976068,-0.0621428228914737,-0.0557652376592159,-0.0158830769360065,standing,2026-03-04_13-51-15
1772632281547135000,5.914135009765625,-7.45996061712e-05,0.0741550772741437,-0.1831973435342311,-0.0528094470500946,-0.028638744726777,-0.0084463842213153,standing,2026-03-04_13-51-15
1772632281557083000,5.924082763671875,-0.0229582662612199,0.1138546349778771,-0.3235416337698698,-0.0304383635520935,-0.0023171259090304,0.0022699097171425,standing,2026-03-04_13-51-15
1772632281567031800,5.93403173828125,-0.013812617579475,0.1428510123595595,-0.3889326820909977,0.0021725185215473,0.0241299029439687,0.0181159935891628,standing,2026-03-04_13-51-15
1772632281576980000,5.94397998046875,0.015534034544602,0.1505835063077509,-0.3569885608196258,0.0394298769533634,0.0389016568660736,0.0316467173397541,standing,2026-03-04_13-51-15
1772632281586929000,5.953928955078125,-0.0062499637728556,0.1257271513402462,-0.2364607316881418,0.0676068291068077,0.0247390680015087,0.0370410680770874,standing,2026-03-04_13-51-15
1772632281596876800,5.963876708984375,-0.0045412236262112,0.0418183034233748,-0.0657113663166761,0.0817809626460075,0.0008723514620214,0.0330969244241714,standing,2026-03-04_13-51-15
1772632281606825700,5.97382568359375,-0.0296495075281709,0.0127722416810691,0.0732885235726833,0.08206707239151,-0.0168837662786245,0.0302322264760732,standing,2026-03-04_13-51-15
1772632281616774000,5.98377392578125,-0.0346843233576044,0.0057508186116814,0.191166714978218,0.0682189017534256,-0.0321391522884368,0.0270750485360622,standing,2026-03-04_13-51-15
1772632281626722800,5.993722900390625,-0.0328159722024574,-0.0308206701993942,0.2795838340997695,0.0432461090385913,-0.044712483882904,0.0219299346208572,standing,2026-03-04_13-51-15
1772632281636670700,6.003670654296875,-0.0561747820885851,-0.0393147961698472,0.3208586782962083,0.0094916047528386,-0.0581515952944755,0.0168108064681291,standing,2026-03-04_13-51-15
1772632281646619000,6.013618896484375,-0.0588361833175644,-0.0419058355763554,0.2488344755709171,-0.0152660943567752,-0.0589161813259124,0.0067230695858597,standing,2026-03-04_13-51-15
1772632281656567800,6.02356787109375,-0.0796470622865483,-0.0201366329692304,0.0926338600337505,-0.0280591193586587,-0.0394681841135025,0.0020167317707091,standing,2026-03-04_13-51-15
1772632281666515700,6.033515625,-0.0617489289591088,0.0425545087434351,-0.0757353322029113,-0.0236493051052093,-2.03812960535e-05,0.0080657852813601,standing,2026-03-04_13-51-15
1772632281676465200,6.043465087890625,-0.0170108656315132,0.096316347938776,-0.1691904454916715,-0.01647874340415,0.0307569727301597,0.0179671514779329,standing,2026-03-04_13-51-15
1772632281686412800,6.053412841796875,0.0117361766315996,0.102870007365942,-0.1746884583860635,-0.0088080149143934,0.0406126119196414,0.0290788449347019,standing,2026-03-04_13-51-15
1772632281696362000,6.063362060546875,0.0471421653272584,0.0467960918359458,-0.1125128649801015,0.0009375563822686,0.0335371233522892,0.0374672673642635,standing,2026-03-04_13-51-15
1772632281706310100,6.07331005859375,0.0263471415145322,0.0302777954943478,-0.0407253936201333,0.0131658259779214,0.0198626667261123,0.0451998822391033,standing,2026-03-04_13-51-15
1772632281716259000,6.083259033203125,-0.0390403266100212,-0.0086444942265748,0.0434188704878091,0.0203867219388484,-0.0071894573047757,0.0354875996708869,standing,2026-03-04_13-51-15
1772632281726207000,6.09320703125,-0.1158487314045429,-0.0837935509741306,0.1371966398596763,0.0189838856458663,-0.038953311741352,0.0210929252207279,standing,2026-03-04_13-51-15
1772632281736156000,6.103156005859375,-0.1138620145667344,-0.1138189791426062,0.1521095468312502,0.0117616588249802,-0.0547570399940013,0.0102834189310669,standing,2026-03-04_13-51-15
1772632281746104000,6.11310400390625,-0.1204990048957988,-0.0709156569615006,0.1047246953219175,0.0058716610074043,-0.0419992804527282,0.0072916680946946,standing,2026-03-04_13-51-15
1772632281756053000,6.123052978515625,-0.131911319867894,-0.0116736327894031,0.0482300701618194,0.0014990172348916,-0.0237523652613163,0.0081358896568417,standing,2026-03-04_13-51-15
1772632281766001000,6.1330009765625,-0.1077166071468964,0.0169619484558701,0.0041319852381944,-0.0010853232815861,-0.0079300701618194,0.0120050124824047,standing,2026-03-04_13-51-15
1772632281775950000,6.1429501953125,-0.0910478329513222,0.0245658475883305,-0.0131897364407777,-0.001930876635015,0.00284880772233,0.016337975859642,standing,2026-03-04_13-51-15
1772632281785898000,6.15289794921875,-0.0960191916231066,0.0145411510497331,-0.0043558571219444,-9.90810804069e-05,0.0125566571950912,0.0234135314822196,standing,2026-03-04_13-51-15
1772632281795847000,6.162846923828125,-0.1181244943168014,-0.0122857733383774,0.0389893636077642,0.0028951112180948,-0.0015272034797817,0.0176179595291614,standing,2026-03-04_13-51-15
1772632281805795000,6.172795166015625,-0.1411043878879398,-0.0538693912230432,0.0750385821104049,0.0043563642539083,-0.0250665284693241,0.0061456151306629,standing,2026-03-04_13-51-15
1772632281815744000,6.182743896484375,-0.16777937311735,-0.1050927979819476,0.0320931743532419,0.0057934061624109,-0.0192840062081813,-0.0047858618199825,standing,2026-03-04_13-51-15
1772632281825692000,6.19269189453125,-0.1461705121710896,-0.069061991918832,0.0294914674222469,0.0054943952709436,0.00435696169734,-0.0061712767928838,standing,2026-03-04_13-51-15
1772632281835640800,6.202640869140625,-0.1219644743384793,-0.0456454604960978,0.0900444280624389,-0.0041318661533296,0.0164341311901807,-0.007820039987564,standing,2026-03-04_13-51-15
1772632281845589000,6.212589111328125,-0.0806786703566089,-0.0769572752133011,0.2003349408179521,-0.0205027665942907,-0.0108505096286535,-0.0095614176243543,standing,2026-03-04_13-51-15
1772632281855538000,6.222537841796875,-0.0322721111167222,-0.0932229119680821,0.1799427256524562,-0.0291077047586441,-0.0267639644443988,-0.0094884475693106,standing,2026-03-04_13-51-15
1772632281865485800,6.23248583984375,-0.0603232800701633,-0.0485844365574419,0.0749058956414461,-0.0263834167271852,-0.0191709883511066,-0.0076745287515223,standing,2026-03-04_13-51-15
1772632281875434800,6.242434814453125,-0.1099473253410309,-0.0269951205618679,-0.0203577283740043,-0.0181419979780912,-0.0168037060648202,-0.012508432380855,standing,2026-03-04_13-51-15
1772632281885383000,6.2523828125,-0.0948688890768215,-0.0569724718049168,-0.069514265730977,-0.0071850535459816,-0.0202339049428701,-0.0152763966470956,standing,2026-03-04_13-51-15
1772632281895331800,6.262331787109375,-0.0672882967771962,-0.0398221611700952,-0.0876671775370836,-0.0003849384374916,-0.0151981320232152,-0.0107167987152934,standing,2026-03-04_13-51-15
1772632281905280000,6.272280029296875,-0.0839805249135941,0.0121386199526488,-0.0558007976770401,0.006723606493324,-0.0156387779861688,-0.012099340558052,standing,2026-03-04_13-51-15
1772632281915229000,6.28222900390625,-0.0868662181514315,-0.0045414428219199,-0.0224491476953029,0.0034527119714766,-0.0230836458504199,-0.0129187954589724,standing,2026-03-04_13-51-15
1772632281925176800,6.2921767578125,-0.0439238426015712,-0.0210050863668322,0.0006909048736095,-0.0060660275630652,-0.0294245369732379,-0.0083999279886484,standing,2026-03-04_13-51-15
1772632281935125000,6.302125,-0.0545080909853801,0.0055387832961976,-0.0218675484150648,-0.010704455897212,-0.0187063794583082,-0.0059836413711309,standing,2026-03-04_13-51-15
1772632281945074000,6.312073974609375,-0.0958771162712946,0.0191797706358134,-0.0580582212150096,-0.0113915279507637,-0.0039373701438307,-0.0109415631741285,standing,2026-03-04_13-51-15
1772632281955021800,6.322021728515625,-0.0350304699141532,0.0408322149954736,-0.0863812293797731,-0.0053466842509806,0.0031325237359851,-0.0065476140007376,standing,2026-03-04_13-51-15
1772632281964970800,6.331970703125,0.0361008573583327,0.0587314443014562,-0.0555102902978658,-0.0011255349963903,-0.0009654413443058,0.004178172443062,standing,2026-03-04_13-51-15
1772632281974919000,6.3419189453125,0.0615965879416093,0.0752979636989533,-0.0472790530472993,0.0041696280241012,-0.007101098075509,0.0162358991801738,standing,2026-03-04_13-51-15
1772632281984867800,6.351867919921875,0.0422964788617566,0.084632047624886,-0.0466302337497472,0.0162215940654277,-0.0073280716314911,0.0259856004267931,standing,2026-03-04_13-51-15
1772632281994815700,6.361815673828125,0.0039658531573601,0.0724880208447575,-0.0218956054657697,0.0243759267032146,-0.0039775487966835,0.0253666806966066,standing,2026-03-04_13-51-15
1772632282004765000,6.371764892578125,-0.0228604867088608,-0.0022433950126171,0.0052864159703254,0.0276209749281406,0.0042988760396838,0.0234928876161575,standing,2026-03-04_13-51-15
1772632282014712800,6.381712890625,-0.0365079768544994,-0.0310297829054295,0.046005964371562,0.0303227510303258,0.0161336958408355,0.0185138415545225,standing,2026-03-04_13-51-15
1772632282024662000,6.391662109375,-0.0554368049365468,-0.0563747981727123,0.1413479143202304,0.0249864924699068,0.0109282359480857,0.0090951668098568,standing,2026-03-04_13-51-15
1772632282034610000,6.40160986328125,-0.0161269954690709,-0.0741052467830479,0.2541273212820291,0.0070125521160662,-0.0254193842411041,0.0003634607419371,standing,2026-03-04_13-51-15
1772632282044559000,6.41155908203125,0.0263732988690957,-0.1038980352394282,0.3064437839746475,-0.0207707360386848,-0.0650481060147285,-0.0055215614847838,standing,2026-03-04_13-51-15
1772632282054507000,6.421507080078125,0.0314818009892478,-0.0573584023825824,0.2137280908763408,-0.0426962785422802,-0.0724290534853935,-0.0032453576568514,standing,2026-03-04_13-51-15
1772632282064456000,6.4314560546875,-0.0044381103116087,0.0040723640054464,0.0571317540198564,-0.0503054037690162,-0.0460974462330341,0.0052436264231801,standing,2026-03-04_13-51-15
1772632282074404000,6.441404052734375,-0.0455580927398987,0.0487727987363934,-0.1155535478502512,-0.0481027029454708,-0.0082778967916965,0.0129127316176891,standing,2026-03-04_13-51-15
1772632282084353000,6.45135302734375,-0.0620674568563699,0.0818118756376206,-0.1880517978280782,-0.0321088060736656,0.0212255492806434,0.0225893221795558,standing,2026-03-04_13-51-15
1772632282094301000,6.461301025390625,-0.0587262201370671,0.0861800077192485,-0.2221387763470411,-0.0073976032435894,0.0304981414228677,0.0301316604018211,standing,2026-03-04_13-51-15
1772632282104249900,6.471249755859375,-0.0491817448634654,0.0527678597219288,-0.178175131458044,0.0215991642326116,0.0210238769650459,0.0304740667343139,standing,2026-03-04_13-51-15
1772632282114198000,6.481197998046875,-0.0284185409611091,0.0172030637353658,-0.1113245319783687,0.0436235070228576,0.0068465387448668,0.0325824916362762,standing,2026-03-04_13-51-15
1772632282124147000,6.49114697265625,-0.0680652907653711,-0.0256458979099988,-0.0186105924457311,0.0523287057876586,-0.0089194169268012,0.0284150317311286,standing,2026-03-04_13-51-15
1772632282134094800,6.5010947265625,-0.0885782279673963,-0.0607173574216663,0.0811725548207759,0.0449168607592582,-0.0223065949976444,0.0141884256154298,standing,2026-03-04_13-51-15
1772632282144044000,6.5110439453125,-0.0778250710237771,-0.0983107366263866,0.1689174737691879,0.0239440593868494,-0.0316865481436252,0.0088966852053999,standing,2026-03-04_13-51-15
1772632282153992000,6.520991943359375,-0.0739003353280946,-0.0748683401100337,0.1920294692873954,-0.000869411509484,-0.0222384519875049,0.0061664124950766,standing,2026-03-04_13-51-15
1772632282163939800,6.53093994140625,-0.0751131817165762,-0.0457137034267187,0.1750409250855445,-0.0227396544069051,-0.014879198744893,0.0037961420603096,standing,2026-03-04_13-51-15
1772632282173889000,6.540888916015625,-0.0780136889310553,-0.0296234232388436,0.1180254909217357,-0.0356336161494255,-0.012828298844397,0.0027623027563095,standing,2026-03-04_13-51-15
1772632282183837000,6.5508369140625,-0.0573819293886423,-0.0196149471826851,0.0269756852090358,-0.0369859375059604,-0.0033388934098184,0.0047165192663669,standing,2026-03-04_13-51-15
1772632282193785900,6.560785888671875,-0.0464952822584658,0.014886311225593,-0.0833516524255275,-0.0252491198480129,0.0203621741384267,0.0094915674999356,standing,2026-03-04_13-51-15
1772632282203734000,6.570734130859375,-0.0837874865595251,0.0351047772593796,-0.1528220790147781,-0.0014792974106967,0.0323568508028984,0.0085057448595762,standing,2026-03-04_13-51-15
1772632282213683000,6.580682861328125,-0.075573730166722,0.0059638768404722,-0.1239490357518196,0.0149593316018581,0.0161485876888036,0.003369040088728,standing,2026-03-04_13-51-15
1772632282223630800,6.590630859375,-0.0219675564571283,-0.0167424604862928,-0.0588631078571081,0.0273389890789985,-0.005562821868807,0.0040338668040931,standing,2026-03-04_13-51-15
1772632282233579800,6.600579833984375,0.0115738804756663,-0.0059006023459136,-0.0019406126737594,0.034232847392559,-0.0158673897385597,0.0084270164370536,standing,2026-03-04_13-51-15
