time,seconds_elapsed,acc_x,acc_y,acc_z,gyr_x,gyr_y,gyr_z,activity,session
1772632376699201500,0.075201416015625,-0.0209663617916405,0.0814066558375954,-0.1862052931785583,0.0327978543937206,0.0011150990612804,-0.0132312551140785,standing,2026-03-04_13-52-56
1772632376709150700,0.085150634765625,-0.0648841947775334,0.0816328658089041,-0.1679465829104185,0.0592084228992462,0.0038656117394566,-0.016774857416749,standing,2026-03-04_13-52-56
1772632376719099000,0.095098876953125,-0.0438653721462935,0.0465891710869967,-0.0414957934707403,0.0640614479780197,-0.0025587207637727,-0.0180639941245317,standing,2026-03-04_13-52-56
1772632376729047800,0.1050478515625,0.0232610486000776,0.0202983994022011,0.0666390025556087,0.0520796179771423,0.0012155112344771,-0.0127437971532344,standing,2026-03-04_13-52-56
1772632376738995700,0.11499560546875,0.0277906548537313,-0.0167987207181751,0.1729372308045625,0.0320177674293518,0.0074918121099472,-0.0156338736414909,standing,2026-03-04_13-52-56
1772632376748944600,0.124944580078125,0.0044637379432097,-0.0554988921210169,0.2393628828704357,-0.0014555058442056,-0.0038804186042398,-0.0254992879927158,standing,2026-03-04_13-52-56
1772632376758892800,0.134892822265625,-0.0101554102461785,-0.0891794817961752,0.2526005501061678,-0.0328104421496391,-0.0133851049467921,-0.0358188785612583,standing,2026-03-04_13-52-56
1772632376768841700,0.144841796875,-0.0083933324771001,-0.0831419551976025,0.2200385891973972,-0.0555365271866321,-0.0197162367403507,-0.0412298887968063,standing,2026-03-04_13-52-56
1772632376778789600,0.15478955078125,-0.0036670346075668,-0.025654957999289,0.07855389675498,-0.0659721791744232,-0.0179375857114791,-0.0391873642802238,standing,2026-03-04_13-52-56
1772632376788738800,0.16473876953125,-0.0038559082431718,0.02887012065351,-0.0820084211230278,-0.0537645146250724,0.0032052500173449,-0.0323150753974914,standing,2026-03-04_13-52-56
1772632376798686700,0.174686767578125,-0.0164835172891616,0.1169176758103072,-0.2236024191588163,-0.0323043279349803,0.0258982721716165,-0.0188875216990709,standing,2026-03-04_13-52-56
1772632376808635600,0.1846357421875,-0.0300897621089592,0.1502029825575649,-0.2217366252869367,-0.0082732951268553,0.0233094133436679,-0.010512413457036,standing,2026-03-04_13-52-56
1772632376818583800,0.194583740234375,0.0166251907821744,0.1047398928910493,-0.1964811879992485,0.0176559314131736,0.0131507804617285,-0.0065259784460067,standing,2026-03-04_13-52-56
1772632376828532700,0.20453271484375,0.0490975737113505,0.0918254662603139,-0.1656955891132354,0.0408187732100486,0.0196992270648479,0.0028882957994937,standing,2026-03-04_13-52-56
1772632376838480600,0.214480712890625,0.0117074619937688,0.1216897125177085,-0.0932481925398111,0.0532821454107761,0.0138515653088688,0.0056379162706434,standing,2026-03-04_13-52-56
1772632376848429600,0.2244296875,0.0041545258635655,0.0720971218310296,0.0314110373079776,0.0519258007407188,-0.006658237427473,0.0002338297199457,standing,2026-03-04_13-52-56
1772632376858377700,0.234377685546875,0.0228170676922425,0.0058000645808875,0.1295341424077749,0.0393225438892841,-0.0113358478993177,-0.0031825080513954,standing,2026-03-04_13-52-56
1772632376868326700,0.24432666015625,-0.0056075742160901,0.0154712715066969,0.166591661170125,0.0193483047187328,-0.0044979150407016,-0.0019159086514264,standing,2026-03-04_13-52-56
1772632376878274600,0.254274658203125,-0.0427482777498662,0.033221301600337,0.2257774251103401,-0.0073012332431972,-0.0097297560423612,-0.0121320756152272,standing,2026-03-04_13-52-56
1772632376888223700,0.2642236328125,-0.0827788209736347,-0.0384299761593341,0.2368693124890327,-0.0293735135346651,-0.0156936384737491,-0.0284926742315292,standing,2026-03-04_13-52-56
1772632376898171600,0.274171630859375,-0.0760171082863584,-0.0653925096258521,0.1583317823469638,-0.0429755747318267,-0.002334380056709,-0.0317264162003994,standing,2026-03-04_13-52-56
1772632376908120600,0.28412060546875,-0.0751176752286031,-0.0017797230236232,0.0656494069963693,-0.0478550195693969,0.0103409346193075,-0.0296760499477386,standing,2026-03-04_13-52-56
1772632376918068700,0.29406884765625,-0.0483462804200127,0.0297124166965484,0.003571428745985,-0.037779152393341,0.0108781680464744,-0.0221216082572937,standing,2026-03-04_13-52-56
1772632376928017700,0.304017578125,0.0278951381415128,0.009439590127021,-0.0850017577201128,-0.0173915904015302,0.0202437080442905,-0.0111778806895017,standing,2026-03-04_13-52-56
1772632376937965600,0.313965576171875,0.0011169117333367,0.0109733755655586,-0.146432670238614,0.0097688222303986,0.0281814001500606,-0.0083158388733863,standing,2026-03-04_13-52-56
1772632376947914500,0.32391455078125,-0.0923602672567591,0.0006892974384129,-0.0979874960213899,0.0248889178037643,0.0163092948496341,-0.0176936276257038,standing,2026-03-04_13-52-56
1772632376957862700,0.333862548828125,-0.1393802309764549,-0.0733789783351123,0.0165460611313581,0.0273872725665569,-0.0125731695443391,-0.0377707257866859,standing,2026-03-04_13-52-56
1772632376967811600,0.3438115234375,-0.1056533179415389,-0.1300163729667663,0.0993997009068727,0.0204998049885034,-0.0268200151622295,-0.0488153882324695,standing,2026-03-04_13-52-56
1772632376977759500,0.353759521484375,-0.085157459738478,-0.0692388097904622,0.116342652401328,0.0064928005449473,-0.0215087048709392,-0.0501957796514034,standing,2026-03-04_13-52-56
1772632376987709000,0.363708984375,-0.0723507312659174,0.0129639648608863,0.1151467206150293,-0.0108664818108081,-0.0115146599709987,-0.0500844605267047,standing,2026-03-04_13-52-56
1772632376997656600,0.373656494140625,-0.0191621253812685,0.0216882463254034,0.0885591579407453,-0.0233324654400348,0.0025876061990857,-0.0418451875448226,standing,2026-03-04_13-52-56
1772632377007605800,0.383605712890625,0.0043052594458684,0.0364443553000688,0.0502834955602884,-0.0305200703442096,0.0116042708978056,-0.0354725122451782,standing,2026-03-04_13-52-56
1772632377017554000,0.393553955078125,-0.0164775990050286,0.0303757029108703,0.0121159697294235,-0.0269273091107606,0.0198946855962276,-0.0361234359443187,standing,2026-03-04_13-52-56
1772632377027502800,0.4035029296875,-0.0225687920195981,-0.0081777534976601,-0.0103027828276157,-0.0220135115087032,0.0170962363481521,-0.0383495725691318,standing,2026-03-04_13-52-56
1772632377037450800,0.41345068359375,-0.0155910254288464,-0.0271883050464093,0.0027168577432632,-0.0170098096132278,0.004885874222964,-0.0433350466191768,standing,2026-03-04_13-52-56
1772632377047399700,0.423399658203125,-0.0191992790538817,-0.0232674783408641,-0.0488794739812612,-0.0070104394108057,0.0078947134315967,-0.048330869525671,standing,2026-03-04_13-52-56
1772632377057347800,0.433347900390625,-0.0198622730072587,0.0043047114565968,-0.0840115776389837,0.00756829790771,0.0193207003176212,-0.0492042005062103,standing,2026-03-04_13-52-56
1772632377067296800,0.443296875,4.63964249938e-05,0.0399086704097688,-0.0320849910467863,0.0103148156777024,0.0101421168074011,-0.0435063689947128,standing,2026-03-04_13-52-56
1772632377077244700,0.45324462890625,0.0402462318010628,0.0484276385605335,0.0431762939035892,0.0072278352454304,-0.0114540578797459,-0.0385111682116985,standing,2026-03-04_13-52-56
1772632377087193600,0.463193603515625,0.0769040106561034,0.0156942666076123,0.0325929405689239,0.0012849909253418,-0.0153915416449308,-0.0309406016021966,standing,2026-03-04_13-52-56
1772632377097141800,0.473141845703125,0.0700013185955584,0.0404964071698486,-0.0030775077491998,-0.0047407802194356,-0.0041946093551814,-0.0240965597331523,standing,2026-03-04_13-52-56
1772632377107090700,0.483090576171875,0.0179996940057724,0.0310929112695157,-0.0229927530527114,-0.0112034725025296,0.006992797832936,-0.0269892886281013,standing,2026-03-04_13-52-56
1772632377117038800,0.493038818359375,-0.0383656056862324,-0.0090410923287272,-0.0376712667465209,-0.0108723416924476,0.0139089412987232,-0.0372994244098663,standing,2026-03-04_13-52-56
1772632377126987800,0.50298779296875,-0.0372315601550042,-0.0255637725844979,-0.0377262118041515,-0.0106081552803516,0.0182893089950084,-0.0404853634536266,standing,2026-03-04_13-52-56
1772632377136935700,0.512935791015625,0.0094482848901301,0.008388765899837,-0.0302039996057748,-0.0056066857650876,0.021101476624608,-0.0340406224131584,standing,2026-03-04_13-52-56
1772632377146884600,0.522884521484375,0.0550979101046919,0.0326464243218302,-0.0108130704373121,-0.0028729513287544,0.0213185232132673,-0.0261946823447942,standing,2026-03-04_13-52-56
1772632377156832800,0.532832763671875,0.0478325222115963,0.0416932157389819,0.0379097516775131,-0.0009615435265004,0.0077105872333049,-0.0265378132462501,standing,2026-03-04_13-52-56
1772632377166781700,0.54278173828125,0.020710779595375,0.0200574302531778,0.0862953046619892,-0.0077856271527707,-0.0043878871947526,-0.031031098216772,standing,2026-03-04_13-52-56
1772632377176729600,0.5527294921875,-0.0062389674548059,-0.0023307810351252,0.0824748695909976,-0.0118454042822122,-0.0055480962619185,-0.0292946100234985,standing,2026-03-04_13-52-56
1772632377186678500,0.562678466796875,-0.0386001450944691,0.0520833845891058,0.034071780949831,-0.0124387573450803,0.0069077750667929,-0.030616071075201,standing,2026-03-04_13-52-56
1772632377196626700,0.572626708984375,-0.1028369818791747,0.0577650834873318,0.0162555537521839,-0.0117857521399855,0.0190303083509206,-0.0353751182556152,standing,2026-03-04_13-52-56
1772632377206575600,0.58257568359375,-0.0605077332589775,0.0322791984446346,0.004335983377695,-0.0086022093892097,0.0312688648700714,-0.02876728028059,standing,2026-03-04_13-52-56
1772632377216523500,0.5925234375,0.002538651632145,0.0160148768641054,0.0105114571422338,-0.0022836443968117,0.0363693907856941,-0.0180975068360567,standing,2026-03-04_13-52-56
1772632377226472700,0.60247265625,0.0250062117669731,0.0038745033457875,0.0873994665116071,0.0012362552806735,0.0202929526567459,-0.010872084647417,standing,2026-03-04_13-52-56
1772632377236420600,0.612420654296875,0.0444557392548769,-0.0376247972562909,0.182947752687335,0.0010037594474852,-0.0118257440626621,-0.012680348008871,standing,2026-03-04_13-52-56
1772632377246369500,0.62236962890625,0.0077038523755967,-0.1055966558508575,0.2007949595451355,-0.0031182812526822,-0.040233414620161,-0.0219705179333686,standing,2026-03-04_13-52-56
1772632377256317700,0.632317626953125,-0.0376180021893233,-0.1239979894600808,0.1633703610360622,-0.0118779502809047,-0.0607522726058959,-0.0338697880506515,standing,2026-03-04_13-52-56
1772632377266266600,0.6422666015625,-0.1211891425844281,-0.1114861522808671,0.1090121633827686,-0.0220237951725721,-0.0642514005303382,-0.049175776541233,standing,2026-03-04_13-52-56
1772632377276214500,0.652214599609375,-0.1226226825188845,-0.1165098256617784,-0.0015483984857797,-0.0370678268373012,-0.0458664819598197,-0.056259598582983,standing,2026-03-04_13-52-56
1772632377286163700,0.662163818359375,-0.0852058289248496,-0.0515906326361,-0.1447130068391561,-0.0452346764504909,-0.0029712154064327,-0.0484133921563625,standing,2026-03-04_13-52-56
1772632377296111600,0.672111572265625,-0.0744699153769761,0.0566482082866132,-0.2577449272572994,-0.0406526550650596,0.0350332930684089,-0.0329871401190757,standing,2026-03-04_13-52-56
1772632377306060800,0.682060791015625,0.0019449965879321,0.0872679490864276,-0.2623398538321256,-0.025959463790059,0.047101940959692,-0.013627023436129,standing,2026-03-04_13-52-56
1772632377316008700,0.6920087890625,0.060843029627949,0.065602499114722,-0.2213689610183238,-0.0014873091131448,0.0380795150995254,-0.0006682756356894,standing,2026-03-04_13-52-56
1772632377325958000,0.7019580078125,0.027783275264874,0.0424123237937688,-0.1862111383974552,0.0285283792763948,0.0261440239846706,0.0009487955830991,standing,2026-03-04_13-52-56
1772632377335905500,0.711905517578125,-0.0198665838561952,0.0138609137006103,-0.1275964523434639,0.0569820739328861,0.0142775233834981,-0.0054104663431644,standing,2026-03-04_13-52-56
1772632377345854500,0.7218544921875,-0.0294878141604363,-0.0103141810044646,-0.0075374097675085,0.0625648573040962,-0.0036026739981025,-0.0168061330914497,standing,2026-03-04_13-52-56
1772632377355802600,0.731802734375,-0.011849281617254,-0.0524472494654357,0.1418769066303968,0.0493383817374706,-0.019495852291584,-0.0293149650096893,standing,2026-03-04_13-52-56
1772632377365751600,0.74175146484375,0.0285408886991441,-0.0489006628997623,0.2390232756525278,0.0236548576503992,-0.017594888806343,-0.0271812416613101,standing,2026-03-04_13-52-56
1772632377375699500,0.751699462890625,0.0383513579651713,0.0284530642852187,0.2790390596985816,-0.0053418609313666,-0.0109773576259613,-0.0219889692962169,standing,2026-03-04_13-52-56
1772632377385648400,0.7616484375,0.0438696829952299,0.0688075787663459,0.2896867104411125,-0.0363980457186698,-0.0154967419803142,-0.0197545755654573,standing,2026-03-04_13-52-56
1772632377395596500,0.771596435546875,0.0511542139802128,0.0655579293206334,0.2177753204405307,-0.0553120858967304,-0.0152490958571434,-0.0181156508624553,standing,2026-03-04_13-52-56
1772632377405545500,0.78154541015625,0.0434408631239086,0.0886160026945173,0.0837672474890947,-0.0597587637603282,0.0033448277972638,-0.0137296915054321,standing,2026-03-04_13-52-56
1772632377415493400,0.791493408203125,0.01429747848697,0.1159828791782259,-0.066755906933546,-0.0485588870942592,0.0244102049618959,-0.0113282334059476,standing,2026-03-04_13-52-56
1772632377425442600,0.801442626953125,0.0145201813269406,0.0892179141104221,-0.1506347981035709,-0.0283646713942289,0.0328516252338886,-0.0054778014309704,standing,2026-03-04_13-52-56
1772632377435390500,0.811390380859375,0.0683227909240871,0.0783743024043738,-0.1387093825101852,-0.0045411558821797,0.0265974421054124,0.0043094307184219,standing,2026-03-04_13-52-56
1772632377445339400,0.82133935546875,0.0953153542026877,0.0824471048012375,-0.0823351688593626,0.0142373256385326,0.0064162742346525,0.0150275882333517,standing,2026-03-04_13-52-56
1772632377455287600,0.83128759765625,0.0876162510674446,0.0635346067994832,-0.0053138884991407,0.0272745117545127,-0.0233404263854026,0.0216882620006799,standing,2026-03-04_13-52-56
1772632377465236500,0.841236572265625,0.0511200194496661,0.011189064142853,0.0322369667381048,0.0278060790151357,-0.0430712513625621,0.0204802528023719,standing,2026-03-04_13-52-56
1772632377475184400,0.851184326171875,0.0027236528102308,-0.02535933605358,0.0256166718155145,0.0214287675917148,-0.0398087389767169,0.0139916688203811,standing,2026-03-04_13-52-56
1772632377485133300,0.86113330078125,-0.0351226782422512,-0.0498164625704288,-0.0234293909043073,0.0089843478053808,-0.0145353414118289,0.0119942985475063,standing,2026-03-04_13-52-56
1772632377495081500,0.87108154296875,-0.0782725955955684,-0.0554313798427581,-0.0434685548484325,-0.0075096217915415,0.008136523887515,0.0096458308398723,standing,2026-03-04_13-52-56
1772632377505030400,0.881030517578125,-0.0430013026628643,-0.071151803804934,-0.0299637611091136,-0.0230619497597217,0.0273171421140432,0.0125225773081183,standing,2026-03-04_13-52-56
1772632377514978300,0.890978271484375,0.0067510086301714,-0.0727561702616512,-0.036850598013401,-0.0277739241719245,0.0340697728097438,0.0237998105585575,standing,2026-03-04_13-52-56
1772632377524927500,0.900927490234375,0.0009879881240427,-0.0781442930407822,-0.0357458516418933,-0.0153055358678102,0.0338615141808986,0.0278531424701213,standing,2026-03-04_13-52-56
1772632377534875400,0.91087548828125,-0.0374964216362684,-0.0886256473056971,-0.0524485646396875,0.0071434141136705,0.0204297825694084,0.0237959120422601,standing,2026-03-04_13-52-56
1772632377544824300,0.92082421875,-0.0869653128780424,-0.110015641336888,-0.0240811328113079,0.0249727442860603,-0.0003988002426922,0.0121658891439437,standing,2026-03-04_13-52-56
1772632377554772500,0.9307724609375,-0.088047847417742,-0.1087860995419323,0.0300257204294204,0.0360496267676353,-0.0176866818219423,0.0044168718159198,standing,2026-03-04_13-52-56
1772632377564721400,0.940721435546875,-0.0904833309363573,-0.0812476658836007,0.0493646271497011,0.038072295486927,-0.0189375691115856,-0.0021438251715153,standing,2026-03-04_13-52-56
1772632377574669300,0.95066943359375,-0.0884953719895333,-0.041607291021198,0.0770797325491905,0.0317831374704837,-0.0099006425589323,-0.0013968740822747,standing,2026-03-04_13-52-56
1772632377584618200,0.9606181640625,-0.0536187043976038,0.0224311736471951,0.1351888071686029,0.0160427894443273,-0.0099051687866449,-0.0014783669030293,standing,2026-03-04_13-52-56
1772632377594566400,0.97056640625,-0.0477785270020365,0.0506789246186614,0.192779995393753,-0.0035702115856111,-0.0170327853411436,0.000403779791668,standing,2026-03-04_13-52-56
1772632377604515600,0.980515625,-0.0609064502529799,0.0696072047114372,0.194922852641344,-0.0231383200734853,-0.0155773675069212,-0.0038455598987638,standing,2026-03-04_13-52-56
1772632377614463200,0.990463134765625,-0.0885045051440596,0.0813248227730393,0.145257781240344,-0.0336550995707511,-0.0083662811666727,-0.0078321788460016,standing,2026-03-04_13-52-56
1772632377624412400,1.000412353515625,-0.0977753145754337,0.0850822756104171,0.0697410602241754,-0.0339565724134445,-0.000633260468021,-0.0100849466398358,standing,2026-03-04_13-52-56
1772632377634360600,1.010360595703125,-0.0468538864377886,0.1453312848679721,-0.0109919341355562,-0.0232324451208114,0.002585973823443,-0.0033039562404155,standing,2026-03-04_13-52-56
1772632377644309500,1.0203095703125,0.0111099344920367,0.1773563624210655,-0.051524435532093,-0.011940642260015,-0.0017086395528167,0.00731300143525,standing,2026-03-04_13-52-56
1772632377654257400,1.03025732421875,0.0070594900574535,0.167096980343759,-0.0461181925743818,-0.0040858089923858,-0.0060316240414977,0.0092129586264491,standing,2026-03-04_13-52-56
1772632377664206600,1.04020654296875,-0.0168196173757314,0.0932506767578423,-0.0455529599070549,-0.0022852458059787,-0.014289554208517,0.0057420609518885,standing,2026-03-04_13-52-56
1772632377674154500,1.050154541015625,-0.0142037357889115,0.0591436783641576,-0.0511094249904155,-0.0015218760818243,-0.0133173465728759,0.0057141403667628,standing,2026-03-04_13-52-56
1772632377684103400,1.060103515625,-0.0337128114443272,0.0428803796969354,-0.0697872374534606,0.0013439520262181,0.0050576655194163,0.0049359644763171,standing,2026-03-04_13-52-56
1772632377694051600,1.070051513671875,-0.038920316959545,0.034914661514759,-0.0777244601935148,0.0065586329437792,0.020128209143877,0.0064942957833409,standing,2026-03-04_13-52-56
1772632377704000500,1.08000048828125,-0.0194407596595585,0.0135597387969493,-0.0510772762864828,0.0112705640494823,0.0275224763900041,0.0112746702507138,standing,2026-03-04_13-52-56
1772632377713948400,1.089948486328125,-0.0256583920653909,-0.0245648246750235,0.0029816461592912,0.0131446877494454,0.0309365466237068,0.0141584845259785,standing,2026-03-04_13-52-56
1772632377723897300,1.0998974609375,-0.0372131477154791,-0.0701217301048338,0.10990472830832,0.0098154703155159,0.0174468364566564,0.0081855468451976,standing,2026-03-04_13-52-56
1772632377733845500,1.109845458984375,-0.0841363730624318,-0.1540291167169809,0.2081745484024286,-0.0060019521042704,-0.0176958553493022,-0.0078488569706678,standing,2026-03-04_13-52-56
1772632377743794400,1.11979443359375,-0.0893608297124505,-0.2320698032528161,0.24700141492486,-0.0259519591927528,-0.0457759574055671,-0.0284297652542591,standing,2026-03-04_13-52-56
1772632377753742300,1.129742431640625,-0.1110056022223085,-0.2268229886405169,0.1503834536910057,-0.0383629277348518,-0.0568929463624954,-0.0420284420251846,standing,2026-03-04_13-52-56
1772632377763691500,1.13969140625,-0.0953448725581169,-0.1306894499227404,-0.0083709379822015,-0.0412383452057838,-0.0416599325835704,-0.0422289781272411,standing,2026-03-04_13-52-56
1772632377773639400,1.149639404296875,-0.0655977498743683,-0.0280778012320399,-0.1747913342386484,-0.0314712524414062,-0.0207249578088521,-0.0300259981304407,standing,2026-03-04_13-52-56
1772632377783588400,1.15958837890625,-0.0433359414447099,0.0607163345083594,-0.310911284777522,-0.0166188031435012,0.0035393689759075,-0.0139578161761164,standing,2026-03-04_13-52-56
1772632377793536500,1.16953662109375,-0.0329468685731291,0.0932622210651636,-0.3438157755136489,0.0045678159222006,0.0195559188723564,-0.0007221371633931,standing,2026-03-04_13-52-56
1772632377803485400,1.1794853515625,-0.0955165027979761,0.0931308497704565,-0.3119295219093561,0.0264779068529605,0.0259618870913982,0.0013247686438262,standing,2026-03-04_13-52-56
1772632377813433300,1.189433349609375,-0.124501262807101,0.0396773458719253,-0.2506318803817033,0.0432024523615837,0.0227022636681795,-0.0053547318093478,standing,2026-03-04_13-52-56
1772632377823382300,1.19938232421875,-0.0923662220735102,0.0057923196658492,-0.1774912408471107,0.0571595467627048,0.0251545011997222,-0.0050865514203906,standing,2026-03-04_13-52-56
1772632377833330400,1.209330322265625,-0.0695422497164458,0.0290611131809651,-0.0437543860524892,0.0585190951824188,0.0230322852730751,-0.0045225257053971,standing,2026-03-04_13-52-56
1772632377843279400,1.219279296875,-0.0655599751472473,0.0130798463255167,0.0869616596162319,0.0478427484631538,0.0164556093513965,-0.009539920836687,standing,2026-03-04_13-52-56
1772632377853227300,1.229227294921875,-0.062841363838315,-0.0307997735418379,0.1986988640487194,0.0303420480340719,0.0028878124430775,-0.0140305114910006,standing,2026-03-04_13-52-56
1772632377863176400,1.239176513671875,-0.0423745490666478,-0.0478286497540771,0.2665793910980224,0.012118836864829,-0.0079352743923664,-0.0218213237822055,standing,2026-03-04_13-52-56
1772632377873124400,1.249124267578125,-0.030263328577578,-0.0307606105752289,0.2589566411346197,-0.0018885903991758,-0.0125480787828564,-0.0244006272405385,standing,2026-03-04_13-52-56
1772632377883073300,1.2590732421875,-0.03717186585702,0.0217297473795711,0.2125163769990205,-0.0108338817954063,-0.0175281893461942,-0.027058994397521,standing,2026-03-04_13-52-56
1772632377893021400,1.269021484375,-0.0153063632685691,0.0293238557703793,0.1661766506284475,-0.0126872733235359,-0.0155782010406255,-0.0258369334042072,standing,2026-03-04_13-52-56
1772632377902970600,1.278970703125,0.0118791652988642,0.0569128505721688,0.0771481216102838,-0.0098776388913393,-0.0092771612107753,-0.0204309821128845,standing,2026-03-04_13-52-56
1772632377912918300,1.288918212890625,-0.0029050737917423,0.0899783770889043,0.0147457337111234,-0.0044291410595178,0.0040247216820716,-0.016004929319024,standing,2026-03-04_13-52-56
1772632377922867500,1.298867431640625,-0.009155731684342,0.1013178094878792,-0.0315624284774065,0.005713241174817,0.0152470152825117,-0.0121097899973392,standing,2026-03-04_13-52-56
1772632377932815600,1.308815673828125,0.0015022943217307,0.0873125188805162,-0.032751346001029,0.0139937000349164,0.0134012009948492,-0.0105034373700618,standing,2026-03-04_13-52-56
1772632377942764500,1.3187646484375,-0.0011610796686261,0.063723407369852,0.0125707277595996,0.0160683020949363,-0.0043655447661876,-0.0085326991975307,standing,2026-03-04_13-52-56
1772632377952712400,1.32871240234375,0.0231251472607254,0.0415573143996298,0.0488601847589015,0.0145222311839461,-0.0188183784484863,-0.0106672793626785,standing,2026-03-04_13-52-56
1772632377962661600,1.33866162109375,0.0247762754686176,0.0211897952839732,0.0460971497863531,0.0077719166874885,-0.0221595801413059,-0.010346901603043,standing,2026-03-04_13-52-56
1772632377972609500,1.348609619140625,-0.0127935036648064,0.0366053910806775,0.005136193844676,-0.0016647796146571,-0.0123932240530848,-0.0123817231506109,standing,2026-03-04_13-52-56
1772632377982558500,1.358558349609375,-0.0347558176912367,0.0245668705016374,-0.0089390932589769,-0.0087927319109439,0.0043396828696131,-0.0126720070838928,standing,2026-03-04_13-52-56
1772632377992506600,1.368506591796875,-0.0248069628678262,0.0330196415483951,-0.0388642759233713,-0.0140408109873533,0.0211259834468364,-0.0072236042469739,standing,2026-03-04_13-52-56
1772632378002455600,1.37845556640625,-0.0172175306521356,0.0605621668599545,-0.0408154099911451,-0.0172070432454347,0.029219064861536,-0.0026243249885737,standing,2026-03-04_13-52-56
1772632378012403500,1.388403564453125,-0.0130972358517348,0.0564709520235657,-0.0216875156730413,-0.0138471974059939,0.0238582100719213,1.06305815279e-05,standing,2026-03-04_13-52-56
1772632378022352400,1.398352294921875,-0.0183667737524956,0.0128105278648436,-0.0063607672035694,-0.0053538437932729,0.0168596897274255,-0.0010493076406419,standing,2026-03-04_13-52-56
1772632378032300500,1.408300537109375,-0.0016400953572243,-0.0067846917040646,-0.0112520463764667,0.0087705599144101,0.0039421012625098,0.0011159619316458,standing,2026-03-04_13-52-56
1772632378042249500,1.41824951171875,0.0124172907635569,0.0175717509172856,0.005246083959937,0.0196021683514118,-0.0097923530265688,0.0018235640600323,standing,2026-03-04_13-52-56
1772632378052197400,1.428197265625,0.0359074719443917,0.0553806725688278,0.0135831196725368,0.0292700193822383,-0.0187556464225053,0.0074211689643561,standing,2026-03-04_13-52-56
1772632378062146300,1.438146240234375,0.0718343792416155,0.0649915276095271,0.0375789122879505,0.027045214548707,-0.0158669166266918,0.0177305303514003,standing,2026-03-04_13-52-56
1772632378072094500,1.448094482421875,0.0360041372518986,0.0831359638482332,0.0615039777547121,0.0187337603420019,-0.0145447747781872,0.0209438931196928,standing,2026-03-04_13-52-56
1772632378082043400,1.45804345703125,-0.0013335136260837,0.056260670273751,0.0700631317853927,0.0058025154285132,-0.0065917773172259,0.0150069100782275,standing,2026-03-04_13-52-56
1772632378091991600,1.467991455078125,-0.0447669240958988,0.031029929035902,0.0853998171269893,-0.0101545099169015,0.0029821449425071,0.0109586967155337,standing,2026-03-04_13-52-56
1772632378101940500,1.4779404296875,-0.0437042633004486,0.0556017679736018,0.0920066680461168,-0.0268376152962446,0.0060751400887966,0.0110031710937619,standing,2026-03-04_13-52-56
1772632378111888400,1.487888427734375,-0.0002105740107595,0.0522759845517575,0.0950923591017723,-0.0326160378754138,0.0031580382492393,0.0147036910057067,standing,2026-03-04_13-52-56
1772632378121837300,1.49783740234375,0.0212727973923087,0.0707062519945204,0.0339706586629152,-0.0268905069679021,0.0074369395151734,0.0208031274378299,standing,2026-03-04_13-52-56
1772632378131785500,1.507785400390625,0.0199473940074443,0.0975974737904965,-0.0125309802711009,-0.0140854464843869,0.0047206222079694,0.0240843165665864,standing,2026-03-04_13-52-56
1772632378141734400,1.517734375,0.0388366572640836,0.077877020406723,-0.0396142175078392,-0.0012854952365159,-0.0076337815262377,0.0309233143925666,standing,2026-03-04_13-52-56
1772632378151682300,1.527682373046875,0.0438129113066941,0.0535083028256893,-0.0499766215682029,0.0120011810213327,-0.0051435558125376,0.0313184522092342,standing,2026-03-04_13-52-56
1772632378161631200,1.53763134765625,0.000606514525786,0.0708164343707263,-0.0536836593925952,0.0168398786336183,0.0021439180709421,0.0310015380382537,standing,2026-03-04_13-52-56
1772632378171579400,1.547579345703125,-0.0415527843549847,0.0579569527976214,0.0185842889606952,0.0119274705648422,0.0022286234889179,0.0270684659481048,standing,2026-03-04_13-52-56
1772632378181528300,1.5575283203125,-0.0499180963139981,0.0077519293010234,0.100786771351099,-0.003014194779098,-0.0005194921977818,0.0249006524682045,standing,2026-03-04_13-52-56
1772632378191476200,1.567476318359375,-0.01096139286682,0.0011976853519678,0.1425467687159776,-0.0178839117288589,0.0129083637148141,0.0270774513483047,standing,2026-03-04_13-52-56
1772632378201425700,1.57742578125,-0.0402316918190568,0.0059983636319637,0.1438800631463527,-0.0283184424042701,0.0325395911931991,0.0291057135909795,standing,2026-03-04_13-52-56
1772632378211373300,1.587373291015625,-0.0338130569484084,-0.0182893976673483,0.1507096169054508,-0.0377266369760036,0.0319012999534606,0.0277821943163871,standing,2026-03-04_13-52-56
1772632378221322500,1.597322509765625,-0.0193944362998008,-0.0420946361467242,0.1887432872235775,-0.0428636074066162,0.0062752971425652,0.0260463468730449,standing,2026-03-04_13-52-56
1772632378231270700,1.607270751953125,-0.0033428806871175,-0.0751012720830738,0.2040004775881767,-0.0464294254779815,-0.0311625096946954,0.0164730362594127,standing,2026-03-04_13-52-56
1772632378241219600,1.617219482421875,-0.0378802333220839,-0.0615381722852587,0.1736041702806949,-0.0469535365700721,-0.0681434273719787,0.0061439676210284,standing,2026-03-04_13-52-56
1772632378251167500,1.62716748046875,-0.0610453472670167,-0.0558824846111237,0.0528045384705066,-0.0439061373472213,-0.075745441019535,-0.0002110188361257,standing,2026-03-04_13-52-56
1772632378261116400,1.637116455078125,-0.0826391933072358,-0.013274053723365,-0.125712538293004,-0.0444566123187541,-0.0477731935679912,0.0009586415253579,standing,2026-03-04_13-52-56
1772632378271064600,1.647064697265625,-0.0976428473021835,0.0479420470006763,-0.2331067450851202,-0.0416316874325275,-0.0092259719967842,0.007746847346425,standing,2026-03-04_13-52-56
1772632378281013500,1.657013427734375,-0.0971058178160339,0.0898534355349838,-0.289605461898446,-0.037981029599905,0.0265061911195516,0.0175789706408977,standing,2026-03-04_13-52-56
1772632378290961400,1.66696142578125,-0.0837836141020059,0.0914371975950896,-0.2956932573795318,-0.0246781595051288,0.0461747646331787,0.0296231359243392,standing,2026-03-04_13-52-56
1772632378300910600,1.67691064453125,-0.0740957483023405,0.081434566757828,-0.2575783385187387,-0.0045843459665775,0.0490605682134628,0.0379654876887798,standing,2026-03-04_13-52-56
1772632378310858500,1.6868583984375,-0.0687318831816315,0.0506733716607093,-0.1795931815624237,0.0220115203410387,0.0334072895348072,0.0421853810548782,standing,2026-03-04_13-52-56
1772632378320807400,1.696807373046875,-0.0796508982114493,0.0008531096979975,-0.0761567724853754,0.0398107580840587,0.0107690868899226,0.0365962050855159,standing,2026-03-04_13-52-56
1772632378330755600,1.706755615234375,-0.1217481647066772,-0.0677108695708215,0.0292781169325113,0.0477688126266002,-0.0104139912873506,0.0184323973953723,standing,2026-03-04_13-52-56
1772632378340704500,1.71670458984375,-0.1286181235413998,-0.1226313772819936,0.1158218433976173,0.0400142222642898,-0.0237545650452375,0.0034217569045722,standing,2026-03-04_13-52-56
1772632378350652400,1.72665234375,-0.1025368298888206,-0.0959058674417436,0.1945329765409231,0.0214577950537204,-0.0196538176387548,-0.0051705660298466,standing,2026-03-04_13-52-56
1772632378360601300,1.736601318359375,-0.1012555579066276,-0.0876193928726017,0.2431622751533985,-0.0102378176525235,-0.014297136105597,-0.0128777548670768,standing,2026-03-04_13-52-56
1772632378370549500,1.746549560546875,-0.0728062199484556,-0.0671628802992403,0.2715460735946893,-0.0416595414280891,-0.0102765271440148,-0.0140540366992354,standing,2026-03-04_13-52-56
1772632378380498400,1.75649853515625,-0.0348264717746526,-0.0321318989284336,0.2194242566913366,-0.0615911744534969,-0.0080820824950933,-0.0127224558964371,standing,2026-03-04_13-52-56
1772632378390446300,1.7664462890625,-0.0325819807834923,0.0077671268701553,0.0908504837483167,-0.0605669245123863,-0.0013185995630919,-0.00918710231781,standing,2026-03-04_13-52-56
1772632378400395500,1.7763955078125,-0.0044151130285114,0.0856200357489287,-0.028234160837531,-0.0427530370652675,0.0078701050952076,-0.0009020086145028,standing,2026-03-04_13-52-56
1772632378410343400,1.786343505859375,0.0378611632954329,0.1286921386256813,-0.0892576615989208,-0.0147521905601024,0.0028380679432302,0.0084430743008852,standing,2026-03-04_13-52-56
1772632378420292400,1.796292236328125,0.0687446695979684,0.1413509830601513,-0.1193184533417224,0.0110101643949747,-0.0086822342127561,0.0119323479011654,standing,2026-03-04_13-52-56
1772632378430240500,1.806240478515625,0.030183614404872,0.1185538987100124,-0.128207862240076,0.0331423133611679,-0.0107616186141967,0.0103217689320445,standing,2026-03-04_13-52-56
1772632378440189400,1.816189453125,0.030139263806492,0.1068124613814055,-0.0753957249850034,0.0378688909113407,-0.0120250228792428,0.0110392244532704,standing,2026-03-04_13-52-56
1772632378450137300,1.826137451171875,0.0492973340671509,0.0989556104011833,0.0376595763087272,0.0254832152277231,-0.0204963069409132,0.0131928864866495,standing,2026-03-04_13-52-56
1772632378460086300,1.836086181640625,0.058479442301765,0.0525632770605385,0.143066408675909,-0.0002237455919384,-0.0261629801243543,0.0129374898970127,standing,2026-03-04_13-52-56
1772632378470034400,1.846034423828125,0.0444519033299759,0.04275514588207,0.1296972240149974,-0.0255647338926792,-0.0149642508476972,0.0160354357212781,standing,2026-03-04_13-52-56
1772632378479983400,1.8559833984375,0.0149701901167631,0.0451468633241951,0.0652840808153152,-0.0386184863746166,-0.0045757927000522,0.01959821395576,standing,2026-03-04_13-52-56
1772632378489931300,1.86593115234375,-0.0044186201598495,0.070934507792443,-0.0276981542646884,-0.0337711907923221,0.0039326678961515,0.023314518854022,standing,2026-03-04_13-52-56
1772632378499880400,1.87588037109375,0.0280510228229686,0.0759554046943783,-0.134105103585124,-0.0170699749141931,0.0160015802830457,0.0323727317154407,standing,2026-03-04_13-52-56
1772632378509828400,1.885828369140625,0.027084917737171,0.0760178024061024,-0.1647702909618616,0.0032770857214927,0.0246220286935567,0.0375137291848659,standing,2026-03-04_13-52-56
1772632378519777500,1.895777587890625,-0.020176015131548,0.0626142770841717,-0.0995505075544118,0.01722246222198,0.0148008223623037,0.0380602106451988,standing,2026-03-04_13-52-56
1772632378529725400,1.905725341796875,-0.0401661523021757,-0.0030111645147204,0.0087029464155435,0.0237701646983623,-0.0090879807248711,0.0354669764637947,standing,2026-03-04_13-52-56
1772632378539674600,1.915674560546875,-0.0466767397725954,-0.0295336991287767,0.102060444548726,0.0214641336351633,-0.020889513194561,0.0326296426355838,standing,2026-03-04_13-52-56
1772632378549622500,1.92562255859375,-0.0755019983710721,-0.0178458916835486,0.1521522169291973,0.0146924629807472,-0.0281061362475156,0.0278512332588434,standing,2026-03-04_13-52-56
1772632378559571500,1.935571533203125,-0.1205010872550308,-0.0242640881627798,0.1634504405349492,-0.0006809001788496,-0.034901987761259,0.0191261861473321,standing,2026-03-04_13-52-56
1772632378569519600,1.94551953125,-0.1025509680120274,-0.0376638140924274,0.1544791985720396,-0.0112315947189927,-0.0252813100814819,0.0190538484603166,standing,2026-03-04_13-52-56
1772632378579468500,1.955468505859375,-0.0928515213724225,-0.0134247142404317,0.0971218191027641,-0.0208714380860328,-0.007412030827254,0.0169424936175346,standing,2026-03-04_13-52-56
1772632378589416400,1.96541650390625,-0.1042688413131982,-0.0089656890049576,0.078132456472516,-0.0286261476576328,-0.0019223721465095,0.0114656770601868,standing,2026-03-04_13-52-56
1772632378599365400,1.975365478515625,-0.1187824467688798,-0.025030104099214,0.1043500167906284,-0.0341428853571414,-0.0134493317455053,0.0051686326041817,standing,2026-03-04_13-52-56
1772632378609313500,1.9853134765625,-0.0844873053919523,-0.0412812739372253,0.0885731864660978,-0.0301766339689493,-0.0179693400859832,0.0030585872009396,standing,2026-03-04_13-52-56
1772632378619262500,1.995262451171875,-0.0760288352567702,-0.02244534830302,0.0539963786035776,-0.0233940947800874,-0.0168630629777908,0.001228729262948,standing,2026-03-04_13-52-56
1772632378629210400,2.00521044921875,-0.08577851424627,0.0198256673239171,0.0089104516863822,-0.0105007216334342,-0.0189647562801837,-0.0013554628239944,standing,2026-03-04_13-52-56
1772632378639159600,2.01515966796875,-0.0368191434292122,0.0199120304331183,-0.002543839263916,-0.0017426502890884,-0.0212132632732391,0.0037791116628795,standing,2026-03-04_13-52-56
1772632378649107500,2.025107421875,-0.019045147938095,0.031460721668601,0.0439741662830114,0.0014059264212846,-0.0216701533645391,0.0054061939008533,standing,2026-03-04_13-52-56
1772632378659056400,2.035056396484375,-0.0509887212201952,0.0318533742479979,0.0656558367371559,-0.0024410095065832,-0.0266497302800416,-0.0003257277421653,standing,2026-03-04_13-52-56
1772632378669004500,2.045004638671875,-0.0650214478237554,0.0124709206469357,0.1190700315386056,-0.0125571079552173,-0.0279225595295429,-0.0042670471593737,standing,2026-03-04_13-52-56
1772632378678953500,2.054953369140625,-0.088073164522089,0.0001345861651003,0.1227338147431612,-0.0328458696603775,-0.0122181642800569,-0.0160355567932128,standing,2026-03-04_13-52-56
1772632378688901400,2.0649013671875,-0.0962284504596144,0.0104777010031044,0.1178314296543598,-0.0524719804525375,0.0050626005977392,-0.0145323332399129,standing,2026-03-04_13-52-56
1772632378698850300,2.074850341796875,-0.0616944222928956,0.0444822619356215,0.0890314516276121,-0.0620210096240043,0.0162217784672975,-0.0066831987351179,standing,2026-03-04_13-52-56
1772632378708798500,2.084798583984375,-0.0150071611262857,0.0406821390002965,0.0457236402988433,-0.058328378945589,0.0193577632308006,-0.0016967385308817,standing,2026-03-04_13-52-56
1772632378718747400,2.094747314453125,0.0248380521258339,0.0639132308535277,0.0365162514925003,-0.0458370894193649,0.0081937918439507,0.0017525875009596,standing,2026-03-04_13-52-56
1772632378728695300,2.1046953125,0.0276368159988895,0.0382734704233706,0.0632680648177862,-0.0308696962893009,-0.02102573774755,0.0067259832285344,standing,2026-03-04_13-52-56
1772632378738644500,2.11464453125,0.0296974017905071,0.0081494041860103,0.0577887566238641,-0.0188330076634883,-0.0556609444320201,0.0055097178556025,standing,2026-03-04_13-52-56
1772632378748592400,2.12459228515625,-0.0091705639272928,0.0073638067662715,0.0483703554153442,-0.0090420022606849,-0.0696543827652931,0.0024206591770052,standing,2026-03-04_13-52-56
1772632378758541300,2.134541259765625,-0.0517506820360198,-0.0082191084213554,-0.0079915832757949,-0.0064171911217272,-0.0600065477192401,-0.0043645426630973,standing,2026-03-04_13-52-56
1772632378768489500,2.144489501953125,-0.063628459095396,-0.0067285776026546,-0.0392149890571832,-0.0216281022876501,-0.0389875508844852,-0.0074138618074357,standing,2026-03-04_13-52-56
1772632378778438400,2.1544384765625,-0.0277601866502314,0.0045526948682963,-0.0435918889671564,-0.0393431819975376,-0.0232418775558471,-0.0024286906700581,standing,2026-03-04_13-52-56
1772632378788386300,2.16438623046875,0.0007934519326314,0.0083688921555876,-0.0801245070725679,-0.0487887226045131,0.0007990952581167,0.0101057169958949,standing,2026-03-04_13-52-56
1772632378798335500,2.17433544921875,0.0387357541728764,0.0487314438126981,-0.1354670395880937,-0.0447769351303577,0.0220897365361452,0.0192472841590642,standing,2026-03-04_13-52-56
1772632378808283400,2.184283447265625,0.0207969600414857,0.0501757974021136,-0.1449497382044792,-0.0309893731027841,0.026998983696103,0.0224210396409034,standing,2026-03-04_13-52-56
1772632378818232600,2.194232666015625,0.0288615354882553,-0.0074976622790098,-0.1288198566585779,-0.0138029269874095,0.015436871908605,0.0219877436757087,standing,2026-03-04_13-52-56
1772632378828180500,2.204180419921875,0.0392947762951254,-0.0377566069424152,-0.0894435395598411,0.005595208145678,-0.0040354435332119,0.0169001147150993,standing,2026-03-04_13-52-56
1772632378838129400,2.21412939453125,-0.0010603227078914,-0.0590671059966087,-0.0183411278545856,0.0129378093406558,-0.0218762252479791,0.0049776756204664,standing,2026-03-04_13-52-56
1772632378848077600,2.22407763671875,0.0007573942385613,-0.0778736594058573,0.0497393056809902,0.0044914381578564,-0.0350398682057857,0.0006554401479661,standing,2026-03-04_13-52-56
1772632378858026500,2.234026611328125,0.0526671027611941,-0.0691878102555871,0.0597165098160505,-0.0085881445556879,-0.0431393384933471,0.0015910086221992,standing,2026-03-04_13-52-56
1772632378867974400,2.243974365234375,0.0720185401694849,-0.0365162514925003,-0.0054828153252601,-0.0231213364750146,-0.0252666790038347,0.0031801927834749,standing,2026-03-04_13-52-56
1772632378877923600,2.253923583984375,0.0725339058130979,-0.024443682513386,-0.1056710362613201,-0.0310026947408914,0.0101200742647051,0.0076689510606229,standing,2026-03-04_13-52-56
1772632378887871500,2.26387158203125,0.0663172232553362,0.0113164899148046,-0.1968751557528972,-0.0291967540979385,0.0443323627114295,0.0124891716986894,standing,2026-03-04_13-52-56
1772632378897820400,2.2738203125,0.060716882497631,0.0047105157785117,-0.1964274119853973,-0.0216940958052873,0.0639915540814399,0.0168026927858591,standing,2026-03-04_13-52-56
1772632378907768600,2.2837685546875,0.0698966161120683,0.0008745908774435,-0.1874310355812311,-0.0056728343479335,0.0610468462109565,0.0204324480146169,standing,2026-03-04_13-52-56
1772632378917717500,2.293717529296875,0.0507766128394752,-0.0081930971972644,-0.1072808095455169,0.0110337082296609,0.035965196788311,0.0190156456083059,standing,2026-03-04_13-52-56
1772632378927665400,2.30366552734375,0.0191763000370934,-0.0522018964022397,-0.0233066413074731,0.0232910625636577,0.0029202124569565,0.0111531149595975,standing,2026-03-04_13-52-56
1772632378937614300,2.3136142578125,0.0124503527829423,-0.0682784403257072,0.0008107318609952,0.0298288576304912,-0.0162353720515966,0.0050773783586919,standing,2026-03-04_13-52-56
1772632378947562500,2.3235625,0.0173547836983576,-0.0146639006465673,-0.0347235228568315,0.0364080369472503,-0.0069466750137507,0.0130815654993057,standing,2026-03-04_13-52-56
1772632378957511400,2.333511474609375,0.0055307095875963,0.0560688009634613,-0.0486006570398807,0.0399359241127967,0.0162798184901475,0.0186686124652624,standing,2026-03-04_13-52-56
1772632378967459300,2.343459228515625,-0.0120973015615716,0.0718723731644451,-0.0221066178679466,0.0307902581989765,0.0255571715533733,0.0228252410888671,standing,2026-03-04_13-52-56
1772632378977408500,2.353408447265625,-0.0387284841818734,0.0494882535293698,0.0368757324546575,0.0172542110085487,0.0266221705824136,0.0217607747763395,standing,2026-03-04_13-52-56
1772632378987356400,2.3633564453125,-0.0623634075956419,0.0388490783542394,0.0908083981722593,0.0090817119926214,0.0325594618916511,0.0221763122826814,standing,2026-03-04_13-52-56
1772632378997305300,2.373305419921875,-0.0768777802363038,0.0308875979557633,0.0909551131665706,0.0054313177242875,0.0324803628027439,0.020037792623043,standing,2026-03-04_13-52-56
1772632379007253500,2.38325341796875,-0.0796828642522916,0.0242639420323073,0.0980342577725648,0.0049890726804733,0.0261651873588562,0.0166897326707839,standing,2026-03-04_13-52-56
1772632379017202400,2.393202392578125,-0.0612465689275413,-0.0133934423193335,0.1196919628292322,0.003993316553533,0.0124555006623268,0.0106875011697411,standing,2026-03-04_13-52-56
1772632379027150300,2.403150390625,-0.0777794417837634,-0.0289651054605841,0.1194026244938373,0.0070651201531291,0.0019982489757239,0.0063060959801077,standing,2026-03-04_13-52-56
1772632379037099300,2.413099365234375,-0.0722813192915171,-0.0231913443647325,0.1015899044275283,0.0121770575642585,0.0013186102733016,0.0010098675265908,standing,2026-03-04_13-52-56
1772632379047047400,2.42304736328125,-0.0596394625244662,-0.0059328971803188,0.0765074856191873,0.0131823429837822,0.0038861467037349,0.0004086410626769,standing,2026-03-04_13-52-56
1772632379056996400,2.432996337890625,-0.0675530851932242,-0.0072745210476219,0.0972556746155023,0.0093716252595186,-0.0015046240296214,-0.0022702326532453,standing,2026-03-04_13-52-56
1772632379066944300,2.4429443359375,-0.0774818836092949,0.0049482700571417,0.1350824241846799,0.0009338771924376,-0.0126218888908624,-0.0038536246865987,standing,2026-03-04_13-52-56
1772632379076893400,2.4528935546875,-0.0745565707471221,-0.0047805122748017,0.0939151320159435,-0.0069999457336962,-0.0138091258704662,-0.0031777145341038,standing,2026-03-04_13-52-56
1772632379086841300,2.46284130859375,-0.082384889752604,0.0201097449623048,0.0492675965160131,-0.012708481401205,-0.0085101937875151,-0.0055041667073965,standing,2026-03-04_13-52-56
1772632379096790500,2.47279052734375,-0.1308530795192345,-0.0029044892698526,0.0020925883650779,-0.0134690795093774,-0.0008834332693368,-0.0149088539183139,standing,2026-03-04_13-52-56
1772632379106738400,2.482738525390625,-0.1226584479520097,-0.0298126622006297,-0.0743909318566322,-0.0051733367145061,0.0135175809264183,-0.0201065316796302,standing,2026-03-04_13-52-56
1772632379116687600,2.4926875,-0.1013986927043646,0.0012825871564447,-0.0846498755425214,-0.000118657015264,0.0275561679154634,-0.0179357882589101,standing,2026-03-04_13-52-56
1772632379126635500,2.502635498046875,-0.0507684295330196,0.0315143515519797,-0.0364694897413253,0.0011512977071106,0.0132318176329135,-0.0175456851720809,standing,2026-03-04_13-52-56
1772632379136584400,2.51258447265625,-0.0002417728666216,0.0232685012541711,0.0215624279886484,-0.0004583168774843,-0.0056651728227734,-0.0163014568388462,standing,2026-03-04_13-52-56
1772632379146532600,2.52253271484375,0.0056426820620894,0.0003591887012124,-0.0098830961108207,0.0073140654712915,0.0024797026999294,-0.0154587235301733,standing,2026-03-04_13-52-56
1772632379156481500,2.5324814453125,-0.0455305288795381,0.0486031412579119,-0.0781131672501563,0.0149948885664343,0.0226768497377634,-0.0131180714815855,standing,2026-03-04_13-52-56
1772632379166429400,2.542429443359375,-0.0778017632134258,0.0777618695944547,-0.0455886157423257,0.0125584676861763,0.0212139803916215,-0.0160813201218843,standing,2026-03-04_13-52-56
1772632379176378400,2.55237841796875,-0.0647048561552539,0.0085436642006039,0.0740717829048633,0.001851761713624,0.0002889921888709,-0.0192592721432447,standing,2026-03-04_13-52-56
1772632379186326500,2.562326416015625,-0.0319844167491421,-0.0394501129873096,0.1041840125739574,-0.0030686906538903,0.0010134002659469,-0.0213940758258104,standing,2026-03-04_13-52-56
1772632379196275500,2.572275390625,-0.0206344629561528,-0.0323695070765912,0.0462543861746788,-0.001188498456031,0.0286490228027105,-0.0166089087724685,standing,2026-03-04_13-52-56
1772632379206223400,2.582223388671875,-0.011780673360452,0.0248943488903343,0.0194926359772682,0.0071588088758289,0.0402883067727088,-0.0098820477724075,standing,2026-03-04_13-52-56
1772632379216172500,2.592172607421875,0.0081750866165384,0.0044781683273613,0.1274737027466297,0.0022234385833144,-0.0013576741330325,-0.0104868514463305,standing,2026-03-04_13-52-56
1772632379226120400,2.602120361328125,0.024440577240847,-0.0467107516400516,0.2295528519958257,-0.0037897718138992,-0.0494712479412555,-0.0202504396438598,standing,2026-03-04_13-52-56
1772632379236069400,2.6120693359375,-0.00548763763085,-0.0870512375958263,0.1796200695693492,-0.0125292018055915,-0.0599883385002613,-0.0300625935196876,standing,2026-03-04_13-52-56
1772632379246017500,2.622017578125,-0.0934491219393909,-0.0468291173227131,0.0455301635533571,-0.0183382462710142,-0.0438775122165679,-0.0422971211373806,standing,2026-03-04_13-52-56
1772632379255966500,2.631966552734375,-0.1089074243666604,0.0020515257023274,-0.0749631787866354,-0.0235180929303169,-0.0195884183049201,-0.044598888605833,standing,2026-03-04_13-52-56
1772632379265914400,2.641914306640625,-0.0247086535925045,0.0623451047539711,-0.1713508383959531,-0.0209819674491882,0.0125971864908933,-0.0265791285783052,standing,2026-03-04_13-52-56
1772632379275863300,2.65186328125,0.0435320120060816,0.127361182282865,-0.2324474043935537,-0.008290140889585,0.0424312502145767,-0.0014868234284222,standing,2026-03-04_13-52-56
1772632379285811500,2.6618115234375,0.052164194740355,0.1540567353762686,-0.2145171954274177,0.0121747674420475,0.0520533472299575,0.0129648949950933,standing,2026-03-04_13-52-56
1772632379295760400,2.671760498046875,0.0139359516981989,0.0900777458101511,-0.0749006349444389,0.0267531778663396,0.0247085411101579,0.0039447685703635,standing,2026-03-04_13-52-56
1772632379305708300,2.681708251953125,-0.0563808991199359,-0.0390846406757831,0.009373393023014,0.0322553664445877,-0.0064292224124073,-0.016754625365138,standing,2026-03-04_13-52-56
1772632379315657500,2.691657470703125,-0.0770545250426977,-0.1067344277091324,0.0383417133539915,0.0323499105870723,-0.0109773688018321,-0.0275619998574256,standing,2026-03-04_13-52-56
1772632379325605400,2.70160546875,-0.0565074846416711,-0.0594721796661615,0.0571662408113479,0.0246350578963756,-0.0033837333321571,-0.0323105379939079,standing,2026-03-04_13-52-56
1772632379335554800,2.711554931640625,0.0003513707209378,-0.0083352821469306,0.092756025108695,0.0112936869263648,0.0025993240997195,-0.0245194621384143,standing,2026-03-04_13-52-56
1772632379345503000,2.7215029296875,0.0656029375061392,0.0182999190613627,0.1028209075272083,-0.0008088950999081,0.0104279173538088,-0.0137912184000015,standing,2026-03-04_13-52-56
1772632379355452000,2.731451904296875,0.0569814222963526,0.0168391988590359,0.1025911904245615,-0.0122232036665081,0.0133022665977478,-0.0064315726049244,standing,2026-03-04_13-52-56
1772632379365399800,2.74139990234375,-0.0025971403537318,0.0259770295605063,0.1293476799249649,-0.0208841674029827,-0.0010267000179737,-0.0143897030502557,standing,2026-03-04_13-52-56
1772632379375348700,2.7513486328125,-0.0712479941884055,-0.0322514336548745,0.0810106422573328,-0.0221281312406063,-0.0044288882054388,-0.0307921133935451,standing,2026-03-04_13-52-56
1772632379385297000,2.761296875,-0.0869851500896737,-0.0270022809550166,-0.0505880314648151,-0.0124441385269165,0.0259333793073892,-0.0305429846048355,standing,2026-03-04_13-52-56
1772632379395245800,2.771245849609375,-0.0438825059441849,0.0367395388543605,-0.1028320134431123,0.003819785779342,0.0460205413401126,-0.020952409133315,standing,2026-03-04_13-52-56
1772632379405193700,2.78119384765625,0.0445825439723208,0.0806752728231251,-0.0230155494064092,0.012155694887042,0.0341481789946556,-0.006244468037039,standing,2026-03-04_13-52-56
1772632379415142700,2.791142578125,0.1296473569912835,0.0689521018035709,0.0721148036181926,0.0127602312713861,0.0105951819568872,0.0041908621788024,standing,2026-03-04_13-52-56
1772632379425090800,2.8010908203125,0.0750035107970237,0.0284010418370366,0.1471609845131635,0.0107612609863281,-0.0094752274453639,0.003581013996154,standing,2026-03-04_13-52-56
1772632379435039700,2.811039794921875,-0.0622588147100061,-0.0184248606152832,0.1756102494060993,0.0019182348623871,-0.0376823619008064,-0.0198817029595375,standing,2026-03-04_13-52-56
1772632379444987600,2.820987548828125,-0.1128597787216305,-0.0820014068603515,0.128217214590311,-0.009498044848442,-0.0447704941034317,-0.0392919443547725,standing,2026-03-04_13-52-56
1772632379454936800,2.830936767578125,-0.0537249777836725,-0.0605658201217651,0.00175298114717,-0.0188023298978805,-0.0081640109419822,-0.035095065832138,standing,2026-03-04_13-52-56
1772632379464884700,2.840884765625,-0.0125110334616154,0.0648278614804148,-0.0820405698269605,-0.0256592240184545,0.0328815579414367,-0.018005721271038,standing,2026-03-04_13-52-56
1772632379474833700,2.850833740234375,0.046760107207112,0.1155723986811935,-0.0843389098972082,-0.0274214390665292,0.0399714261293411,-0.0019545825198292,standing,2026-03-04_13-52-56
1772632379484781800,2.86078173828125,0.1213438947547227,0.0688464494720101,-0.0454933386743068,-0.020762788131833,0.0279631204903125,0.0132138095796108,standing,2026-03-04_13-52-56
1772632379494730800,2.870730712890625,0.0848710440125316,0.0450374116003513,-0.072664254194498,-0.0018546092323958,0.0182138215750455,0.0149560496211051,standing,2026-03-04_13-52-56
1772632379504678700,2.8806787109375,-0.0302533917054533,0.0335414734654128,-0.1018283893585205,0.0255440436303615,0.0066303638741374,0.0050998730584979,standing,2026-03-04_13-52-56
1772632379514627800,2.8906279296875,-0.0705133597709238,-0.0221245919160544,-0.1244914720654487,0.0482088774442672,-0.0034638156648725,-0.0103890718892216,standing,2026-03-04_13-52-56
1772632379524575700,2.90057568359375,-0.0230463829360902,-0.0300461786955595,-0.0672983432471752,0.052556537091732,-0.0096559142693877,-0.0092256534844636,standing,2026-03-04_13-52-56
1772632379534525000,2.91052490234375,0.0549172928407788,0.0391658892184495,0.0454851553678512,0.0396854802966117,-0.0072542754933238,0.0021593603305518,standing,2026-03-04_13-52-56
1772632379544472800,2.920472900390625,0.0707034024503082,0.0636670010074973,0.1611772349059581,0.0126263294368982,-0.0120242405682802,0.011757593601942,standing,2026-03-04_13-52-56
1772632379554422000,2.930422119140625,0.0685636504752561,0.0258197931721806,0.2268734036535024,-0.0190029703080654,-0.0160176511853933,0.0162617973983287,standing,2026-03-04_13-52-56
1772632379564370000,2.940369873046875,0.0319226035593077,0.0138527303941547,0.1945534348070621,-0.0395150557160377,-0.0033541666343808,0.0163076482713222,standing,2026-03-04_13-52-56
1772632379574318800,2.95031884765625,-0.0586037262685596,0.0147016023084521,0.067617492198944,-0.0416871309280395,0.0149971442297101,0.0072968425229191,standing,2026-03-04_13-52-56
1772632379584267000,2.96026708984375,-0.1559075508747249,0.027762451672554,-0.0469388613075017,-0.0300696324557065,0.0286388639360666,-0.0045238342136144,standing,2026-03-04_13-52-56
1772632379594216000,2.9702158203125,-0.1666778050836175,0.041761166408658,-0.0751554864883422,-0.0142842773348093,0.0241770017892122,-0.0126315616071224,standing,2026-03-04_13-52-56
1772632379604163800,2.980163818359375,-0.0520654836062341,0.0403168128192424,-0.0405406847029924,-0.0025738212279975,0.0057957749813795,-0.0066349450498819,standing,2026-03-04_13-52-56
1772632379614112800,2.99011279296875,0.027404797341302,0.0664553165517747,0.020063713863492,0.0036284145899116,-0.0132745886221528,0.0026512315962463,standing,2026-03-04_13-52-56
1772632379624061000,3.00006103515625,0.0337065278340131,0.0757112206749618,0.0337187297284603,0.0038170686457306,-0.0201899241656065,0.0099233323708176,standing,2026-03-04_13-52-56
1772632379634009900,3.010009765625,0.0059758595392107,0.0663650079198181,0.0361731371432542,-0.0028986241668462,-0.0100853573530912,0.0113318776711821,standing,2026-03-04_13-52-56
1772632379643957800,3.019957763671875,-0.037723946781829,0.0398090094275772,0.0226888016700744,-0.0091345217078924,0.0010103122331202,0.0071653039194643,standing,2026-03-04_13-52-56
1772632379653907000,3.029906982421875,-0.1042380808487534,0.0258554490074515,-0.0171831899911165,-0.0079438230022788,0.0227379780262708,0.0040784343145787,standing,2026-03-04_13-52-56
1772632379663854800,3.039854736328125,-0.1143981672700494,0.0533569116562604,-0.0256190099030733,-0.0042903907597064,0.034672912210226,0.0035690378863364,standing,2026-03-04_13-52-56
1772632379673803800,3.0498037109375,-0.0778283589594066,0.047279637569189,0.0233352828800678,-0.0032216636463999,0.0315317139029502,0.0057554934173822,standing,2026-03-04_13-52-56
1772632379683752000,3.059751953125,-0.0545865995816886,0.0006597790829837,0.0972866542756557,-0.002078210003674,0.022446509450674,0.0041612512432038,standing,2026-03-04_13-52-56
1772632379693700900,3.069700927734375,-0.0462483217600733,-0.0509087878517806,0.1780459521204233,-0.0031136469915509,0.0045439414680004,-0.0005765124224126,standing,2026-03-04_13-52-56
1772632379703648800,3.079648681640625,-0.0410752299711108,-0.0876427737481892,0.2682283273488283,-0.0152733735740184,-0.0332821756601333,-0.0124701661989092,standing,2026-03-04_13-52-56
1772632379713597700,3.08959765625,-0.0255764859355986,-0.1265031041488051,0.2874427309066057,-0.0246333181858062,-0.0626637637615203,-0.0226519629359245,standing,2026-03-04_13-52-56
1772632379723545900,3.0995458984375,-0.0480245376523584,-0.1188289162591099,0.1760223373383283,-0.0345698855817317,-0.0735304579138755,-0.0283132418990135,standing,2026-03-04_13-52-56
1772632379733494800,3.109494873046875,-0.0866926699491217,-0.0423372127309441,0.0285375276982784,-0.0415795929729938,-0.0660163536667823,-0.0321282185614109,standing,2026-03-04_13-52-56
1772632379743442700,3.119442626953125,-0.071840114862658,0.0226157364338636,-0.1393611244171858,-0.0411600470542907,-0.0347799211740493,-0.0272692032158374,standing,2026-03-04_13-52-56
1772632379753391600,3.1293916015625,-0.0321562296520918,0.0865630156874656,-0.2940823150515556,-0.0355695411562919,0.0093478597700595,-0.0115919718518853,standing,2026-03-04_13-52-56
1772632379763339800,3.13933984375,-0.0279837662730365,0.1328033733367919,-0.3405763552010059,-0.023004425689578,0.043146438896656,0.0043863537721335,standing,2026-03-04_13-52-56
1772632379773288700,3.149288818359375,-0.0358551572352647,0.103504944268614,-0.2930056257307529,-0.0088414680212736,0.0486804880201816,0.0089504793286323,standing,2026-03-04_13-52-56
1772632379783236900,3.15923681640625,-0.0051977878388017,0.0480725415125489,-0.2143055985033512,0.0127601763233542,0.0428349785506725,0.0157690793275833,standing,2026-03-04_13-52-56
1772632379793185800,3.169185791015625,-0.0129109925646334,0.0167259477429091,-0.1275777476429939,0.0345360450446605,0.0321586318314075,0.0134819569066166,standing,2026-03-04_13-52-56
1772632379803133700,3.1791337890625,-0.0319428791623562,-0.0222949800468981,-0.012170914787054,0.0486184172332286,0.0039090099744498,0.0043020979501307,standing,2026-03-04_13-52-56
1772632379813083000,3.189082763671875,-0.0582189647346734,-0.0565225360803306,0.1163391452699899,0.0480266623198986,-0.0242557823657989,-0.0056991372257471,standing,2026-03-04_13-52-56
1772632379823030800,3.19903076171875,-0.0041948213413357,-0.0604861790142953,0.1942377929866313,0.0330679528415203,-0.0355185270309448,-0.0099743250757455,standing,2026-03-04_13-52-56
1772632379832980000,3.20897998046875,-0.005020458510518,-0.0328153511479496,0.2299842291504144,0.0090209394693374,-0.028033448383212,-0.0128265712410211,standing,2026-03-04_13-52-56
1772632379842927900,3.218927978515625,-0.0194193150127306,-0.0281340614639222,0.236087222200632,-0.022536925971508,-0.0163646433502435,-0.0205392092466354,standing,2026-03-04_13-52-56
1772632379852876800,3.228876708984375,-0.0142975515522062,-0.0040836160518229,0.2128729353517293,-0.050772026181221,-0.0048078559339046,-0.0228396467864513,standing,2026-03-04_13-52-56
1772632379862825000,3.238824951171875,-0.0104014208965003,0.0039132279209792,0.1502946063637733,-0.0648632943630218,0.0061091720126569,-0.0213893577456474,standing,2026-03-04_13-52-56
1772632379872774000,3.24877392578125,0.0038972996994853,0.0395737393669784,0.0406190106362104,-0.0613415353000164,0.0106687694787979,-0.0172265712171793,standing,2026-03-04_13-52-56
1772632379882721800,3.2587216796875,0.0408450744770467,0.0694037910938262,-0.0643634588390588,-0.0430631376802921,0.0149314701557159,-0.006799628958106,standing,2026-03-04_13-52-56
1772632379892671000,3.2686708984375,0.0547258984545245,0.1025559729807078,-0.1417769533872604,-0.0132916625589132,0.0164888873696327,0.0023712324909865,standing,2026-03-04_13-52-56
1772632379902619000,3.278618896484375,0.0374910878740251,0.1115560026466846,-0.1644979037612676,0.0180619973689317,0.0053390027023851,0.0074951695278286,standing,2026-03-04_13-52-56
1772632379912567800,3.28856787109375,0.0149012895990163,0.0809783474229276,-0.0995785646051168,0.0377044081687927,-0.0127289462834596,0.0031843110918998,standing,2026-03-04_13-52-56
1772632379922516000,3.298515869140625,-0.0043698125820606,0.0198154381908476,-0.0076671736270189,0.0367002971470356,-0.0235658325254917,-0.0008983951993286,standing,2026-03-04_13-52-56
1772632379932465000,3.30846484375,-0.0074679612604901,0.00849032657817,0.0667851330280304,0.021320542320609,-0.029502548277378,-0.0045716930180788,standing,2026-03-04_13-52-56
1772632379942412800,3.318412841796875,-0.0098355306420475,-0.0064557520106434,0.1326490595579147,-0.0052378913387656,-0.0258754901587963,-0.0086174448952078,standing,2026-03-04_13-52-56
1772632379952361700,3.32836181640625,-0.0298681187149137,-0.0177481303974986,0.1342787065863609,-0.0307294018566608,-0.0085737304762005,-0.0091609954833984,standing,2026-03-04_13-52-56
1772632379962310000,3.338309814453125,-0.0364299614485353,0.007568097166717,0.0327355639100074,-0.0461224690079689,0.0167927034199237,-0.0045545017346739,standing,2026-03-04_13-52-56
1772632379972258800,3.3482587890625,-0.0266294655872508,0.0376641063533723,-0.0314016849577426,-0.0465991757810115,0.0369834601879119,0.0006594348233193,standing,2026-03-04_13-52-56
1772632379982206700,3.358206787109375,-0.0102760044185444,0.023785218604654,-0.0764157156825065,-0.0318015366792678,0.03377066552639,0.0058609885163605,standing,2026-03-04_13-52-56
1772632379992156000,3.368156005859375,-0.0039142508342862,0.0087080609820783,-0.0746814392358064,-0.0120219746604561,0.020300131291151,0.0085132308304309,standing,2026-03-04_13-52-56
1772632380002103800,3.378103759765625,-0.0185978790946304,-0.0207949507474899,-0.073565002426505,0.012775944545865,0.0016996914055198,0.0068638767115771,standing,2026-03-04_13-52-56
1772632380012052700,3.388052734375,-0.0341890506539493,-0.0155832074485719,-0.0350870954722166,0.0272118747234344,-0.0205909684300422,0.0002696239389479,standing,2026-03-04_13-52-56
1772632380022001000,3.3980009765625,-0.0546245935045182,-0.0418463604740798,0.0284872588157653,0.0281026512384414,-0.0345879979431629,-0.0051229097880423,standing,2026-03-04_13-52-56
1772632380031949800,3.40794970703125,-0.0552251532135531,-0.0412321740984916,0.0126548989117145,0.0231236051768064,-0.0290462262928485,-0.0121770910918712,standing,2026-03-04_13-52-56
1772632380041897700,3.417897705078125,-0.0868834432808682,-0.0309608093224465,0.0132347446262836,0.0110683776438236,-0.0147541277110576,-0.0140870455652475,standing,2026-03-04_13-52-56
1772632380051846700,3.4278466796875,-0.098335140415281,0.0061829264186322,0.0246428583472967,-0.0066877165809273,-0.0043353093788027,-0.0159688349813222,standing,2026-03-04_13-52-56
1772632380061794800,3.437794921875,-0.0410919984428212,0.0095211309306323,-0.0065437225550413,-0.0201623514294624,0.008396697230637,-0.0114886322990059,standing,2026-03-04_13-52-56
1772632380071743700,3.44774365234375,-0.0413060065196827,0.0304334244474768,-0.0446715008974075,-0.0269643291831016,0.0241176020354032,-0.0075897648930549,standing,2026-03-04_13-52-56
1772632380081691600,3.457691650390625,-0.0473016667379066,0.0344486514382064,-0.0686252079367637,-0.0264671687036752,0.0368977673351764,-0.0090245995670557,standing,2026-03-04_13-52-56
1772632380091640800,3.467640869140625,-0.0469522322457283,0.030053631349653,-0.0644523061662912,-0.0144762881100177,0.0320281758904457,-0.0135623589158058,standing,2026-03-04_13-52-56
1772632380101588700,3.477588623046875,-0.0257768308132886,0.0047447103090584,-0.0523877743631601,0.0036001820117235,0.0183918457478284,-0.016656944528222,standing,2026-03-04_13-52-56
1772632380111538000,3.487537841796875,-0.0135747902356088,0.0249310276389122,-0.0423649775207042,0.0232375338673591,0.0053239818662405,-0.0142787434160709,standing,2026-03-04_13-52-56
1772632380121485800,3.49748583984375,0.0186021168783307,0.0431987979963421,-0.0070592708617448,0.0302513390779495,-0.00655879965052,-0.00832225009799,standing,2026-03-04_13-52-56
1772632380131435000,3.50743505859375,0.0495336270410567,0.0684245707981288,0.0566740733802318,0.0291945971548557,-0.0131120402365922,-0.002511233324185,standing,2026-03-04_13-52-56
1772632380141383000,3.5173828125,0.0308523074466735,0.0713648620337247,0.1159065990716218,0.0187233705073595,-0.0173457693308591,-0.0018282560631632,standing,2026-03-04_13-52-56
1772632380151331800,3.527331787109375,-0.0461222111623734,0.0490451859369873,0.1105845272660255,0.0017417231574654,-0.006934673525393,-0.0087205171585083,standing,2026-03-04_13-52-56
1772632380161280000,3.537280029296875,-0.0720478758618235,0.0310939341828227,0.0725023416310548,-0.0118733616545796,0.0152571136131882,-0.0115310186520218,standing,2026-03-04_13-52-56
1772632380171229000,3.54722900390625,-0.0840734638940542,0.0466264343574643,0.0399532402038574,-0.0127500751987099,0.0374151468276977,-0.018899718299508,standing,2026-03-04_13-52-56
1772632380181176800,3.5571767578125,-0.0554462120857089,0.0464072386488318,0.0368079279154539,-0.0114563200622797,0.0371346250176429,-0.0126807298511266,standing,2026-03-04_13-52-56
1772632380191125800,3.567125732421875,0.016801789458096,0.0513727521017193,0.0675748221009969,-0.0048711216077208,0.0268628112971782,-0.0017484538257122,standing,2026-03-04_13-52-56
1772632380201074000,3.577073974609375,0.070618792906776,0.0482606114305555,0.120028062915802,0.0026233890093863,0.0006434365641325,0.0030157412402331,standing,2026-03-04_13-52-56
1772632380211022800,3.58702294921875,0.043602848752588,0.008334697625041,0.1585275971800089,0.0040095644071698,-0.0351206846535205,-0.0066467393189668,standing,2026-03-04_13-52-56
1772632380220970800,3.596970703125,-0.0655872284803539,-0.0521124645531177,0.1691623884409666,-0.006894854363054,-0.0617719516158103,-0.0263203922659158,standing,2026-03-04_13-52-56
1772632380230920000,3.606919921875,-0.1192168926633894,-0.0780691819779574,0.1079746370285749,-0.0220485068857669,-0.0543843433260917,-0.0394018404185771,standing,2026-03-04_13-52-56
1772632380240867800,3.616867919921875,-0.0830648713734,-0.0235820972479879,-0.0008498948276042,-0.0351915247738361,-0.0127004738897085,-0.0337105207145214,standing,2026-03-04_13-52-56
1772632380250816800,3.626816650390625,-0.0415192474115639,0.0662320291899144,-0.0955301659971475,-0.0402635149657726,0.014436338096857,-0.0181608572602272,standing,2026-03-04_13-52-56
1772632380260765000,3.636764892578125,-0.0223271287508308,0.1218601006485521,-0.15119593911767,-0.0380318388342857,0.0139855947345495,-0.0039125718176364,standing,2026-03-04_13-52-56
1772632380270713900,3.6467138671875,-0.0056295303195714,0.0839997410707175,-0.1773959637790918,-0.0194384474307298,0.0103945899754762,0.0051714703440666,standing,2026-03-04_13-52-56
1772632380280661800,3.656661865234375,-0.0436552365269511,0.0639898032210767,-0.2609258953809738,0.0150480456650257,0.0175874233245849,0.0121704488992691,standing,2026-03-04_13-52-56
1772632380290610700,3.666610595703125,-0.0829382493190467,0.0577120381258428,-0.2897749732464552,0.0493679344654083,0.0255396235734224,0.0105014462023973,standing,2026-03-04_13-52-56
1772632380300558800,3.676558837890625,-0.1100636451970785,0.0085417645044624,-0.1993576202183961,0.0697502270340919,0.0094751864671707,-0.0028714663349092,standing,2026-03-04_13-52-56
1772632380310507800,3.6865078125,-0.1251804772429168,-0.0699161245301365,-0.0330839389562606,0.0644766315817833,-0.0121845696121454,-0.018330318853259,standing,2026-03-04_13-52-56
1772632380320455700,3.69645556640625,-0.086961002029106,-0.1140815756015479,0.0806803873896598,0.042309284210205,-0.009989058598876,-0.024597268551588,standing,2026-03-04_13-52-56
1772632380330404900,3.70640478515625,-0.0684450290642678,-0.0794214733697473,0.1644850442796945,0.0113063585013151,-0.0029713632538914,-0.0299736578017473,standing,2026-03-04_13-52-56
1772632380340352500,3.7163525390625,-0.0573101793266832,-0.0514776737809181,0.1999263600170612,-0.0209592245519161,-0.0025798953138291,-0.031539212912321,standing,2026-03-04_13-52-56
1772632380350301400,3.726301513671875,0.0028176147039979,-0.0299343888841569,0.1494067176133394,-0.0369461774826049,0.0122637655586004,-0.0241446811705827,standing,2026-03-04_13-52-56
1772632380360249600,3.73624951171875,0.0208055452067404,0.0142990128569304,0.0400929409354925,-0.0358947068452835,0.0316564813256263,-0.0171497128903865,standing,2026-03-04_13-52-56
1772632380370198800,3.74619873046875,0.0152638393010944,0.0765454795420169,-0.0213648595899343,-0.0216204300522804,0.0212573669850826,-0.0161100160330533,standing,2026-03-04_13-52-56
1772632380380146400,3.756146484375,0.0039324440781027,0.0603945552080869,-0.0664110390186309,-0.0020339433103799,0.0061658858321607,-0.0215314030647277,standing,2026-03-04_13-52-56
1772632380390095600,3.766095703125,-0.0358587374318391,0.0380662574134767,-0.115285252302885,0.0227909795939922,0.0156922787427902,-0.0272665210068225,standing,2026-03-04_13-52-56
1772632380400043800,3.776043701171875,-0.0148449563018977,0.070638885846734,-0.0968120225012302,0.038142018020153,0.0223651397973299,-0.024325193837285,standing,2026-03-04_13-52-56
1772632380409992700,3.78599267578125,0.0448991721734404,0.1144029165104031,0.0168874219149351,0.0372730270028114,0.0039227507077157,-0.0173469129949808,standing,2026-03-04_13-52-56
1772632380419940600,3.795940673828125,0.1240682782173156,0.0868574685893952,0.1267968263983726,0.0285737607628107,-0.016152411699295,-0.0066518234089016,standing,2026-03-04_13-52-56
1772632380429889800,3.805889892578125,0.1364915603302419,0.0864892197988927,0.1185626665383577,0.0192665476351976,-0.0080145914107561,0.0026213033124804,standing,2026-03-04_13-52-56
1772632380439837700,3.815837646484375,0.0656507952358573,0.1202463818415999,0.0893166983097791,0.0070017911493778,0.0040237186476588,0.0031552021391689,standing,2026-03-04_13-52-56
1772632380449786600,3.82578662109375,-0.0159198920570313,0.097592797615379,0.0981517466723918,-0.0099867787212133,0.0031518000178039,-0.0037024375051259,standing,2026-03-04_13-52-56
1772632380459734800,3.83573486328125,-0.0297693345155566,0.0317957988418638,0.0979769746273755,-0.0192781277000904,0.0007354514673352,-0.0112240221351385,standing,2026-03-04_13-52-56
1772632380469683700,3.84568359375,-0.0174863376561552,0.0499061866804957,0.0224193370789289,-0.020981753244996,0.0206223390996456,-0.0048657255247235,standing,2026-03-04_13-52-56
1772632380479631600,3.855631591796875,0.0086394527252763,0.1150295239761471,-0.0298451031655073,-0.0140575356781482,0.0339068695902824,0.0060460362583398,standing,2026-03-04_13-52-56
1772632380489580500,3.86558056640625,0.0297390124425292,0.1266525956220924,0.0258960732787847,-0.0138463471084833,0.0112329814583063,0.0150781469419598,standing,2026-03-04_13-52-56
1772632380499528700,3.87552880859375,0.0432516972273588,0.0643926849335432,0.0701221684962511,-0.0083411633968353,-0.0160884857177734,0.0189953166991472,standing,2026-03-04_13-52-56
1772632380509477600,3.8854775390625,0.0248924491941928,0.0074143679097294,0.0229892459213733,0.0052113975398242,-0.015276220627129,0.02128616720438,standing,2026-03-04_13-52-56
1772632380519425500,3.895425537109375,-0.050510728444904,0.0406618268646299,-0.0778764358848333,0.0195117145776748,0.0027750530280172,0.0196391250938177,standing,2026-03-04_13-52-56
1772632380529374700,3.905374755859375,-0.1098161001767963,0.0478758498966693,-0.0734469290047884,0.0172709319740533,0.0009475918486714,0.0128022590652108,standing,2026-03-04_13-52-56
1772632380539322600,3.915322509765625,-0.1333949094891548,-0.0356043973445892,0.0118108493030071,0.0066695297136902,-0.0083692334592342,0.0050083184614777,standing,2026-03-04_13-52-56
1772632380549271600,3.925271484375,-0.097623265818879,-0.0748702398061752,0.0413233595132827,-0.004997513256967,-0.0039763487875461,0.0015773680061101,standing,2026-03-04_13-52-56
1772632380559219700,3.9352197265625,-0.0727946025758981,-0.0397271763630211,0.027432196804881,-0.0124143660068511,0.0011795475147664,0.0068071670830249,standing,2026-03-04_13-52-56
1772632380569168600,3.945168701171875,-0.0819261496670544,-0.006926584392786,-0.0082318217724561,-0.0107139367610216,-0.0122592952102422,0.0029562362469732,standing,2026-03-04_13-52-56
1772632380579116500,3.955116455078125,-0.0609280044976621,-0.0248377963975071,-0.087974051529169,0.0038378983736038,-0.0133414957672357,0.0037079551257193,standing,2026-03-04_13-52-56
1772632380589065500,3.9650654296875,-0.0476160299167036,0.0134722066439688,-0.2203542310178279,0.0277594774961471,0.0093350540846586,0.0113107468932867,standing,2026-03-04_13-52-56
1772632380599013600,3.975013671875,-0.0627659605145454,0.0594753945365548,-0.2086842514902353,0.0470126420259475,0.0215054955333471,0.0104100853204727,standing,2026-03-04_13-52-56
1772632380608962600,3.984962646484375,-0.0584602992098778,0.039165012435615,-0.1030512091517448,0.0456815920770168,0.0090240584686398,0.0043625785037875,standing,2026-03-04_13-52-56
1772632380618910500,3.994910400390625,-0.033677740130946,-0.0196865511141717,0.022206571111083,0.0343663021922111,-0.0026192078366875,-0.0012450997019186,standing,2026-03-04_13-52-56
1772632380628859400,4.004859375,-0.007585413627699,-0.0125656131930649,0.1107838492304086,0.016847226768732,0.0048384419642388,-0.0032952011097222,standing,2026-03-04_13-52-56
1772632380638807600,4.0148076171875,-0.0094491616729646,0.0169506964094936,0.1664765103578567,-0.0059990193694829,0.002469690516591,-0.0062876874580979,standing,2026-03-04_13-52-56
1772632380648756500,4.024756591796875,-0.0127409697599709,0.0185632461726665,0.1584597926408052,-0.0178325101733207,0.002944532316178,-0.0050764814950525,standing,2026-03-04_13-52-56
1772632380658704600,4.03470458984375,-0.003948153103888,0.0393405151329934,0.0868751503765583,-0.014406407251954,0.0182822197675704,-0.0001245001330971,standing,2026-03-04_13-52-56
1772632380668653800,4.04465380859375,-0.0191781632006168,0.0875742385566234,0.019263503396511,-0.0049918675795197,0.0305404849350452,0.0065304730087518,standing,2026-03-04_13-52-56
1772632380678601500,4.0546015625,-0.0053147652819752,0.1038400214418768,0.0400479327499866,0.0039695156738162,0.0251100957393646,0.0104991355910897,standing,2026-03-04_13-52-56
1772632380688550700,4.064550537109375,-0.0118013508222997,0.0610590104661881,0.0893266351819038,0.0091118142008781,0.0148044610396027,0.010499401949346,standing,2026-03-04_13-52-56
1772632380698498800,4.074498779296875,-0.0207119486391544,0.0297936652392148,0.178497787541151,0.0046249153092503,-0.0044892798177897,0.0040226327255368,standing,2026-03-04_13-52-56
1772632380708447700,4.08444775390625,-0.0303760682370513,-0.0025827099695801,0.2642781284183264,-0.012224905192852,-0.0354586467146873,-0.0068249548785388,standing,2026-03-04_13-52-56
1772632380718395600,4.094395751953125,-0.0077926997028291,-0.0278393163010478,0.2504343119829893,-0.028271198272705,-0.0574415735900402,-0.0131857572123408,standing,2026-03-04_13-52-56
1772632380728344600,4.104344482421875,0.010411357768625,0.0103127196997404,0.1090501573055982,-0.0364420413970947,-0.0536550916731357,-0.007728673517704,standing,2026-03-04_13-52-56
1772632380738292700,4.114292724609375,0.008312193532288,0.0921281024686992,-0.0250882640272378,-0.0396602004766464,-0.042190596461296,0.004293642938137,standing,2026-03-04_13-52-56
1772632380748241700,4.12424169921875,0.0332894714657217,0.1349574826307594,-0.1506412278443575,-0.0365674719214439,-0.0237676482647657,0.0206337347626686,standing,2026-03-04_13-52-56
1772632380758189600,4.134189453125,0.0223532861053943,0.138043904338777,-0.2711152809619903,-0.0188671499490737,-0.0038153412751853,0.0362429767847061,standing,2026-03-04_13-52-56
1772632380768138800,4.144138671875,-0.0236748900979757,0.1490548354357481,-0.3245797446459532,0.0031569241546094,0.0135007984936237,0.0414087101817131,standing,2026-03-04_13-52-56
1772632380778086700,4.154086669921875,-0.0691876641251146,0.1021131976492703,-0.2826058122694492,0.0247472785413265,0.0229092184454202,0.0414726771414279,standing,2026-03-04_13-52-56
1772632380788035600,4.16403564453125,-0.0866017402626573,0.0198148536689579,-0.2000911951899528,0.0391429960727691,0.0193357896059751,0.035611592233181,standing,2026-03-04_13-52-56
1772632380797983700,4.173983642578125,-0.0710140027694404,-0.0335043563254177,-0.0705950467050075,0.047623623162508,0.0060920547693967,0.033183466643095,standing,2026-03-04_13-52-56
1772632380807932700,4.1839326171875,-0.0546057426735758,-0.059711833640933,0.0579015693485736,0.0444272980093956,-0.0088682528585195,0.0301285535097122,standing,2026-03-04_13-52-56
1772632380817880600,4.193880615234375,-0.041742461708188,-0.0711215547971427,0.1451753636538982,0.0331440158188343,-0.0228447262197732,0.0256462283432483,standing,2026-03-04_13-52-56
1772632380827829500,4.20382958984375,-0.0302672741003334,-0.0716680827639996,0.2020902600526809,0.0151295969262719,-0.0220039673149585,0.0227156840264797,standing,2026-03-04_13-52-56
1772632380837777700,4.213777587890625,-0.0593314560212194,-0.0848638105541467,0.2099362973779439,-0.006351466756314,-0.0163812059909105,0.0122571680694818,standing,2026-03-04_13-52-56
1772632380847726600,4.2237265625,-0.1048359736766666,-0.0851687848500907,0.2175602163851261,-0.0285707525908947,-0.0194158796221017,0.0013089128769934,standing,2026-03-04_13-52-56
1772632380857674500,4.233674560546875,-0.119334600758925,-0.0936889220446348,0.2054939310163259,-0.0471916273236274,-0.0216265581548213,-0.0054436977952718,standing,2026-03-04_13-52-56
1772632380867623700,4.243623779296875,-0.0996414737734943,-0.0682967066347599,0.139084645563364,-0.0570506528019905,-0.0300008673220872,-0.0106824021786451,standing,2026-03-04_13-52-56
1772632380877571600,4.253571533203125,-0.0658401803281158,-0.0288920402243733,0.0215267721533775,-0.0487716794013977,-0.0256829373538494,-0.0066892663016915,standing,2026-03-04_13-52-56
1772632380887520500,4.2635205078125,-0.0390678356714546,0.03632555122599,-0.1492576645314693,-0.0201624035835266,-0.0058884592726826,0.0035860082134604,standing,2026-03-04_13-52-56
1772632380897468700,4.27346875,-0.0482588213322684,0.0722375532150268,-0.2703103943198919,0.0138627272099256,0.0153784407302737,0.0120885986834764,standing,2026-03-04_13-52-56
1772632380907417600,4.28341748046875,-0.0635011429212987,0.0551643994696438,-0.2314081244736909,0.0409201793372631,0.0140284849330782,0.0099876308813691,standing,2026-03-04_13-52-56
1772632380917365500,4.293365478515625,-0.0361292614689096,-0.0073700903765857,-0.0686491733342409,0.0455102920532226,-0.0097186341881752,0.0027895725797861,standing,2026-03-04_13-52-56
1772632380927314400,4.303314453125,-0.0168988931570202,-0.0485166320182383,0.0833773713886737,0.0359791070222854,-0.0298888850957155,-0.0082532251253724,standing,2026-03-04_13-52-56
1772632380937262600,4.3132626953125,-0.0329916940955445,-0.0422111021332442,0.1700625521510839,0.013331638649106,-0.0342672504484653,-0.0206681918352842,standing,2026-03-04_13-52-56
1772632380947211500,4.32321142578125,-0.0254585951769724,-0.0231179868675768,0.1850689826250076,-0.0140326078981161,-0.0319359190762043,-0.0214852485805749,standing,2026-03-04_13-52-56
1772632380957159400,4.333159423828125,0.0167989033812657,0.0264290111117064,0.1353548113852739,-0.0309746265411376,-0.0179591067135334,-0.0188108030706644,standing,2026-03-04_13-52-56
1772632380967108600,4.343108642578125,0.0568172447105869,0.0839466957092285,0.0148959558367729,-0.0320409573614597,0.0107108876109123,-0.004559960681945,standing,2026-03-04_13-52-56
1772632380977056500,4.353056396484375,0.0831366579679772,0.157393332453072,-0.0846066209226846,-0.0163060408085584,0.0325615555047988,0.0116418786346912,standing,2026-03-04_13-52-56
1772632380987005700,4.363005615234375,0.066592679195851,0.1604661640271544,-0.0901005421638488,0.0078933052718639,0.0300501957535743,0.0200846325606107,standing,2026-03-04_13-52-56
1772632380996953600,4.37295361328125,0.0615808789158239,0.1245313656844198,-0.0363502472758293,0.0245883986353874,0.00993013381958,0.0204292517155408,standing,2026-03-04_13-52-56
1772632381006902800,4.38290283203125,0.0203545500362291,0.0952554407089948,0.0449842201083898,0.0346700623631477,-0.0135048851370811,0.0123409666121006,standing,2026-03-04_13-52-56
1772632381016850700,4.3928505859375,0.0247730971308425,0.0454326945282518,0.1206885726511478,0.0302061736583709,-0.0272825676947832,0.0051991925574839,standing,2026-03-04_13-52-56
1772632381026799600,4.402799560546875,0.0471453436650335,0.0359919353574514,0.1666582966655492,0.0156916789710521,-0.0247805286198854,0.0073488964699208,standing,2026-03-04_13-52-56
1772632381036747800,4.412747802734375,0.0607005889499559,0.0539000786222517,0.1909901893675327,-0.0074908691458404,-0.0255769323557615,0.0124176843091845,standing,2026-03-04_13-52-56
1772632381046696700,4.42269677734375,0.03606562164817,0.0515055847011506,0.2030541366487741,-0.0337869189679622,-0.0327690653502941,0.0172625053673982,standing,2026-03-04_13-52-56
1772632381056644600,4.43264453125,0.0659320598626509,0.0458646562047302,0.142352122926712,-0.0474760495126247,-0.0379720032215118,0.0256838779896497,standing,2026-03-04_13-52-56
1772632381066593500,4.442593505859375,0.0487069304259493,0.0624509032160043,0.0046446109354496,-0.0425872839987278,-0.0246809646487236,0.0331207551062107,standing,2026-03-04_13-52-56
1772632381076541700,4.452541748046875,0.0010712094280868,0.0765622845463454,-0.1592746161550283,-0.0251358449459075,-0.0076229134574532,0.0366883426904678,standing,2026-03-04_13-52-56
1772632381086490600,4.46249072265625,-0.0784879553792998,0.068393445007503,-0.2390513327032327,-0.0070668309926986,0.0038965900894254,0.0336978770792484,standing,2026-03-04_13-52-56
1772632381096438500,4.4724384765625,-0.1023420745017007,0.0210350431136786,-0.2244581592053174,0.0109039526432752,0.0086210817098617,0.0262382328510284,standing,2026-03-04_13-52-56
1772632381106387700,4.4823876953125,-0.0926297318479046,-0.009743541509658,-0.1764578061461448,0.0172824896872043,0.016724282875657,0.0220658555626869,standing,2026-03-04_13-52-56
1772632381116335600,4.492335693359375,-0.0608878551503643,-0.0075634209915995,-0.081672321036458,0.0151134589686989,0.0151036651805043,0.0230184961110353,standing,2026-03-04_13-52-56
1772632381126284500,4.502284423828125,-0.0163034480145201,-0.0102700496017932,0.016924831315875,0.0123549569398164,0.0076619936153292,0.0241719111800193,standing,2026-03-04_13-52-56
1772632381136232700,4.512232666015625,0.0276155540151521,-0.0136691905207931,0.0704886637210845,0.0048445221036672,-0.0039247572422027,0.0262351706624031,standing,2026-03-04_13-52-56
1772632381146181600,4.522181640625,0.0018555282061919,-0.0123883569300174,0.1237619887471199,0.00033525750041,-0.0124133173376321,0.0260418243706226,standing,2026-03-04_13-52-56
1772632381156129500,4.532129638671875,-0.0349304070731624,-0.0071457801014184,0.1075701478809118,-0.0021933130919933,-0.0200875047594308,0.0233153458684682,standing,2026-03-04_13-52-56
1772632381166078500,4.542078369140625,-0.0686945468459278,-0.0011379179887473,0.0530780947148799,0.0020395154133439,-0.0146927386522293,0.0180217809975147,standing,2026-03-04_13-52-56
1772632381176026600,4.552026611328125,-0.1026652785740792,0.0399142233677208,0.0227010766297578,0.0043872566893696,0.000132834771648,0.0120655559003353,standing,2026-03-04_13-52-56
1772632381185975600,4.5619755859375,-0.0894003214726224,0.0551736056894063,0.0119569797754287,0.0033456946257501,0.0181352719664573,0.0114176096394658,standing,2026-03-04_13-52-56
1772632381195923500,4.57192333984375,-0.0677216466931626,0.0265207810483872,0.0679296268880367,-0.0049090962857007,0.0301701705902814,0.0135160535573959,standing,2026-03-04_13-52-56
1772632381205872600,4.58187255859375,-0.0512048481889069,0.0090231182806193,0.1515507439047098,-0.0149577343836426,0.0260915383696556,0.0112960422411561,standing,2026-03-04_13-52-56
1772632381215820500,4.591820556640625,-0.0370487509340047,-0.0313989084787666,0.2426858898133039,-0.0294987000524997,0.0005807268898934,0.0090650543570518,standing,2026-03-04_13-52-56
1772632381225769500,4.60176953125,0.008637954887934,-0.0737995418347418,0.2752642173349857,-0.0424089059233665,-0.0332094579935073,0.0059520849026739,standing,2026-03-04_13-52-56
1772632381235717600,4.611717529296875,-0.0157621807446703,-0.0732920307040214,0.2200502796351909,-0.0468079186975955,-0.0612815469503402,-0.0028494123835116,standing,2026-03-04_13-52-56
1772632381245666600,4.62166650390625,-0.0508879642594605,-0.0401535850815474,0.0570247865140438,-0.0395084582269191,-0.0626906231045723,-0.006506199017167,standing,2026-03-04_13-52-56
1772632381255614500,4.631614501953125,-0.0369656392278149,0.0033856969155371,-0.1059545293778181,-0.028799457475543,-0.0365665256977081,-0.0014699205057695,standing,2026-03-04_13-52-56
1772632381265563600,4.641563720703125,-0.032335824002698,0.0507711329467594,-0.2510363695293665,-0.0184317715466022,-0.0019387758802622,0.0048817181959748,standing,2026-03-04_13-52-56
1772632381275511600,4.651511474609375,-0.0618403701022267,0.0755298727586865,-0.270325007367134,-0.0077827023342251,0.0169938057661056,0.0131321158260107,standing,2026-03-04_13-52-56
1772632381285460700,4.661460693359375,0.005865750228241,0.0526959635294973,-0.2328787815481424,0.0073453844524919,0.0253585278987884,0.0210752598941326,standing,2026-03-04_13-52-56
1772632381295408600,4.67140869140625,0.0492563810022547,0.0434887208536267,-0.1956096658617258,0.023200299590826,0.0301536861807107,0.0299895517528057,standing,2026-03-04_13-52-56
1772632381305357600,4.681357666015625,0.031666582971625,0.0445144106395542,-0.1154477493882179,0.0311317257583141,0.0182211268693208,0.0292811505496501,standing,2026-03-04_13-52-56
1772632381315305700,4.6913056640625,0.0355333048697561,0.0100264501042664,0.0147661919772624,0.0274698268622159,-0.0031386264599859,0.0235570594668388,standing,2026-03-04_13-52-56
1772632381325254700,4.701254638671875,0.0508902658144012,-0.0242127963669598,0.0983557448118925,0.0190105624496936,-0.011952357366681,0.0208230596035718,standing,2026-03-04_13-52-56
1772632381335203000,4.711203125,0.0541675339194014,-0.0085739132083952,0.1240221009880304,0.0117657575756311,0.0005923602730035,0.021000038832426,standing,2026-03-04_13-52-56
1772632381345152300,4.72115234375,-0.0036146833658218,0.0145649703167378,0.1591232249855995,-0.0058904686011374,0.0017297966405749,0.0160255171358585,standing,2026-03-04_13-52-56
1772632381355100200,4.73110009765625,-0.0012131751820445,0.0317938991457223,0.2025292359918356,-0.0259463135153055,-0.0105266375467181,0.0133167831227183,standing,2026-03-04_13-52-56
1772632381365049000,4.741049072265625,0.0391614322390407,0.00329173502177,0.1798310819715261,-0.0358916223049163,-0.0168314054608345,0.0122350063174963,standing,2026-03-04_13-52-56
1772632381374997200,4.750997314453125,0.0115377679826691,0.053236500146985,0.0730517922073602,-0.0320963487029075,0.0014925936702638,0.0136683285236358,standing,2026-03-04_13-52-56
1772632381384946200,4.7609462890625,-0.0157463986536487,0.1064608714647591,-0.0419563967198133,-0.0193938724696636,0.0277745313942432,0.0154134966433048,standing,2026-03-04_13-52-56
1772632381394894000,4.77089404296875,0.006801131382212,0.1082790268026292,-0.0453062916696071,-0.0119849564507603,0.0260892827063798,0.0219478290528059,standing,2026-03-04_13-52-56
1772632381404843000,4.780843017578125,0.0332309096788987,0.0743733961999416,0.013716975185275,-0.0085779745131731,0.0101843522861599,0.0222141463309526,standing,2026-03-04_13-52-56
1772632381414791200,4.790791259765625,0.0402097722481936,0.0364399713858962,0.03666588909626,-0.0031040566973388,0.0023120937403291,0.0254894345998764,standing,2026-03-04_13-52-56
1772632381424740000,4.800739990234375,0.0071923591895028,0.0470452442914247,0.0699094025284051,-0.0017242725007236,-0.0025401858147233,0.0222811251878738,standing,2026-03-04_13-52-56
1772632381434688000,4.81068798828125,-0.0222922401005402,0.0321206468820571,0.093265143674612,-0.0114018833264708,-0.0133203156292438,0.0180349051952362,standing,2026-03-04_13-52-56
1772632381444637200,4.82063720703125,-0.0260822069680318,0.0008289981700479,0.0891577083557844,-0.023098487406969,-0.0174394268542528,0.0177363641560077,standing,2026-03-04_13-52-56
1772632381454585000,4.830585205078125,-0.0195332967812195,0.0185989020079374,0.0258785376220941,-0.0232122521847486,-0.0046560047194361,0.0225155241787433,standing,2026-03-04_13-52-56
1772632381464534000,4.840533935546875,-0.0106494043081998,0.0592465542167425,-0.0396305841207504,-0.0174603573977947,0.0119493380188941,0.0276567563414573,standing,2026-03-04_13-52-56
1772632381474482200,4.850482177734375,-0.0015639613810926,0.061258916952461,-0.0833200882434845,-0.0103559019044041,0.0203509982675313,0.0317557007074356,standing,2026-03-04_13-52-56
1772632381484431000,4.86043115234375,-0.0557614155147224,0.0136551619954407,-0.0679062460124492,-0.0029664281755685,0.0162132438272237,0.0289900079369545,standing,2026-03-04_13-52-56
1772632381494379000,4.87037890625,-0.0853692758582532,-0.0546405217260122,-0.0173433489888906,-0.0023511853069067,-0.0003521610051393,0.0154575891792774,standing,2026-03-04_13-52-56
1772632381504328000,4.880327880859375,-0.1008806236470118,-0.1060595971874892,0.0362123001098632,-0.0054843937978148,-0.0169436540454626,0.0005164563190191,standing,2026-03-04_13-52-56
1772632381514276000,4.890276123046875,-0.0557375597150996,-0.0996308793142437,0.0057470192193984,-0.0059224315918982,-0.0147886350750923,0.0020801643840968,standing,2026-03-04_13-52-56
1772632381524225000,4.90022509765625,-0.0073939096435904,-0.0228818400241434,-0.0664537091165781,-0.0003130151890218,0.0015067141503095,0.0144265787675976,standing,2026-03-04_13-52-56
1772632381534173000,4.9101728515625,-0.005288352199085,0.0411821974769234,-0.0784802469968795,0.0038979803211987,0.0021652234718203,0.021438393741846,standing,2026-03-04_13-52-56
1772632381544121900,4.920121826171875,-0.0087777286848053,0.0164056297473609,-0.0640951632916927,0.0099654607474803,-0.0002004627604037,0.0246821232140064,standing,2026-03-04_13-52-56
1772632381554070000,4.930070068359375,-0.0326298019805923,-0.0138218968644738,-0.0205547122508287,0.0101910782977938,-0.0005448493175208,0.018590323626995,standing,2026-03-04_13-52-56
1772632381564019000,4.94001904296875,-0.0936775238677859,-0.0141287708565592,0.0251116449028253,0.0040117455646395,-0.0052679656073451,0.0085962787270545,standing,2026-03-04_13-52-56
1772632381573967000,4.949967041015625,-0.1184049552259966,-0.0481372773118317,0.0674731152921915,-0.0034916531294584,-0.0036824778653681,-0.0025230427272617,standing,2026-03-04_13-52-56
1772632381583916300,4.959916259765625,-0.1255873775433749,-0.0627171529367566,0.0788753837943077,-0.0160109065473079,-0.0006693773902952,-0.0124238766729831,standing,2026-03-04_13-52-56
1772632381593864000,4.969864013671875,-0.1468725594932213,-0.0320130948543548,0.0473141243606805,-0.0226991176605224,0.0074936700984835,-0.0196797996759414,standing,2026-03-04_13-52-56
1772632381603813000,4.979813232421875,-0.105122389402613,0.0193346689365804,-0.0107739074707031,-0.0188069082796573,0.0192222315818071,-0.0175948105752468,standing,2026-03-04_13-52-56
1772632381613761300,4.98976123046875,-0.0169091953553259,0.0568139202423393,-0.0557253943532705,-0.0064888303168118,0.0259826593101024,-0.005779746454209,standing,2026-03-04_13-52-56
1772632381623710200,4.999710205078125,0.0219090860018506,0.0851752145908772,-0.0329570977061986,0.0068304375745356,0.0204901564866304,0.0022938926704227,standing,2026-03-04_13-52-56
1772632381633658000,5.009658203125,0.0191479872580617,0.0727145230770111,0.0348924496829509,0.0139322355389595,0.0001546554267406,0.0013230121694505,standing,2026-03-04_13-52-56
1772632381643607000,5.01960693359375,-0.0116238753635436,0.0395772464983165,0.0822808083236217,0.0150699373334646,-0.0163545459508895,-0.0011619833530858,standing,2026-03-04_13-52-56
1772632381653555200,5.02955517578125,-0.0637700960557907,0.0309966112881898,0.1240606794327497,0.0112161859869956,-0.0211248509585857,-0.0086491126567125,standing,2026-03-04_13-52-56
1772632381663504100,5.039504150390625,-0.1236100495884195,0.037477205479145,0.1258580842435359,0.0004178672097623,-0.0118850134313106,-0.0177864171564579,standing,2026-03-04_13-52-56
1772632381673452000,5.0494521484375,-0.1271766560288146,0.044469986975938,0.0795762255400419,-0.0097893867641687,9.45422798395e-05,-0.0209003929048776,standing,2026-03-04_13-52-56
1772632381683401200,5.059401123046875,-0.0684739628978073,0.0468429997175931,0.0433621718645095,-0.0130925066769123,0.0199968758970499,-0.0123287439346313,standing,2026-03-04_13-52-56
1772632381693349000,5.06934912109375,-0.0256735165692865,0.058385845734179,0.038543957927823,-0.0151215754449367,0.0240767486393451,-0.0082498714327812,standing,2026-03-04_13-52-56
1772632381703298000,5.079298095703125,-0.0019830270433798,0.0419809466391801,0.0804611916810274,-0.0155673883855342,0.0098394900560379,-0.0060210712254047,standing,2026-03-04_13-52-56
1772632381713246200,5.08924609375,0.0135926546858623,-0.0264430396370589,0.1125011745423078,-0.0176179707050323,-0.0197651386260986,-0.0110076814889907,standing,2026-03-04_13-52-56
1772632381723195100,5.099195068359375,-0.0169997962482273,-0.066470660251379,0.1176531504780054,-0.022717922925949,-0.0389633327722549,-0.0217210464179515,standing,2026-03-04_13-52-56
1772632381733143000,5.10914306640625,-0.0775257227510213,-0.0835153185546398,0.0518681344032287,-0.0268337167799472,-0.0399257317185401,-0.0322577506303787,standing,2026-03-04_13-52-56
1772632381743092000,5.119092041015625,-0.093089092987962,-0.0627308892011642,-0.0752519326001405,-0.0278792716562747,-0.0279923733323812,-0.0343704372644424,standing,2026-03-04_13-52-56
1772632381753040100,5.1290400390625,-0.0531865235254168,-0.0121628776110708,-0.1836807431370019,-0.0206736773252487,-0.0016005430370569,-0.0223372858017683,standing,2026-03-04_13-52-56
1772632381762989000,5.138989013671875,-0.0164218502297997,0.0551047782368957,-0.2313537639379501,-0.0079240603372454,0.0182778239250183,-0.0082907089963555,standing,2026-03-04_13-52-56
1772632381772937000,5.14893701171875,0.0108881815001368,0.0377073609732091,-0.2259638875931501,0.0115463091060519,0.0233015194535255,-0.0013268330367282,standing,2026-03-04_13-52-56
1772632381782886100,5.15888623046875,-0.0053158247279003,-0.0062111295998096,-0.2012970638483762,0.0307442378252744,0.0166651885956525,-0.0019329683855175,standing,2026-03-04_13-52-56
1772632381792834000,5.168833984375,-0.0251144944470375,-0.0462114238157868,-0.1284077687263488,0.0462662577629089,0.007856210693717,-0.0127872982993721,standing,2026-03-04_13-52-56
1772632381802783000,5.178782958984375,-0.0476138744922354,-0.0629931933991611,-0.0380962141603231,0.0475200787186622,-0.0016115924809128,-0.0185317359864711,standing,2026-03-04_13-52-56
1772632381812731100,5.188731201171875,0.0006301511297002,-0.0586330984935164,0.0316594591110944,0.0374034233391284,-0.0042187762446701,-0.0214011091738939,standing,2026-03-04_13-52-56
1772632381822680000,5.19868017578125,0.0241365527929738,-0.0221124630868434,0.1110971529632806,0.0202899482101202,-0.0047641918063163,-0.0224261600524187,standing,2026-03-04_13-52-56
1772632381832628000,5.2086279296875,0.0371152402989566,-0.0003108195148408,0.1399731188356876,0.0007506012916564,-0.002179117873311,-0.0241105761379003,standing,2026-03-04_13-52-56
1772632381842577000,5.218576904296875,0.0400981285672634,0.0105570498496294,0.102547351282835,-0.0167716667056083,0.006879358086735,-0.0229177474975585,standing,2026-03-04_13-52-56
1772632381852525000,5.228525146484375,0.0102019162690266,0.0306996741682291,0.0659165334999561,-0.0260906480252742,0.0118064563721418,-0.0236404109746217,standing,2026-03-04_13-52-56
1772632381862474000,5.238473876953125,0.0140378411700949,0.0707107820391654,0.006400514692068,-0.0221534296870231,0.0171514190733432,-0.0203569997102022,standing,2026-03-04_13-52-56
1772632381872422000,5.248421875,0.0445910560723394,0.0941460181623697,-0.0480751718610525,-0.0073222406208515,0.0237493272870779,-0.0093135451897978,standing,2026-03-04_13-52-56
1772632381882371000,5.25837109375,0.0434771400136873,0.128372112891078,-0.0840764595687389,0.0148539012297987,0.0302612874656915,0.0013436265289783,standing,2026-03-04_13-52-56
1772632381892319000,5.268319091796875,0.0629952757583931,0.1588696886159479,-0.0370242010146379,0.0299040228128433,0.0199848804622888,0.0114651694893836,standing,2026-03-04_13-52-56
1772632381902268200,5.27826806640625,0.0927817806044593,0.1464312089338898,0.0389034388899803,0.0412703938782215,0.0044088521972298,0.0214983616024255,standing,2026-03-04_13-52-56
1772632381912216000,5.288216064453125,0.0638592356439679,0.1019556689999997,0.1065834749311208,0.0402111858129501,-0.0100949499756097,0.020912816748023,standing,2026-03-04_13-52-56
1772632381922165200,5.298165283203125,-0.0257792054334655,0.068106152498722,0.1774707825809717,0.0280695706605911,-0.0259045399725437,0.005422007292509,standing,2026-03-04_13-52-56
1772632381936466000,5.3124658203125,-0.0638822146607562,-0.0051755029417574,0.2178542308956384,-0.0090123368427157,-0.0266492962837219,-0.0092460429295897,standing,2026-03-04_13-52-56
1772632381946415000,5.3224150390625,-0.0604673281833529,-0.0168168408967554,0.2093313172221183,-0.0323003455996513,-0.005716317333281,-0.0042403656989336,standing,2026-03-04_13-52-56
1772632381956363000,5.332363037109375,-0.0294182925881817,0.0211306124426424,0.1273673197627067,-0.0452133789658546,0.0178747680038213,0.0056517301127314,standing,2026-03-04_13-52-56
1772632381966312200,5.342312255859375,-0.01548413098827,0.0549891890332102,0.0512678304225206,-0.0465292446315288,0.0253923386335372,0.0141932861879467,standing,2026-03-04_13-52-56
1772632381976260000,5.352260009765625,0.0231174388783052,0.033531828854233,-0.0015706103175878,-0.0350693874061107,0.0181552898138761,0.0195667725056409,standing,2026-03-04_13-52-56
1772632381986209300,5.362209228515625,0.0076287778453901,-0.0051239188849925,-0.021081950995326,-0.0176419243216514,-0.0007512890733778,0.0131866373121738,standing,2026-03-04_13-52-56
1772632381996157200,5.3721572265625,-0.0490850795559585,-0.057664984113723,-0.045899581387639,0.0045913038775324,-0.0170205067843198,0.0011939227115362,standing,2026-03-04_13-52-56
1772632382006106000,5.382106201171875,-0.0822065009783953,-0.0861640794977545,-0.0784919374346733,0.0210690796375274,-0.018912948668003,-0.0050930017605423,standing,2026-03-04_13-52-56
1772632382016054300,5.39205419921875,-0.0844176376892253,-0.0801587016031146,-0.1261029989153146,0.0271311793476343,-0.0188740547746419,-0.0068806814961135,standing,2026-03-04_13-52-56
1772632382026003200,5.402003173828125,-0.0606662482889369,-0.0432395683981478,-0.1052279686689376,0.0247761458158493,-0.0154481641948223,-0.0019072282593697,standing,2026-03-04_13-52-56
1772632382035951000,5.411951171875,-0.0003943330798298,-0.0100320030622184,-0.0704775578051805,0.0125914402306079,-0.0001949211582541,0.0103024654090404,standing,2026-03-04_13-52-56
1772632382045900000,5.421900146484375,0.0203120626013726,0.0126376555159687,-0.0492483072936534,0.0035388225223869,0.0122297909110784,0.014888696372509,standing,2026-03-04_13-52-56
1772632382055848200,5.43184814453125,-0.0241136468414217,0.0122261521056294,-0.0321434432357549,0.0001314785331487,0.0151919918134808,0.0096749924123287,standing,2026-03-04_13-52-56
1772632382065797000,5.441797119140625,-0.0932185645865276,-0.0297017491720616,-0.03565875788033,-0.0012264670804142,0.0115535808727145,-0.0034032587427645,standing,2026-03-04_13-52-56
1772632382075745000,5.4517451171875,-0.1124065185287967,-0.0444651646703481,-0.0282598798006772,0.0036864676512777,0.0132568571716547,-0.0112579111009836,standing,2026-03-04_13-52-56
1772632382085694000,5.46169384765625,-0.103290753528662,-0.0373743296265602,-0.0125789110660552,0.0084695052355527,0.0138941518962383,-0.0126893613487482,standing,2026-03-04_13-52-56
1772632382095642000,5.47164208984375,-0.0446784420948475,0.0046714989423751,-0.0175134448587894,0.017265448346734,0.0096589438617229,-0.0144889745861291,standing,2026-03-04_13-52-56
1772632382105591000,5.481591064453125,-0.0603886734565719,0.0409197471484541,0.0053273325026035,0.0176992770284414,0.0053928266279399,-0.0136937536299228,standing,2026-03-04_13-52-56
1772632382115539200,5.491539306640625,-0.0255387842737138,0.050846536270529,0.0359545259565114,0.0173947177827358,0.0082507617771625,-0.0048788832500576,standing,2026-03-04_13-52-56
1772632382125488000,5.501488037109375,0.0266324612619355,0.0596526507996022,0.0804027394920587,0.0119919618591666,0.0091298706829547,0.00091722025536,standing,2026-03-04_13-52-56
1772632382135436000,5.51143603515625,0.0436315268578007,0.054088733062148,0.1168424186170101,0.0096195694059133,0.005674872547388,0.000966832274571,standing,2026-03-04_13-52-56
1772632382145385000,5.521385009765625,-0.0012197510533034,0.0569650191508233,0.1355418583899736,0.0072999563999474,0.0017323293723165,-0.0034819783177226,standing,2026-03-04_13-52-56
1772632382155333000,5.5313330078125,-0.0693354750979691,0.0512942800380289,0.1280892042964697,0.0045332498848438,0.0022875303402543,-0.0092848092317581,standing,2026-03-04_13-52-56
1772632382165282000,5.541281982421875,-0.0611950214033946,0.0465035386301577,0.1445084241777658,-0.0005216961726546,0.0028941985219717,-0.0029115979559719,standing,2026-03-04_13-52-56
1772632382175230000,5.55122998046875,-0.0039652869017794,0.0455406849473714,0.1532300752937793,-0.003431090619415,-0.0054003582336008,0.000959098804742,standing,2026-03-04_13-52-56
1772632382185179000,5.561178955078125,0.0140044138245284,0.0421856754310429,0.1833130788683891,-0.0066327420063316,-0.012997823767364,-0.0010486582759767,standing,2026-03-04_13-52-56
1772632382195127000,5.571126953125,-0.0437569798683747,0.0261497557789087,0.1471785201698541,-0.0121842678636312,-0.0108580589294433,-0.0037440184969455,standing,2026-03-04_13-52-56
1772632382205076000,5.581075927734375,-0.0522596910040825,-0.0056759998098015,0.085683894765377,-0.0165997892618179,-0.020696310326457,-0.0094823315739631,standing,2026-03-04_13-52-56
1772632382215025200,5.591025146484375,-0.039553171502985,-0.0415118678227066,0.0995312183320522,-0.0248176101595163,-0.0431708768010139,-0.0189903900027275,standing,2026-03-04_13-52-56
1772632382224973000,5.60097314453125,-0.0425394207721576,-0.0644881081320345,0.0847398919135332,-0.032133050262928,-0.0489073246717453,-0.025829654186964,standing,2026-03-04_13-52-56
1772632382234922200,5.610922119140625,-0.0457663469294086,-0.0431824313834309,-0.0021750059515237,-0.0324369147419929,-0.0287156533449888,-0.0224106814712286,standing,2026-03-04_13-52-56
1772632382244870100,5.6208701171875,-0.0221441003341227,0.0298487564273178,-0.1164893673956394,-0.0269707739353179,-0.0057405633851885,-0.0083478586748242,standing,2026-03-04_13-52-56
1772632382254819000,5.630819091796875,0.0109549996586516,0.0735657330788672,-0.1712584839373827,-0.0176572743803262,-0.0075575867667794,0.0029984572902321,standing,2026-03-04_13-52-56
1772632382264767200,5.640767333984375,0.0155331212291494,0.0720220107682049,-0.1837351036727428,-0.0024042860604822,-0.0066862003877758,0.0060890554450452,standing,2026-03-04_13-52-56
1772632382274716200,5.650716064453125,-0.0066303779251873,0.0451613302409648,-0.255865689381957,0.0210797358304262,0.0148712322115898,0.0104825049638748,standing,2026-03-04_13-52-56
1772632382285285000,5.66128515625,-0.0113577717732638,0.0434117100946605,-0.302848974353075,0.0450082384049892,0.0309711061418056,0.0122473817318677,standing,2026-03-04_13-52-56
1772632382295234000,5.671234130859375,-0.02036455997359,0.0273652690485119,-0.2432937925785779,0.0560216829180717,0.0237355753779411,0.0064654918387532,standing,2026-03-04_13-52-56
1772632382305182000,5.681181884765625,-0.0286116889130324,-0.0215936999097466,-0.0949900677710771,0.0532557293772697,0.0061531201936304,0.003291270462796,standing,2026-03-04_13-52-56
1772632382315131100,5.691131103515625,-0.0077414079070091,-0.0613113777920603,0.0708949064344167,0.0390707701444625,-0.0068321814760565,-0.0015841285930946,standing,2026-03-04_13-52-56
1772632382325079000,5.7010791015625,0.0196764681115746,-0.0534288078486919,0.1933481506705284,0.0153739629313349,-0.0187626108527183,-0.0035785699728876,standing,2026-03-04_13-52-56
1772632382335028200,5.7110283203125,0.0176535839818418,-0.0436610086806118,0.2273480354279279,-0.0027623772621154,-0.0227860976010561,-0.0024676155298948,standing,2026-03-04_13-52-56
1772632382344976400,5.720976318359375,0.025918686969392,-0.035569326031208,0.1619669239789247,-0.0030380142852663,-0.0036057450342923,-4.17421106249e-05,standing,2026-03-04_13-52-56
1772632382354925300,5.73092529296875,-0.0192172165693715,0.0374732599563896,0.0179623576700687,0.0054646069183945,0.0197877380996942,0.0003082975745201,standing,2026-03-04_13-52-56
1772632382364873500,5.74087353515625,-0.051361207794398,0.084563074041903,-0.0386819050937891,0.0111171659082174,0.014774071983993,-0.0047069676220417,standing,2026-03-04_13-52-56
1772632382374822400,5.750822509765625,-0.0273261791471391,0.0638883886732161,-0.0051928924679756,0.0227255132049322,0.0072148027829825,-0.0030848782043904,standing,2026-03-04_13-52-56
1772632382384770300,5.760770263671875,-0.0105169735675677,0.0280130654327571,-0.0025841712743043,0.0571109168231487,0.002266383729875,-0.0046960907056927,standing,2026-03-04_13-52-56
1772632382394719500,5.770719482421875,-0.0620516747653484,0.044542759951204,-0.1180775133699178,0.114275187253952,-0.0082605704665184,-0.0133109837770462,standing,2026-03-04_13-52-56
1772632382404667400,5.78066748046875,-0.0977281144328415,0.0359204775564372,-0.227722713959217,0.1709965169429779,-0.0423434376716613,-0.0172649789601564,standing,2026-03-04_13-52-56
1772632382414616300,5.7906162109375,-0.0362696928529068,0.05520400082767,-0.2318143671870231,0.2112974524497985,-0.0722856223583221,-0.0096954265609383,standing,2026-03-04_13-52-56
1772632382424564500,5.800564453125,0.0643420507248491,0.1118598078988492,-0.1303711777538061,0.2134229242801666,-0.1056547611951828,0.006745065562427,standing,2026-03-04_13-52-56
1772632382434513400,5.810513427734375,0.0965067194117233,0.1282132690675556,0.021591069561243,0.2031503170728683,-0.1118279695510864,0.00185789889656,standing,2026-03-04_13-52-56
1772632382444461300,5.82046142578125,-0.0132130807837471,0.0502162755429744,0.0484901824027299,0.151188850402832,-0.0452579967677593,0.0008714639116078,standing,2026-03-04_13-52-56
1772632382454410200,5.83041015625,-0.0478271153841167,0.0094831370078027,0.165163089671731,0.0481214188039302,-0.0115037858486175,-0.0062289894558489,standing,2026-03-04_13-52-56
1772632382464358400,5.8403583984375,-0.1233552711097523,0.032368045771867,0.3927881884753704,-0.0601019896566867,0.0432124584913253,-0.0091225141659379,standing,2026-03-04_13-52-56
1772632382474307300,5.850307373046875,-0.0323825857538729,-0.1067344277091324,0.4570581238120794,-0.1470543593168258,0.0830496177077293,-0.0067706261761486,standing,2026-03-04_13-52-56
1772632382484255200,5.860255126953125,-0.0462138349685817,-0.0869562527887523,0.4330956489443778,-0.1982086151838302,0.1002075672149658,-0.0049378387629985,standing,2026-03-04_13-52-56
1772632382494204200,5.8702041015625,-0.035362441814877,-0.0330742943450808,0.3335720293968915,-0.2023509591817855,0.0797649249434471,0.001902041491121,standing,2026-03-04_13-52-56
1772632382504152300,5.88015234375,0.0035023455651476,-0.0395190865702927,0.175924137660861,-0.1580993384122848,0.0386515744030475,0.0051585547626018,standing,2026-03-04_13-52-56
1772632382514101200,5.890101318359375,-0.0031099487140774,-0.0550476412221789,-0.0013052373796701,-0.0827767848968505,-0.000180919887498,-0.0012883679009974,standing,2026-03-04_13-52-56
1772632382524049400,5.90004931640625,-0.0673373966159299,-0.0430382006071507,-0.1675198819309473,0.0006994660943746,-0.0292170997709035,-0.0142419841140508,standing,2026-03-04_13-52-56
1772632382533998300,5.909998291015625,-0.1419519446279853,-0.0157027421750128,-0.2404167758375406,0.0595699734985828,-0.0511959306895732,-0.0261271223425865,standing,2026-03-04_13-52-56
1772632382543946200,5.9199462890625,-0.1199822144800797,-0.0084770287051796,-0.2031768862456083,0.0772821307182312,-0.0613087490200996,-0.0271127577871084,standing,2026-03-04_13-52-56
1772632382553895400,5.9298955078125,-0.0575124604331329,-0.0192881994463503,-0.1181488250404596,0.0681202113628387,-0.0431940257549285,-0.0240326207131147,standing,2026-03-04_13-52-56
1772632382563843300,5.93984326171875,-0.0424422805406153,0.0082655779115855,-0.0223924490720033,0.0346520021557807,-0.0113647226244211,-0.0186610240489244,standing,2026-03-04_13-52-56
1772632382573792500,5.94979248046875,-0.0453243753155693,0.0658604193985462,0.0397878205090761,-0.0099852792918682,0.0133165819570422,-0.018041955307126,standing,2026-03-04_13-52-56
1772632382583740400,5.959740478515625,-0.0821088127575814,0.0357385451182723,0.0843190361529588,-0.0458306297659873,0.0303672067821025,-0.0230702683329582,standing,2026-03-04_13-52-56
1772632382593689300,5.969689453125,-0.0688190865410491,0.0065932607851922,0.0723585492461919,-0.0607126429677009,0.0412499457597732,-0.0214382838457822,standing,2026-03-04_13-52-56
1772632382603637500,5.979637451171875,-0.0314036577191203,0.037832448657602,0.0156955817818641,-0.0553045570850372,0.0402675047516822,-0.0199831333011388,standing,2026-03-04_13-52-56
1772632382613586400,5.98958642578125,0.0154478175658732,0.0825999572753906,-0.0248480255305767,-0.0374660715460777,0.0278075262904167,-0.0123858936131,standing,2026-03-04_13-52-56
1772632382623534300,5.999534423828125,0.031760179539211,0.0968663830369711,-0.0277899242013692,-0.0160350836813449,0.0154619114473462,-0.0130849732086062,standing,2026-03-04_13-52-56
1772632382633483500,6.0094833984375,0.0135850193686783,0.0656308484263718,-0.0304658654123544,0.0079634133726358,0.0018355639185756,-0.0089239329099655,standing,2026-03-04_13-52-56
1772632382643431400,6.019431396484375,-0.0121464744655415,0.0785870683722197,0.0010135609567165,0.0231863092631101,-0.0118389688432216,-0.0103841442614793,standing,2026-03-04_13-52-56
1772632382653380400,6.02938037109375,-0.0115576417269185,0.091766575679928,0.0377267963260412,0.0287555716931819,-0.0138350194320082,-0.0084318798035383,standing,2026-03-04_13-52-56
1772632382663328500,6.03932861328125,-0.0031616789013147,0.09184212513417,0.0733551590681076,0.0257627107203006,-0.0038018263876438,-0.0042158290743827,standing,2026-03-04_13-52-56
1772632382673277400,6.04927734375,0.0132156380670145,0.0825641553096473,0.0915308672279119,0.0154280792921781,0.0116031831130385,-0.0004273755475878,standing,2026-03-04_13-52-56
1772632382683226400,6.059226318359375,0.0008071151318028,0.0720116355046629,0.1311328097760677,-0.0010073529556393,0.0141419740393757,-0.0019887867383658,standing,2026-03-04_13-52-56
1772632382693174300,6.06917431640625,-0.0092706998335197,-0.0078531977184116,0.1939315035164356,-0.0157764460891485,0.0017376216128468,-0.0087574692443013,standing,2026-03-04_13-52-56
1772632382703123500,6.07912353515625,0.0035487785227596,-0.0502162755429744,0.2137368587046861,-0.0347240418195724,-0.0189466178417205,-0.0170183293521404,standing,2026-03-04_13-52-56
1772632382713071400,6.0890712890625,-0.0195877669148147,-0.0830260737329721,0.2140565921783447,-0.0509902946650981,-0.0392129272222518,-0.0283243209123611,standing,2026-03-04_13-52-56
1772632382723020300,6.099020263671875,-0.0462913937168195,-0.0957915934123098,0.1445125158309936,-0.0593353137373924,-0.0454934574663639,-0.0325337126851081,standing,2026-03-04_13-52-56
1772632382732968400,6.108968505859375,-0.0330706410832703,-0.0497241081118583,0.0133703537046909,-0.0596089288592338,-0.0323721915483474,-0.0278561953455209,standing,2026-03-04_13-52-56
1772632382742917400,6.11891748046875,-0.0275729204498231,0.0196304370127618,-0.135818921765685,-0.0461043007671833,-0.0139228757470846,-0.0142913851886987,standing,2026-03-04_13-52-56
1772632382752865300,6.128865234375,-0.0293938157340511,0.0702642073154449,-0.2821533923268318,-0.019660584628582,0.001959515037015,-0.0050376215949654,standing,2026-03-04_13-52-56
1772632382762814200,6.138814208984375,-0.0440244351655244,0.0809469293713569,-0.391300580266118,0.0202948208898305,0.0166420545428991,0.0036144559271633,standing,2026-03-04_13-52-56
1772632382772762400,6.148762451171875,-0.0602509820189327,0.0747999510489404,-0.4376081579327583,0.0573778226971626,0.0252857897430658,0.0044826688244938,standing,2026-03-04_13-52-56
1772632382782711300,6.158711181640625,-0.0847643322350457,0.0410239381752908,-0.3852554548829793,0.0818227156996727,0.0224077124148607,0.0017526624724268,standing,2026-03-04_13-52-56
1772632382792659200,6.1686591796875,-0.0827112356301397,-0.010263035339117,-0.22941432030797,0.0828815847635269,0.0103037916123867,-0.0086778830736875,standing,2026-03-04_13-52-56
1772632382802608000,6.178608154296875,-0.0886259030340239,-0.0709630032345652,-0.0365302800178527,0.0647529065608978,0.0030456134118139,-0.0199824683368206,standing,2026-03-04_13-52-56
1772632382812556300,6.188556396484375,-0.0916878113552927,-0.0962464975729584,0.0997872389197349,0.0339460708200931,0.0068873036652803,-0.0293582007288932,standing,2026-03-04_13-52-56
1772632382822505500,6.19850537109375,-0.0693856343826279,-0.1042021327525377,0.199236624187231,-0.0003578402101993,0.0122594321146607,-0.0295281112194061,standing,2026-03-04_13-52-56
1772632382832453400,6.208453369140625,-0.0183340405266731,-0.0736019734360277,0.2257388466656208,-0.0224717389792203,0.0124431084841489,-0.0269583519548177,standing,2026-03-04_13-52-56
1772632382842402600,6.218402587890625,0.0061805517984554,-0.0339237507812678,0.1992313634902238,-0.0324016027152538,0.0094270799309015,-0.0205784831196069,standing,2026-03-04_13-52-56
1772632382852350500,6.2283505859375,0.0117672293569892,0.0187910635791718,0.1236971068173646,-0.0243989117443561,0.0070108156651258,-0.021333023905754,standing,2026-03-04_13-52-56
1772632382862299400,6.23829931640625,0.0017586071703583,0.0525577241025865,0.0201250886619091,-0.0089152911677956,0.0077746100723743,-0.0231285281479358,standing,2026-03-04_13-52-56
1772632382872247600,6.24824755859375,-0.0234826189288869,0.0607091741152107,-0.0573369212031364,0.0127625856548547,0.0137565480545163,-0.0226123724132776,standing,2026-03-04_13-52-56
1772632382882196500,6.258196533203125,-0.0269318825999274,0.0685047964274883,-0.0852823282271623,0.0261755958199501,0.0146764041855931,-0.0212363172322511,standing,2026-03-04_13-52-56
1772632382892144400,6.268144287109375,0.0038578444719314,0.0808098589882254,-0.0360176543205976,0.0281187891960144,0.0096550360321998,-0.0140945855528116,standing,2026-03-04_13-52-56
1772632382902093300,6.27809326171875,0.0513281092423945,0.0767452398978173,0.0396785149157047,0.0225091073662042,-0.0023923064582049,-0.0059040337800979,standing,2026-03-04_13-52-56
1772632382912041500,6.28804150390625,0.0684088252397254,0.0855412714242935,0.0836842453807592,0.0130850421264767,-0.011664792895317,-0.0031504163052886,standing,2026-03-04_13-52-56
1772632382921990400,6.297990478515625,0.0458702091626822,0.0578986467391252,0.1229419045358896,0.0067608333192765,-0.0144406054168939,-0.0056492602452635,standing,2026-03-04_13-52-56
1772632382931938300,6.307938232421875,-0.007971855662018,0.0393836236223578,0.067673606300354,0.0058403825387358,1.22615601867e-05,-0.008267056196928,standing,2026-03-04_13-52-56
1772632382941887500,6.317887451171875,-0.0214699273996055,0.0348312210150063,0.0227104289799928,-0.00043615559116,0.0151121187955141,-0.0068787508644163,standing,2026-03-04_13-52-56
1772632382951835400,6.32783544921875,-0.02209671752844,0.0542614592805504,0.0100812490314245,-0.0045317788608372,0.0218441933393478,-0.0066554201766848,standing,2026-03-04_13-52-56
1772632382961784300,6.337784423828125,-0.0332583456750959,0.0497027730628848,0.0268593653529882,-0.009945185855031,0.0212628245353698,-0.006945970468223,standing,2026-03-04_13-52-56
1772632382971732500,6.347732421875,-0.0061749988405033,0.0077731182195246,0.0136310504674911,-0.0109068546444177,0.0141601730138063,-0.0049999989569187,standing,2026-03-04_13-52-56
1772632382981681400,6.357681396484375,-0.0125857791982591,0.0058472647234797,0.0447422280460596,-0.0067813503555953,0.0037147239781916,-0.0037283394485712,standing,2026-03-04_13-52-56
1772632382991629300,6.36762939453125,-0.0148331927988678,-0.010836597443372,0.0268359844774007,0.0007753791287541,0.0009050613734871,-0.0053384695202112,standing,2026-03-04_13-52-56
1772632383001578200,6.377578125,-0.0273374677261337,-0.024943448729068,-0.0226613291412591,0.0120543986558914,0.0012179824989289,-0.004304630216211,standing,2026-03-04_13-52-56
1772632383011526400,6.3875263671875,-0.0169430976249277,0.0137102531835436,-0.0473135398387908,0.0187494698911905,-0.0008877564687281,-0.00363384722732,standing,2026-03-04_13-52-56
1772632383021475300,6.397475341796875,0.0045627413382753,0.0220947812996804,-0.0392588281989097,0.0206909142434597,-0.0022805896587669,0.0009222887456417,standing,2026-03-04_13-52-56
1772632383031423200,6.40742333984375,0.0111209673427045,-0.0070065177612006,-0.033778935483098,0.0210019145160913,-0.0014061154797673,0.0003868185449391,standing,2026-03-04_13-52-56
1772632383041372400,6.417372314453125,0.0178848719870671,0.0056261693187057,-0.0080459438115358,0.0154156675562262,-0.0008913264609873,0.0018110773526132,standing,2026-03-04_13-52-56
1772632383051320300,6.4273203125,0.01340122376699,0.0164914083346724,-0.0021574702948331,0.0116696711629629,0.0057694776915013,0.0049706678837537,standing,2026-03-04_13-52-56
1772632383061269200,6.437269287109375,-0.005072444426082,0.0238648597121238,0.0015191723912954,0.0084693506360054,0.0113360174000263,-0.0019743232987821,standing,2026-03-04_13-52-56
1772632383071217400,6.447217529296875,-0.0608686024606227,-0.0041574119403958,0.0344324309557676,0.0022172043099999,0.0136650931090116,-0.0068948380649089,standing,2026-03-04_13-52-56
1772632383081166300,6.457166259765625,-0.0859391481680795,-0.0071598086267709,0.048159927535057,-0.0045059458352625,0.0081158634275197,-0.0092898188158869,standing,2026-03-04_13-52-56
1772632383091114200,6.4671142578125,-0.0563720216937363,0.0047829964928328,0.0612625702142715,-0.0035278750583529,0.001175807788968,-0.0070672030560672,standing,2026-03-04_13-52-56
1772632383101063200,6.477063232421875,-0.0117225134324282,0.0239465466462075,0.0268202023863792,0.0076371608301997,0.0047348565421998,0.0012088364455848,standing,2026-03-04_13-52-56
1772632383111011300,6.48701123046875,-0.0059275999506935,0.0604797492735087,-0.0140051444768905,0.0204300880432128,0.0034973989240825,0.0055074030533432,standing,2026-03-04_13-52-56
1772632383120960500,6.49696044921875,-0.0154276150280609,0.066952744679898,-0.0171621472030878,0.0308278650045394,-0.0006174512673169,0.0008436758071184,standing,2026-03-04_13-52-56
1772632383130908200,6.506908203125,-0.0573334871370345,0.0268169875159859,-7.5987845659e-06,0.0291431974619627,-0.007965600118041,-0.0066886758431792,standing,2026-03-04_13-52-56
1772632383140857300,6.516857421875,-0.0686902359969914,0.0143074884243309,0.0584188712209463,0.022243745625019,-0.0087293945252895,-0.0098623652011156,standing,2026-03-04_13-52-56
1772632383150805500,6.526805419921875,-0.0761279482496902,0.0097607849054038,0.0663566784828901,0.0124654229730367,0.0063298069871962,-0.0119396056979894,standing,2026-03-04_13-52-56
1772632383160754400,6.53675439453125,-0.0855159543199464,0.0038701194316148,0.060601475957036,0.0031773829832673,0.0220440551638603,-0.0097462264820933,standing,2026-03-04_13-52-56
1772632383170703400,6.546703369140625,-0.0479101174924522,0.012658552173525,0.0583329465031623,0.0002865213900804,0.0274574626237154,-0.0036393315531313,standing,2026-03-04_13-52-56
1772632383180651500,6.556651611328125,-0.0087757193908095,0.0140121587395668,0.0743593676745891,-0.0005619614385068,0.0231753643602132,0.0002755152527242,standing,2026-03-04_13-52-56
1772632383190600400,6.566600341796875,0.0167363230064511,-0.0048795887351036,0.1075251396954059,-0.0014934204518795,0.0048868842422962,-0.0023726648651063,standing,2026-03-04_13-52-56
1772632383200548400,6.57654833984375,0.0045262087201699,-0.0413002708986401,0.1423486157953739,-0.0032516391947865,-0.0217335429042577,-0.0163073893636465,standing,2026-03-04_13-52-56
1772632383210497300,6.586497314453125,-0.0348295770471915,-0.0770142660975456,0.1610778661847114,-0.0127249369397759,-0.0414264015853405,-0.0293347314000129,standing,2026-03-04_13-52-56
1772632383220445400,6.596445556640625,-0.0627012977804988,-0.0976315221905708,0.1146744269281625,-0.0225828923285007,-0.0440765134990215,-0.0392741821706295,standing,2026-03-04_13-52-56
1772632383230394400,6.606394287109375,-0.0695731563113629,-0.0563423572078347,0.0630418548464775,-0.0355842821300029,-0.0291524287313222,-0.0410697348415851,standing,2026-03-04_13-52-56
