time,seconds_elapsed,acc_x,acc_y,acc_z,gyr_x,gyr_y,gyr_z,activity,session
1772632365285891800,0.069891845703125,-0.0153594816952943,-0.0421333607219159,0.0819756878972053,-0.0740784034132957,0.0172200966626405,0.0041610710322856,standing,2026-03-04_13-52-45
1772632365295840800,0.0798408203125,-0.0167112616304308,-0.0159573014579713,0.015800211200118,-0.0637755095958709,0.0141742909327149,0.0054267952218651,standing,2026-03-04_13-52-45
1772632365305788700,0.08978857421875,-0.0346499461639672,-0.0148648300461471,-0.023996961659193,-0.0473946705460548,-0.016482688486576,0.001393970567733,standing,2026-03-04_13-52-45
1772632365315737600,0.099737548828125,-0.0200687553647905,-0.0373519716642797,-0.1010112277567386,-0.0188116878271102,-0.0260024759918451,0.0032524005509912,standing,2026-03-04_13-52-45
1772632365325685500,0.109685546875,-0.003304229177162,-0.0119140174165368,-0.1675584603756666,0.0140642346814274,-0.0196702778339386,0.0086234640330076,standing,2026-03-04_13-52-45
1772632365335634400,0.119634521484375,-0.0162377258345484,0.0187782040975987,-0.1275841773837804,0.0342139825224876,-0.0307177994400262,0.0065683797001838,standing,2026-03-04_13-52-45
1772632365345582600,0.12958251953125,-0.0409483156558126,-0.0038582828633487,-0.1083013847649097,0.0425581969320774,-0.033616118133068,-0.0023532100021839,standing,2026-03-04_13-52-45
1772632365355531500,0.139531494140625,-0.0440501541286706,-0.0104487671695649,-0.1155453645437955,0.0462699979543685,-0.0156598296016454,-0.0015208338154479,standing,2026-03-04_13-52-45
1772632365365479400,0.1494794921875,-0.0266632582589983,0.0325901640899479,-0.0780097068756818,0.0362783521413803,0.0050912555307149,0.0063999397680163,standing,2026-03-04_13-52-45
1772632365375428400,0.159428466796875,-0.0037179976098239,0.0425550932653248,0.0221726688414812,0.0160977095365524,-0.0015691914595663,0.0048867389559745,standing,2026-03-04_13-52-45
1772632365385376500,0.16937646484375,-0.0173894531529396,-0.0073410104125738,0.0595668722122907,-0.009470235556364,-0.002451763022691,-0.002805535448715,standing,2026-03-04_13-52-45
1772632365395325700,0.17932568359375,-0.0229162537503987,-0.0209054253846406,0.0214016844689846,-0.0298574436455965,0.0238588638603687,-0.0068302387371659,standing,2026-03-04_13-52-45
1772632365405273300,0.1892734375,-0.0163446202751249,0.0305829159207642,0.0055161330729722,-0.0450403913855552,0.0500222891569137,0.005797672085464,standing,2026-03-04_13-52-45
1772632365415222500,0.199222412109375,0.0202354171685874,0.0633097120024263,0.0479489151328802,-0.0513812787830829,0.0455325953662395,0.0177649091929197,standing,2026-03-04_13-52-45
1772632365425170700,0.209170654296875,0.0267093624230474,0.0414653983324766,0.0850029267638921,-0.0428604930639267,0.0124486740678548,0.0202096924185752,standing,2026-03-04_13-52-45
1772632365435119600,0.21911962890625,0.0050645168479532,0.0126252344258129,0.0464735818833112,-0.016074750572443,0.0023622012231498,0.011567048728466,standing,2026-03-04_13-52-45
1772632365445067500,0.229067626953125,-0.0280609962277114,0.029619039324671,-0.0253612357497215,0.0141521263867616,-0.0002021563705056,0.0078383572399616,standing,2026-03-04_13-52-45
1772632365455016700,0.2390166015625,-0.0463433796323835,0.0749589410029351,0.0098830961108207,0.0308122206479311,-0.0146266408264637,0.0069946171715855,standing,2026-03-04_13-52-45
1772632365464964600,0.248964599609375,-0.0551454755734652,0.025876784056425,0.094792499372363,0.0297245848923921,-0.0342085994780063,0.0010448489338159,standing,2026-03-04_13-52-45
1772632365474913500,0.25891357421875,-0.0237568692930042,0.0074529463544487,0.1719990731716155,0.0175954848527908,-0.0461890958249568,-0.0010241608833894,standing,2026-03-04_13-52-45
1772632365484861700,0.26886181640625,-0.0082697426300495,0.0102272333733737,0.2209966205745935,-0.005365225020796,-0.0453960075974464,0.0069264406338334,standing,2026-03-04_13-52-45
1772632365494810600,0.278810546875,-0.0515902673099189,0.0333579335920512,0.2159375836193561,-0.0255433022975921,-0.042934913188219,0.0025082828942686,standing,2026-03-04_13-52-45
1772632365504758500,0.288758544921875,-0.0967778279706835,0.0467734416127204,0.1591618034303188,-0.0337980352342128,-0.0291000586003065,-0.0021546457428485,standing,2026-03-04_13-52-45
1772632365514707500,0.29870751953125,-0.0800251383513212,0.0568941458716988,0.0420966819733381,-0.0345253124833107,0.0079697016626596,0.0035874983295798,standing,2026-03-04_13-52-45
1772632365524655600,0.308655517578125,-0.0726700994133949,0.1075333230018615,-0.014312018468976,-0.0320403166115284,0.0303043015301227,0.0132422558963298,standing,2026-03-04_13-52-45
1772632365534604500,0.3186044921875,-0.0638875849556177,0.1135398699402809,0.0681663582533597,-0.0341836214065551,0.0040745912119746,0.0126981576904654,standing,2026-03-04_13-52-45
1772632365544552400,0.328552490234375,-0.0482422720562666,0.0188267194144427,0.1673071159631013,-0.0370640940964221,-0.0471814088523387,0.0009522857144474,standing,2026-03-04_13-52-45
1772632365554500600,0.33850048828125,-0.0401237013999372,-0.0687733842357993,0.1590472371399402,-0.0380713492631912,-0.0800088495016098,-0.0155999585986137,standing,2026-03-04_13-52-45
1772632365564449500,0.348449462890625,-0.0483566191509366,-0.0508728397555649,0.0217985748320817,-0.028514064848423,-0.0686786994338035,-0.0208029765635728,standing,2026-03-04_13-52-45
1772632365574397400,0.3583974609375,-0.1201243628971278,0.0208013804882764,-0.1705553041040897,-0.0205047260969877,-0.0446482300758361,-0.0244882944971323,standing,2026-03-04_13-52-45
1772632365584346600,0.3683466796875,-0.0678232439041137,0.0429945075958967,-0.2820949401378631,-0.0126806255429983,-0.0209788549691438,-0.0196413416415452,standing,2026-03-04_13-52-45
1772632365594294500,0.37829443359375,0.0053267479807138,0.0814580937638878,-0.2688169408917427,-0.0103093069046735,0.0088524846360087,0.002185360295698,standing,2026-03-04_13-52-45
1772632365604243500,0.388243408203125,0.0431727867722511,0.1341718852110207,-0.1993091049015521,-0.0074530676938593,0.0172486323863267,0.0216844920068979,standing,2026-03-04_13-52-45
1772632365614191600,0.398191650390625,0.0922210414491593,0.1107717204011976,-0.0738157623171806,-0.0114469900727272,0.0095364619046449,0.0320869833230972,standing,2026-03-04_13-52-45
1772632365624140500,0.408140625,0.0735223323285579,0.0388910177998244,0.0207423437774181,-0.0070602321065962,0.0023818798363208,0.0359640158712863,standing,2026-03-04_13-52-45
1772632365634088400,0.41808837890625,0.0073441522177308,-0.0293922448314726,0.0718295569360256,-0.0002832165919244,-0.008571270853281,0.0222078673541545,standing,2026-03-04_13-52-45
1772632365644037400,0.428037353515625,-0.080986457664147,-0.0841482096306979,0.1145955164730548,0.0025410656817257,-0.0311191901564598,-0.0051055122166872,standing,2026-03-04_13-52-45
1772632365653985500,0.437985595703125,-0.1404640441577881,-0.1232633915752172,0.0594172346085309,0.0067580263130366,-0.0363807901740074,-0.0272757448256015,standing,2026-03-04_13-52-45
1772632365663934500,0.4479345703125,-0.0888365135774016,-0.0823262549005448,-0.0059247138738632,0.0084009300917387,-0.0148038603365421,-0.0284376814961433,standing,2026-03-04_13-52-45
1772632365673882400,0.45788232421875,-0.008598463127762,0.0263378256969153,-0.0115109895735979,0.001964961644262,-5.98246697336e-05,-0.0175146628171205,standing,2026-03-04_13-52-45
1772632365683831600,0.46783154296875,0.0380040788974612,0.0608814619421958,0.0269599031180143,-0.0138424979522824,-0.0121622942388057,-0.0089741721749305,standing,2026-03-04_13-52-45
1772632365693779500,0.477779541015625,0.0536017532628029,0.0245281459264457,0.0121457803457975,-0.0214016400277614,-0.009651425294578,-0.006056856829673,standing,2026-03-04_13-52-45
1772632365703728400,0.487728271484375,0.0136371148820966,0.0298795899569988,-0.1018997010290622,-0.0126771237701177,0.0233523305505514,4.92387916892e-05,standing,2026-03-04_13-52-45
1772632365713676500,0.497676513671875,-0.0172776633415371,0.075615651345998,-0.1445388193160295,-0.0016972064040601,0.0512642115354537,0.0061910403892397,standing,2026-03-04_13-52-45
1772632365723625700,0.507625732421875,-0.0276342952482402,0.0591945317685604,-0.0630120442301035,0.0027164500206708,0.0388608053326606,0.0017728561069816,standing,2026-03-04_13-52-45
1772632365733573400,0.517573486328125,0.0076459116432815,-0.0210867733009159,0.0184229609191417,0.0087016560137271,0.0122252292931079,-0.0064725698903203,standing,2026-03-04_13-52-45
1772632365743522600,0.5275224609375,0.0434920087892562,-0.0493324784457683,0.0326531463235616,0.0168168395757675,0.002581391017884,-0.0042818537913262,standing,2026-03-04_13-52-45
1772632365753470700,0.537470703125,0.0450640804115682,0.0155268010862171,0.043072249007225,0.0187113136053085,0.0032324097119271,0.0038255506660789,standing,2026-03-04_13-52-45
1772632365763419600,0.547419677734375,0.0457547660894691,0.0559875524207949,0.1082341647475957,0.0098989140242338,-0.0171799212694168,0.0042292857542634,standing,2026-03-04_13-52-45
1772632365773367600,0.557367431640625,0.029916049509868,0.0130235860936343,0.1499672741055488,-0.003166374284774,-0.0328943617641925,0.0006772964261472,standing,2026-03-04_13-52-45
1772632365783316700,0.567316650390625,0.013945011787489,-0.0121127548590302,0.0593605359852313,-0.0036420156247913,-0.0101842572912573,0.0017540126573294,standing,2026-03-04_13-52-45
1772632365793264600,0.5772646484375,-0.0119318453341722,0.065548430839926,-0.0386158541202545,-0.0018345704302191,0.0147132631391286,0.0069970716722309,standing,2026-03-04_13-52-45
1772632365803213600,0.587213623046875,-0.0358365986652672,0.1103000112362205,-0.0250537772357463,-0.0057864347472786,0.0269992239773273,0.0052881208248436,standing,2026-03-04_13-52-45
1772632365813161700,0.59716162109375,-0.00560198472552,0.0523350212626159,-0.0146393507272005,-0.0087419804185628,0.0293320640921592,0.0094719277694821,standing,2026-03-04_13-52-45
1772632365823110700,0.607110595703125,0.026928265870735,0.022568390160799,0.0155348382622003,-0.008478594943881,0.0273325629532337,0.0165689866989851,standing,2026-03-04_13-52-45
1772632365833058600,0.61705859375,0.0111832189239561,0.042900691832602,0.0909866773486137,-0.0094024017453193,0.0096209309995174,0.0170115008950233,standing,2026-03-04_13-52-45
1772632365843007500,0.627007568359375,-0.0149248896703124,0.0071161156155169,0.1140560027688741,-0.0078226141631603,-0.0092145428061485,0.0132471229881048,standing,2026-03-04_13-52-45
1772632365852955600,0.63695556640625,-0.0355270943246781,-0.0360113707102835,0.0879039089024067,-0.0033518206328153,-0.0115337762981653,0.0067926412448287,standing,2026-03-04_13-52-45
1772632365862904600,0.646904541015625,-0.0696957597777247,-0.0144806530341506,0.0551981556087732,0.0016828849911689,-0.0062247645109891,0.0055502764880657,standing,2026-03-04_13-52-45
1772632365872852500,0.6568525390625,-0.0986710213061422,0.0008645078748464,0.0770008220940828,-0.0024950266815721,-0.0229719169437885,-0.0008669837843626,standing,2026-03-04_13-52-45
1772632365882801400,0.666801513671875,-0.0737405781891197,-0.0391157664664089,0.0939776758581399,-0.0084205605089664,-0.0449049137532711,-0.004930967465043,standing,2026-03-04_13-52-45
1772632365892749600,0.67674951171875,-0.0425732865091413,-0.0625434038050472,0.0033820436537265,-0.0036057461984455,-0.0251235365867614,-0.0064656687900424,standing,2026-03-04_13-52-45
1772632365902698500,0.686698486328125,-0.0836757698133587,0.0392101667515933,-0.1127998652279377,0.0009597111493349,0.0047310316003859,-0.002631781855598,standing,2026-03-04_13-52-45
1772632365912646700,0.696646728515625,-0.1236154198832809,0.0707242260426282,-0.1115238539427518,0.0008282982744276,0.0049578780308365,-0.0096252262592315,standing,2026-03-04_13-52-45
1772632365922595600,0.706595703125,-0.0784390382036566,-0.0005425824441015,-0.068663786381483,-0.0046040178276598,-0.0059981006197631,-0.0127091668546199,standing,2026-03-04_13-52-45
1772632365932543500,0.71654345703125,-0.0390694431066513,-0.0274206524975597,-0.103763156813383,-0.0011651441454887,0.009380305185914,-0.0091955447569489,standing,2026-03-04_13-52-45
1772632365942492400,0.726492431640625,-0.0973705331668257,0.0159295366682112,-0.1719569875955581,0.0119783543050289,0.03643748909235,-0.0103412363678216,standing,2026-03-04_13-52-45
1772632365952440600,0.736440673828125,-0.1156621227912604,0.023234160593152,-0.1595528485745191,0.0262888055294752,0.0353727675974369,-0.0142163010314106,standing,2026-03-04_13-52-45
1772632365962389500,0.746389404296875,-0.0279568052008748,-0.0144315531954169,-0.1125999587416648,0.0357856377959251,0.0249105393886566,-0.0147350840270519,standing,2026-03-04_13-52-45
1772632365972337400,0.75633740234375,0.0180064160075038,-0.0208130709260702,-0.0223556241929531,0.0398749560117721,0.0233183447271585,-0.0110443038865923,standing,2026-03-04_13-52-45
1772632365982286300,0.766286376953125,-0.0458675057489424,0.0160337276950478,0.0660065498709678,0.0326340869069099,0.0127226915210485,-0.015733066946268,standing,2026-03-04_13-52-45
1772632365992234500,0.776234375,-0.1129448997218161,-0.0386034330300986,0.1312327630192041,0.0186798684298992,-0.0088186897337436,-0.0305438619107007,standing,2026-03-04_13-52-45
1772632366002183400,0.786183349609375,-0.0895361132141202,-0.1016533250525593,0.1081844803869724,0.0077270856127142,-0.0101678473874926,-0.0348736308515071,standing,2026-03-04_13-52-45
1772632366012131300,0.79613134765625,-0.0821582048572599,-0.0465831797376275,0.0392184961885213,0.0044225342571735,0.018512675538659,-0.0344070978462696,standing,2026-03-04_13-52-45
1772632366022080800,0.806080810546875,-0.0820152161899954,0.0275477860085666,0.0103407767504453,0.0057072429917752,0.0416872352361679,-0.0225781388580799,standing,2026-03-04_13-52-45
1772632366032028400,0.8160283203125,-0.0073855071414262,0.0154079970121383,0.0332335765600204,0.0103735579177737,0.0462994687259197,-0.013861414976418,standing,2026-03-04_13-52-45
1772632366041977600,0.8259775390625,0.0140452572915703,-0.0096533790081739,0.0721674105882644,0.0189750343561172,0.0357347093522548,-0.0136765912175178,standing,2026-03-04_13-52-45
1772632366051925800,0.83592578125,-0.0418862540930509,-0.0250610837593674,0.1581032342880964,0.0234882049262523,0.0057338876649737,-0.0207247864454984,standing,2026-03-04_13-52-45
1772632366061874700,0.845874755859375,-0.0607363543830811,-0.0780558841049671,0.2172112568169832,0.0214527510106563,-0.0454539321362972,-0.0375261381268501,standing,2026-03-04_13-52-45
1772632366071822600,0.855822509765625,-0.0880257086511701,-0.1173195346094667,0.217674198153615,0.0124954637140035,-0.0821480602025985,-0.0585885308682918,standing,2026-03-04_13-52-45
1772632366081771500,0.865771484375,-0.1329733230762183,-0.0867182062491774,0.1075181254327297,0.0055464771576225,-0.0799112692475318,-0.0752679109573364,standing,2026-03-04_13-52-45
1772632366091719700,0.8757197265625,-0.0864735107731074,0.0083037179648876,-0.0496229858249425,-0.0024737943895161,-0.041387990117073,-0.0683460235595703,standing,2026-03-04_13-52-45
1772632366101668600,0.885668701171875,-0.0198383076097816,0.1182305119745433,-0.1833382133096456,-0.0087833553552627,0.0116818882524967,-0.046377882361412,standing,2026-03-04_13-52-45
1772632366111616500,0.895616455078125,0.0660129065465182,0.2078941240258514,-0.2016261496722698,-0.0106841083616018,0.0449542216956615,-0.0131433866918087,standing,2026-03-04_13-52-45
1772632366121565700,0.905565673828125,0.1123843432296067,0.2120591347508132,-0.1589285791963338,-0.0009345416910946,0.0573275350034236,0.0134602598845958,standing,2026-03-04_13-52-45
1772632366131513600,0.915513671875,0.1015040527749806,0.1500676657401025,-0.0950543651789426,0.0127124078571796,0.0391883626580238,0.0229645930230617,standing,2026-03-04_13-52-45
1772632366141461500,0.92546142578125,0.0092711747575551,0.0581073210537433,0.0238280348330736,0.026879359036684,0.0046809865161776,0.0143082542344927,standing,2026-03-04_13-52-45
1772632366151410700,0.93541064453125,-0.0588246755428612,-0.0408165790349245,0.094652798640728,0.0421137139201164,-0.0321738198399543,-0.0037951227277517,standing,2026-03-04_13-52-45
1772632366161358600,0.945358642578125,-0.0833246913533657,-0.1049285473309457,0.092961192291975,0.0479521602392196,-0.0555470511317253,-0.0233802758157253,standing,2026-03-04_13-52-45
1772632366171307500,0.9553076171875,-0.0829874222230166,-0.0872194337695837,0.1126788691967725,0.0455616936087608,-0.0571010820567607,-0.0314399823546409,standing,2026-03-04_13-52-45
1772632366181255700,0.965255615234375,-0.0323631504010409,-0.038356472531706,0.0593050064057111,0.0347844138741493,-0.0424582250416278,-0.0294950772076845,standing,2026-03-04_13-52-45
1772632366191204600,0.97520458984375,0.0109264676839113,-0.0035536008283495,0.0259773218214511,0.0128216575831174,-0.0135928075760602,-0.0232413653284311,standing,2026-03-04_13-52-45
1772632366201152500,0.985152587890625,-0.0046166269499808,0.0016714403435587,0.0366927771031856,-0.0084977447986602,0.0123418532311916,-0.0208338685333728,standing,2026-03-04_13-52-45
1772632366211101400,0.995101318359375,-0.0412819315243512,-0.0188058227568864,0.0219382755637168,-0.0285092145204544,0.0248055830597877,-0.0250465646386146,standing,2026-03-04_13-52-45
1772632366221049600,1.005049560546875,-0.0660183133739978,-0.0460391359888017,0.0020189386069774,-0.0406210049986839,0.0387613475322723,-0.0313651822507381,standing,2026-03-04_13-52-45
1772632366230998500,1.01499853515625,-0.0845489724513143,-0.0415561453558504,-0.025807810473442,-0.0370704680681228,0.0394547171890735,-0.035709336400032,standing,2026-03-04_13-52-45
1772632366240946400,1.024946533203125,-0.0616788959302008,-0.0523107636041939,-0.0478016156166791,-0.0194632466882467,0.0285328235477209,-0.0386675745248794,standing,2026-03-04_13-52-45
1772632366250895600,1.0348955078125,0.0114593324515968,-0.0390920933298766,-0.0802215377062559,0.0033101241569966,0.0057471976615488,-0.0356840826570987,standing,2026-03-04_13-52-45
1772632366260843500,1.044843505859375,0.0581866699002683,0.0069714464478194,-0.0627022476285696,0.0291803367435932,-0.0080122901126742,-0.0260218642652034,standing,2026-03-04_13-52-45
1772632366270792400,1.05479248046875,0.0458075191900134,0.0568839167386293,-0.0347065717220306,0.0435232669115066,-0.0193787962198257,-0.0148207684978842,standing,2026-03-04_13-52-45
1772632366280740600,1.06474072265625,0.0012958850294351,0.041911242403835,0.023450433692336,0.045109711587429,-0.0316682197153568,-0.015655668452382,standing,2026-03-04_13-52-45
1772632366290689500,1.074689453125,-0.014366086743772,0.018523206423223,0.0824433054089546,0.0404317453503608,-0.0340065583586692,-0.0228163450956344,standing,2026-03-04_13-52-45
1772632366300637400,1.084637451171875,-0.0545950020838528,0.0130440443597733,0.0879722979635,0.0297982767224311,-0.022389318794012,-0.030609019100666,standing,2026-03-04_13-52-45
1772632366310586400,1.09458642578125,-0.1049132766965776,0.0170047646842896,0.0930757585823535,0.0124103501439094,-0.0084511963650584,-0.0409322567284107,standing,2026-03-04_13-52-45
1772632366320534500,1.104534423828125,-0.0948148573346435,0.0060999243102967,0.0866390035331249,-0.0066381758078932,-0.0022521563805639,-0.0477664619684219,standing,2026-03-04_13-52-45
1772632366330483500,1.1144833984375,-0.0294473360195755,0.0126617670439183,0.0753460406243801,-0.018714178353548,0.0024370867758989,-0.0448273159563541,standing,2026-03-04_13-52-45
1772632366340431400,1.124431396484375,0.0506894460126757,0.0416607747741043,0.0355640653342008,-0.0189322922378778,0.0059900092892348,-0.0326151251792907,standing,2026-03-04_13-52-45
1772632366350380500,1.134380615234375,0.1093757359981536,0.0858696265958249,-0.0165764562696218,-0.0107519458979368,0.0058934176340699,-0.0159326437860727,standing,2026-03-04_13-52-45
1772632366360328400,1.144328369140625,0.1185001226961612,0.0897672185562551,-0.037633857345581,0.0022501382045447,0.0018118561711162,-0.0030501352157443,standing,2026-03-04_13-52-45
1772632366370277600,1.154277587890625,0.0795369164429605,0.0626325433932244,-0.0461433270156383,0.0122426617890596,-0.0050871632993221,-0.002065951237455,standing,2026-03-04_13-52-45
1772632366380225500,1.1642255859375,0.0030897827088832,0.0077963529646396,-0.0004261164575815,0.0173657853156328,-0.0113631691783666,-0.0081014735624194,standing,2026-03-04_13-52-45
1772632366390174700,1.1741748046875,-0.0268888106431812,-0.0280998669333755,0.0087502926886081,0.0177772678434848,-0.012984275817871,-0.0147245768457651,standing,2026-03-04_13-52-45
1772632366400122600,1.18412255859375,-0.0464740202747285,-0.0273009716406464,0.0404471612006425,0.011512448079884,-0.0103072663769125,-0.0149717181921005,standing,2026-03-04_13-52-45
1772632366410071600,1.194071533203125,-0.016033435434103,-0.0242122118450701,0.0352910936117172,0.0032173267100006,-0.0015791926998645,-0.0121255256235599,standing,2026-03-04_13-52-45
1772632366420019700,1.204019775390625,0.024523762012273,-0.0072761284828186,0.0232996270447969,-0.0032187341712415,0.0103019680827856,-0.0056489850394427,standing,2026-03-04_13-52-45
1772632366429968600,1.21396875,0.0095050565786659,-0.0041107963196933,0.0093511811912059,-0.003449136391282,0.0184590052813291,-0.0038254321552813,standing,2026-03-04_13-52-45
1772632366439916500,1.22391650390625,0.0055539078000932,0.0116197106450796,-0.0033428806871175,0.0019530858844518,0.0211059208959341,-0.0024773399345576,standing,2026-03-04_13-52-45
1772632366449865500,1.233865478515625,0.0014110358417034,-0.0051813481606543,0.001292377898097,0.0009287185966968,0.0107822893187403,-0.0083469897508621,standing,2026-03-04_13-52-45
1772632366459813600,1.243813720703125,-0.0507999937150627,-0.0346168476119637,0.0072942486613988,0.0078007392585277,0.0042399670928716,-0.015909569337964,standing,2026-03-04_13-52-45
1772632366469762600,1.253762451171875,-0.0539342731527984,-0.036168899359554,-0.029328970336914,0.0148014947772026,0.006514698266983,-0.0212193205952644,standing,2026-03-04_13-52-45
1772632366479710500,1.26371044921875,-0.0161903064962476,-0.0017405600570142,-0.0002045826613903,0.0162960607558488,0.0086430963128805,-0.0201359465718269,standing,2026-03-04_13-52-45
1772632366489659600,1.27365966796875,0.013790771073848,0.0370744698971509,0.0668400780856609,0.0054033072665333,0.0024866727180778,-0.0127317775040864,standing,2026-03-04_13-52-45
1772632366499607600,1.283607666015625,0.0401390450995415,0.0575238220773637,0.1353846220016479,-0.0061742523685097,-0.007364360615611,-0.0058714747428894,standing,2026-03-04_13-52-45
1772632366509556500,1.293556396484375,0.0798654177449643,0.0708311935484409,0.0899514890819788,-0.0120199406519532,0.001437398372218,0.0046563684009015,standing,2026-03-04_13-52-45
1772632366519504600,1.303504638671875,0.0262348037138581,0.094117376589775,0.0240133282721042,-0.0073508862406015,0.0321617573499679,0.0089003816246986,standing,2026-03-04_13-52-45
1772632366529453600,1.31345361328125,-0.0344373993918299,0.1056510163865983,-0.0171229842364788,0.0008258461020886,0.05202591791749,0.0063423966057598,standing,2026-03-04_13-52-45
1772632366539401500,1.3234013671875,-0.0542470654290169,0.0503334721818566,0.0294359378427267,0.0058349855244159,0.0468482002615928,0.0035122549161314,standing,2026-03-04_13-52-45
1772632366549350400,1.333350341796875,-0.0136931559182703,-0.0064672963179647,0.0984738182336091,0.0063327644020318,0.0266447681933641,0.0008005292620509,standing,2026-03-04_13-52-45
1772632366559298600,1.343298583984375,0.0330092662848532,-0.0224910871408879,0.2094663417786359,0.0016637104563415,-0.0008108248002827,-0.0036860981490463,standing,2026-03-04_13-52-45
1772632366569247500,1.35324755859375,0.0582127541895955,-0.0163917473524808,0.2882826888620853,-0.0143004041165113,-0.0382492244243621,-0.003608409082517,standing,2026-03-04_13-52-45
1772632366579195400,1.3631953125,0.0463481288727372,-0.025156945349276,0.2714350144356489,-0.0313736647367477,-0.0586303956806659,-0.0096143698319792,standing,2026-03-04_13-52-45
1772632366589143600,1.3731435546875,-0.0123339233290404,-0.0191508368022739,0.1672270364642143,-0.0447958111763,-0.0590223111212253,-0.0153501667082309,standing,2026-03-04_13-52-45
1772632366599092500,1.383092529296875,-0.0465626484062522,0.0179505211018025,0.0504939234405756,-0.0556639060378074,-0.0469691082835197,-0.0144984880462288,standing,2026-03-04_13-52-45
1772632366609041400,1.39304150390625,-0.0445692095667123,0.0723546037234365,-0.0951958194762468,-0.0484106056392192,-0.0227689426392316,-0.0055364808067679,standing,2026-03-04_13-52-45
1772632366618989600,1.402989501953125,-0.03549100009799,0.1307642687246203,-0.2551601714611053,-0.0266816094517707,0.0137682948261499,0.004304698202759,standing,2026-03-04_13-52-45
1772632366628937500,1.4129375,-0.0446806340519338,0.163494718068093,-0.3334861046791076,-0.0053416327573359,0.0393111519515514,0.0183723904192447,standing,2026-03-04_13-52-45
1772632366638886400,1.422886474609375,-0.0429923156388104,0.113493838841468,-0.2813140188932418,0.0084519432857632,0.0395369865000247,0.0221431590616703,standing,2026-03-04_13-52-45
1772632366648834600,1.43283447265625,-0.0307803381890058,0.038601825594902,-0.1853226651251316,0.018605887889862,0.0292521324008703,0.0244819987565279,standing,2026-03-04_13-52-45
1772632366658783500,1.442783447265625,-0.0458246895205229,-0.039134178905934,-0.0873451059758663,0.0292241778224706,0.0224365722388029,0.0195546168833971,standing,2026-03-04_13-52-45
1772632366668731400,1.4527314453125,-0.07297755792737,-0.0429815019838511,0.0014800094246864,0.0290416404604911,0.0105548724532127,0.0106188617646694,standing,2026-03-04_13-52-45
1772632366678680600,1.4626806640625,-0.0717738812260329,-0.0667974079877138,0.0875157863676548,0.0162805709987878,0.0007911911234259,0.0020016720518469,standing,2026-03-04_13-52-45
1772632366688628500,1.47262841796875,-0.0578005931921303,-0.1135882391266524,0.1399058988183736,0.0002107112668454,0.0030886048916727,-0.0061703072860836,standing,2026-03-04_13-52-45
1772632366698577700,1.48257763671875,-0.0462702413309365,-0.1118994092568755,0.1467676012814044,-0.0165717303752899,0.0121188508346676,-0.0071543455123901,standing,2026-03-04_13-52-45
1772632366708525600,1.492525634765625,-0.0603920709900557,-0.0673106182068586,0.1398240657538175,-0.0293107386678457,0.0134565690532326,-0.0116211641579866,standing,2026-03-04_13-52-45
1772632366718474800,1.502474853515625,-0.0391475498441606,-0.0276845641307532,0.1062310082316398,-0.0318420752882957,0.0084226615726947,-0.0056162681430578,standing,2026-03-04_13-52-45
1772632366728422700,1.512422607421875,0.0176506613723933,-0.0078127195775508,0.0512333436310291,-0.0263492446392774,0.0013686658348888,-0.0018749691080302,standing,2026-03-04_13-52-45
1772632366738371600,1.52237158203125,0.0260404501855373,0.0135742057137191,-0.0010877952367067,-0.0093510877341032,-0.0004635888617485,-0.0005612317472696,standing,2026-03-04_13-52-45
1772632366748319700,1.53231982421875,-0.0369292892728,0.0091853231050074,-0.0866916105031967,0.0092053152620792,0.0060404408723115,-0.0066207498311996,standing,2026-03-04_13-52-45
1772632366758268700,1.5422685546875,-0.0630211043193936,0.0058363049380481,-0.0960106429904699,0.0204031094908714,0.0058324476704001,-0.0115667721256613,standing,2026-03-04_13-52-45
1772632366768216600,1.552216552734375,-0.066975614098832,0.0018333529070019,-0.0393020828187465,0.0226918663829565,0.0003637536428868,-0.0131509155035018,standing,2026-03-04_13-52-45
1772632366778165500,1.56216552734375,-0.0139189274981617,0.017985007893294,0.0351642523616552,0.0124006122350692,-0.004260825458914,-0.0149272438138723,standing,2026-03-04_13-52-45
1772632366788113700,1.57211376953125,-0.0044930005703121,0.0315139131605625,0.1010842929929494,-0.0045250533148646,-0.0008928561583161,-0.0060819284990429,standing,2026-03-04_13-52-45
1772632366798062600,1.5820625,-0.0086491704016923,0.0522379906289279,0.1425596281975507,-0.0240683946758508,-0.0137255638837814,-0.0061061633750796,standing,2026-03-04_13-52-45
1772632366808010500,1.592010498046875,0.0020912001255899,0.0569464605808258,0.117213590016961,-0.035946674644947,-0.0178513992577791,-0.0032169807236641,standing,2026-03-04_13-52-45
1772632366817959400,1.60195947265625,0.0007053717903792,0.0512630081169307,-0.0088379709720611,-0.0302957147359848,0.0063607301563024,0.0017269116360694,standing,2026-03-04_13-52-45
1772632366827907600,1.611907470703125,-0.0275174639355391,0.097717885299772,-0.1482137084364891,-0.0116145340725779,0.036686360836029,0.0094392839819192,standing,2026-03-04_13-52-45
1772632366837856500,1.6218564453125,-0.0446731813978403,0.1251677638918161,-0.1183119066476821,0.0017787688411772,0.0313493907451629,0.0117687527090311,standing,2026-03-04_13-52-45
1772632366847804700,1.6318046875,-0.0563391423374414,0.0488647148035466,-0.031882161951065,0.0092036183923482,-0.0017470327438786,0.0028920047916471,standing,2026-03-04_13-52-45
1772632366857753600,1.641753662109375,0.0043974312413483,-0.0017696400210261,0.0241027601212263,0.0132678681984543,-0.0189707614481449,0.0011894458439201,standing,2026-03-04_13-52-45
1772632366867701500,1.651701416015625,0.0195593445379287,0.0250843185044825,0.0451046316176652,0.0099548613652586,-0.0103360507637262,0.0091105131432414,standing,2026-03-04_13-52-45
1772632366877650400,1.661650390625,0.0038956922642886,0.0599614244878292,0.073203183376789,-0.000216017011553,-0.0103855859488248,0.0125284139066934,standing,2026-03-04_13-52-45
1772632366887598600,1.6715986328125,-0.0135563777960836,0.0266802093937993,0.1114291613966226,-0.0099790412932634,-0.0180029906332492,0.0069472631439566,standing,2026-03-04_13-52-45
1772632366897547500,1.681547607421875,-0.0470897410202771,-0.0432585653595626,0.0558095655053854,-0.0142691284418106,-0.0057495208457112,0.0034590552095323,standing,2026-03-04_13-52-45
1772632366907495400,1.691495361328125,-0.1074267208222299,0.0116914607070386,-0.0496750082731246,-0.0060238149017095,0.0147998388856649,-0.0029214033856987,standing,2026-03-04_13-52-45
1772632366917444400,1.7014443359375,-0.1246459319747984,0.0364303267747163,-0.0555494532644748,-0.0015060286968946,0.0138288494199514,-0.0045800199732184,standing,2026-03-04_13-52-45
1772632366927392500,1.711392578125,-0.0468333551064133,0.0201909935049712,-0.0084556936562061,0.0005201352760195,0.0007958314381539,-0.0044954190962016,standing,2026-03-04_13-52-45
1772632366937341400,1.721341552734375,-0.0279418268274515,0.0051627895906567,0.0382581267237663,-0.0006271544843912,-0.0062082819640636,-0.0050248554907739,standing,2026-03-04_13-52-45
1772632366947289300,1.731289306640625,-0.0627120383702218,0.0169048114411532,0.0759837540060281,-0.0081810476258397,-0.0169057920575141,-0.0098894424736499,standing,2026-03-04_13-52-45
1772632366957238500,1.741238525390625,-0.0843248083066195,0.0001835398733615,0.0825385824769735,-0.0152671877294778,-0.031633872538805,-0.0158479996025562,standing,2026-03-04_13-52-45
1772632366967186400,1.7511865234375,-0.0212322461862117,-0.0121716454394161,0.0117436292856931,-0.0129209253937006,-0.0150239737704396,-0.015155591070652,standing,2026-03-04_13-52-45
1772632366977135600,1.761135498046875,-0.0308623904492706,0.0252883166439831,-0.119041389966011,-0.0050416970625519,0.0160503219813108,-0.0107525866478681,standing,2026-03-04_13-52-45
1772632366987083500,1.77108349609375,-0.0596880874391645,0.0824111567050218,-0.1668207937508821,0.0046593993902206,0.0344293303787708,-0.0078726448118686,standing,2026-03-04_13-52-45
1772632366997032700,1.78103271484375,-0.0420621221166104,0.0838150321535766,-0.1114046114772558,0.0113958660513162,0.0265090893954038,-0.0067746229469776,standing,2026-03-04_13-52-45
1772632367006980600,1.790980712890625,0.0016292086370289,0.0567681814044713,-0.0372621014237403,0.0141149368137121,0.0105428760871291,-0.0007566647836938,standing,2026-03-04_13-52-45
1772632367016929500,1.800929443359375,0.0049689475189894,0.0479341559551656,0.0166167882800102,0.0140680652111768,0.0004654752556234,0.0010617414955049,standing,2026-03-04_13-52-45
1772632367026877700,1.810877685546875,-0.0463393610443919,0.0463712905526161,0.04446165753901,0.0144474077969789,0.0027733761817216,-0.0043830405920743,standing,2026-03-04_13-52-45
1772632367036825600,1.82082568359375,-0.0446871368579566,0.0153835932232439,0.0597206014692783,0.0129624297842383,0.0108925551176071,-0.004521791357547,standing,2026-03-04_13-52-45
1772632367046774500,1.8307744140625,-0.0003969634283334,0.0019787527270615,0.0784913529127836,0.0125072486698627,0.0246027875691652,-0.0012036578264087,standing,2026-03-04_13-52-45
1772632367056722700,1.84072265625,0.0032458500534296,0.0277067759625613,0.1423030230879783,0.0083894692361354,0.0229154080152511,-0.0004481191281229,standing,2026-03-04_13-52-45
1772632367066671600,1.850671630859375,0.0031922201700508,-0.0148554776959121,0.2333130813121795,-0.0036998484283685,-0.0060769710689783,4.19598072767e-05,standing,2026-03-04_13-52-45
1772632367076619500,1.86061962890625,0.0420433443509042,-0.043063919570297,0.2825058590263128,-0.0191544368863105,-0.0445921383798122,-0.0015149241080507,standing,2026-03-04_13-52-45
1772632367086568700,1.870568603515625,0.0110666068069636,-0.0549621548958122,0.2291279045820236,-0.0347252935171127,-0.0634556859731674,-0.011109716258943,standing,2026-03-04_13-52-45
1772632367096516600,1.8805166015625,-0.0947166576571762,-0.0313473244220018,0.1245569385170936,-0.0463164299726486,-0.0614010579884052,-0.0268623158335685,standing,2026-03-04_13-52-45
1772632367106465500,1.890465576171875,-0.1518013576649129,-0.0208430276729166,-0.0351309346139431,-0.0523442476987838,-0.0468463823199272,-0.0355202369391918,standing,2026-03-04_13-52-45
1772632367116413700,1.90041357421875,-0.0606140431776642,0.0234168236836791,-0.1924339584350586,-0.0470735877752304,-0.0198997166007757,-0.0205181203782558,standing,2026-03-04_13-52-45
1772632367126362600,1.910362548828125,0.0550523904625326,0.1320695061042904,-0.333173969990015,-0.023485954850912,0.0151666086167097,0.0067431339994072,standing,2026-03-04_13-52-45
1772632367136310500,1.920310546875,0.0603979162089526,0.2211407052204012,-0.3949415671169757,0.0110187595710158,0.0430299341678619,0.031691625714302,standing,2026-03-04_13-52-45
1772632367146259500,1.930259521484375,0.0293836231335997,0.191957573094964,-0.3411725675284862,0.0430957376956939,0.0444923527538776,0.0441604629158973,standing,2026-03-04_13-52-45
1772632367156207600,1.94020751953125,-0.0002420651275664,0.0842027162969112,-0.198942025154829,0.0652854591608047,0.018281253054738,0.0407846421003341,standing,2026-03-04_13-52-45
1772632367166156500,1.950156494140625,-0.0341742184109985,-0.0069274611756205,-0.0094318452119827,0.0698350965976715,-0.0174008514732122,0.0232764352113008,standing,2026-03-04_13-52-45
1772632367176104400,1.9601044921875,-0.1001146442431956,-0.0874658097460865,0.1443167009979486,0.0559584312140941,-0.0354371108114719,0.0020363943185657,standing,2026-03-04_13-52-45
1772632367186053600,1.9700537109375,-0.0854579039897769,-0.1242386663481593,0.2277683066666126,0.0237300414592027,-0.0307010561227798,-0.0137300072237849,standing,2026-03-04_13-52-45
1772632367196001500,1.98000146484375,-0.0629481852136552,-0.1051379522979259,0.2520850017994642,-0.0120002590119838,-0.0171924382448196,-0.0155097981914877,standing,2026-03-04_13-52-45
1772632367205950500,1.989950439453125,-0.0279984523855149,-0.062038376892358,0.1771890430301427,-0.0362311601638793,0.0053365384228527,-0.0133121944963932,standing,2026-03-04_13-52-45
1772632367215898600,1.999898681640625,-0.0099131989881396,0.0125495388410985,0.0742611679971218,-0.0421580225229263,0.0302315019071102,-0.0070481738075613,standing,2026-03-04_13-52-45
1772632367225847600,2.00984765625,0.0100375560201704,0.0561862898632884,0.0130979665040969,-0.0347829945385456,0.0338845439255237,0.0050205877050757,standing,2026-03-04_13-52-45
1772632367235795500,2.01979541015625,0.0269086843874305,0.0486975415430963,-0.0079822309255599,-0.0197025798261165,0.0160339064896106,0.0082363551482558,standing,2026-03-04_13-52-45
1772632367245744400,2.029744384765625,-0.0069500383336097,0.0207280229911208,-0.010841127488017,0.0008909474126994,-0.0020680357702076,-0.0021509658545255,standing,2026-03-04_13-52-45
1772632367255692500,2.039692626953125,-0.0702343236338347,-0.0213077225752174,-0.0135141460895538,0.0185285303741693,-0.0123033635318279,-0.0131460931152105,standing,2026-03-04_13-52-45
1772632367265641500,2.049641357421875,-0.0805156252820044,0.0039436230592429,-0.0239800105243921,0.026025278493762,-0.0235084556043148,-0.0189682021737098,standing,2026-03-04_13-52-45
1772632367275589400,2.05958935546875,-0.0250884832229465,0.0115881464630365,-0.0389864409983158,0.0289893765002489,-0.0222114957869052,-0.0161849334836006,standing,2026-03-04_13-52-45
1772632367285538600,2.06953857421875,0.0272892812028527,0.0798380913466215,-0.0654676206886768,0.0288203507661819,-0.0036032618954777,-0.0067843752913177,standing,2026-03-04_13-52-45
1772632367295486500,2.079486572265625,0.05854008644782,0.1272860712200403,-0.0267243407964706,0.0172385293990373,0.0071069072000682,0.007750092074275,standing,2026-03-04_13-52-45
1772632367305435600,2.089435546875,0.0738357091266661,0.1261836629360914,0.0384551106005907,0.0014311955310404,0.0022518511395901,0.0190680380910635,standing,2026-03-04_13-52-45
1772632367315383600,2.099383544921875,0.0666341071847826,0.0915571707129478,0.0559042580515146,-0.011144783347845,0.0019277448300272,0.0232193749397993,standing,2026-03-04_13-52-45
1772632367325333200,2.109333251953125,0.0144559569843113,0.0683173110313713,0.0610638327717781,-0.0177868511527776,0.0110475569963455,0.0199867989867925,standing,2026-03-04_13-52-45
1772632367335281400,2.119281494140625,-0.0232017926935106,0.0511377743020653,0.0356441448330879,-0.0240577962249517,0.0098600536584854,0.0149339828640222,standing,2026-03-04_13-52-45
1772632367345230300,2.129230224609375,-0.0119999421343207,-0.0033791210442781,0.0076899699807167,-0.0183723792433738,0.0139191010966897,0.0148008810356259,standing,2026-03-04_13-52-45
1772632367355178200,2.13917822265625,0.026393866733089,0.0066045128315687,-0.030669863551855,-0.0018487954512238,0.0151143288239836,0.0241901203989982,standing,2026-03-04_13-52-45
1772632367365127400,2.14912744140625,0.0169538382146507,0.0392285791911184,-0.0373246452659368,0.0198400504887104,0.004791934043169,0.0251908227801322,standing,2026-03-04_13-52-45
1772632367375075300,2.159075439453125,0.0384228888314217,0.0123746206656098,0.0059060091733932,0.0344791784882545,-0.0154904341325163,0.0298739913851022,standing,2026-03-04_13-52-45
1772632367385024300,2.169024169921875,0.055635451047495,-0.0089637893088161,0.0444593194514513,0.0349928438663482,-0.0307255964726209,0.0337130539119243,standing,2026-03-04_13-52-45
1772632367394972400,2.178972412109375,0.0169867906361818,0.0041546354614198,0.1055190605700016,0.0213643833994865,-0.0359917320311069,0.0287364050745964,standing,2026-03-04_13-52-45
1772632367404921300,2.18892138671875,-0.0596536737129092,-0.0438845883034169,0.1390969205230474,-4.93447296321e-05,-0.0361099652945995,0.0180582944303751,standing,2026-03-04_13-52-45
1772632367414869200,2.198869140625,-0.0524290562216192,-0.0656654813483357,0.072897478428483,-0.0174792017787694,-0.0176334865391254,0.0117021286860108,standing,2026-03-04_13-52-45
1772632367424818200,2.208818115234375,-0.0569947567019611,-0.0167510821841657,-0.0066004211783409,-0.0250693652778863,0.0152469724416732,0.018041567876935,standing,2026-03-04_13-52-45
1772632367434766300,2.218766357421875,-0.0795469263803213,0.0613040712684392,-0.0502893407791852,-0.0254272948950529,0.0276197511702775,0.0239572469145059,standing,2026-03-04_13-52-45
1772632367444715300,2.22871533203125,-0.0543156006205826,0.0475160766735672,-0.0480506219416856,-0.0213666260242462,0.0121544245630502,0.0279581472277641,standing,2026-03-04_13-52-45
1772632367454663200,2.2386630859375,0.0010016513232141,0.0292889305874705,-0.0358346989691257,-0.0081474939361214,-0.0063982205465435,0.0305310264229774,standing,2026-03-04_13-52-45
1772632367464612400,2.2486123046875,-0.0346988268069922,0.0319382760524749,-0.0622995120465755,0.0141981914639472,-0.0179834309965372,0.0270951502025127,standing,2026-03-04_13-52-45
1772632367474560300,2.258560302734375,-0.0855816034346819,0.0307514043554663,-0.0849409674435854,0.0380707681179046,-0.0203941240906715,0.018214838579297,standing,2026-03-04_13-52-45
1772632367484508200,2.268508056640625,-0.0751347359612584,-0.0061392334073781,-0.0917892259031534,0.0499892868101596,-0.0106731560081243,0.0149012133479118,standing,2026-03-04_13-52-45
1772632367494457300,2.278457275390625,-0.0618750760894268,0.0067803077898919,-0.0355073667109012,0.0460808314383029,-0.0034578531049191,0.0145856272429227,standing,2026-03-04_13-52-45
1772632367504405200,2.2884052734375,-0.0607447568852454,0.0298785670436918,0.091651863259077,0.0232940483838319,-0.0080083180218935,0.0104025201871991,standing,2026-03-04_13-52-45
1772632367514354200,2.298354248046875,-0.0686275460243225,-0.0039539983227849,0.1632370900452137,-0.0040827146731317,-0.0095231244340538,0.0092554967850446,standing,2026-03-04_13-52-45
1772632367524302300,2.30830224609375,-0.0566308918256312,-0.0206745392382144,0.1613344712942838,-0.0256193298846483,-0.0024488940834999,0.0077637191861867,standing,2026-03-04_13-52-45
1772632367534251300,2.318251220703125,-0.0607917378321289,-0.0004962590843439,0.0732365011245012,-0.028145870193839,0.0201344452798366,0.0041402224451303,standing,2026-03-04_13-52-45
1772632367544199200,2.32819921875,-0.0854380302455276,0.0367125047169625,-0.0436328054994344,-0.0134895667433738,0.0499077513813972,0.0092017883434891,standing,2026-03-04_13-52-45
1772632367554148000,2.338148193359375,-0.0349321971714496,0.0322261530831456,-0.0708504827708005,0.0052327224984765,0.0453095398843288,0.0132394069805741,standing,2026-03-04_13-52-45
1772632367564096300,2.34809619140625,0.0285009220149368,0.0170174780353903,0.0207522806495428,0.0182090699672698,0.0081275254487991,0.0131808808073401,standing,2026-03-04_13-52-45
1772632367574045200,2.358045166015625,0.0064929422158747,-0.024051029933989,0.1161094281673431,0.0224110037088394,-0.0397249497473239,0.008371477946639,standing,2026-03-04_13-52-45
1772632367583993000,2.3679931640625,0.0049848026752471,-0.0557755171053111,0.1538520065844059,0.0182311628013849,-0.0688058957457542,0.0022968221455812,standing,2026-03-04_13-52-45
1772632367593942500,2.377942626953125,-0.0041527357652783,-0.0377257734127342,0.1006663598418235,0.0075819813646376,-0.0641131475567817,0.0029849829152226,standing,2026-03-04_13-52-45
1772632367603890200,2.38789013671875,-0.0374066975262016,-2.48421803116e-05,0.0374655150413513,-0.0089534725993871,-0.0451614037156105,0.0048135528340935,standing,2026-03-04_13-52-45
1772632367613839400,2.39783935546875,-0.0625678806591779,0.0288084535941481,-0.0026665888607501,-0.025143627077341,-0.0194163583219051,0.0042313854210078,standing,2026-03-04_13-52-45
1772632367623787500,2.40778759765625,-0.0277112329419702,0.0407620723687112,-0.0624976649671792,-0.0318266749382019,0.0043095890432596,0.0151878520846366,standing,2026-03-04_13-52-45
1772632367633736400,2.417736328125,-0.0063669777486473,0.0624199235558509,-0.1349661043286323,-0.0198784060776233,0.024851880967617,0.0273539721965789,standing,2026-03-04_13-52-45
1772632367643684400,2.427684326171875,-0.0021636808399111,0.093147654774785,-0.1677718108654022,0.0041667055338621,0.0260080005973577,0.0349733605980873,standing,2026-03-04_13-52-45
1772632367653633300,2.43763330078125,-0.0388881682556122,0.0653052697338163,-0.1223784254342317,0.025657083839178,-0.0062031992711126,0.0291911084204912,standing,2026-03-04_13-52-45
1772632367663581400,2.44758154296875,0.0141214643329381,-0.0093913670711219,0.0378074603468179,0.0340792760252952,-0.0438404604792594,0.0231900475919246,standing,2026-03-04_13-52-45
1772632367673530400,2.4575302734375,0.0215974262367933,-0.0395779771506786,0.1281768825799226,0.0337791368365287,-0.0495047383010387,0.0174733065068721,standing,2026-03-04_13-52-45
1772632367683478300,2.467478271484375,-0.0719724725380539,-0.0271568869948387,0.0934913536459207,0.0232371613383293,-0.0314935445785522,0.003159578423947,standing,2026-03-04_13-52-45
1772632367693427200,2.47742724609375,-0.0740790163632482,-0.0480322095021605,0.1133259349286556,0.0022613061591982,-0.024022314697504,-0.0082704424858093,standing,2026-03-04_13-52-45
1772632367703375400,2.487375244140625,-0.0072881842467933,-0.0573123712837696,0.1734410886734723,-0.0242801234126091,-0.028328089043498,-0.0042494004592299,standing,2026-03-04_13-52-45
1772632367713324300,2.49732421875,0.0476421872712671,-0.0155528123103082,0.1365244396865367,-0.0404444448649883,-0.0159763488918542,0.0013203346170485,standing,2026-03-04_13-52-45
1772632367723272400,2.5072724609375,0.0272102976825088,0.0286250598512589,0.0109393271654844,-0.0430112071335315,0.0055568772368133,0.0095396637916564,standing,2026-03-04_13-52-45
1772632367733221400,2.517221435546875,-0.0056144058156758,0.058246875654906,-0.0816623841643333,-0.0296312216669321,0.0217784568667411,0.0110680516809225,standing,2026-03-04_13-52-45
1772632367743169300,2.527169189453125,-0.0127859048802405,0.0716091921836137,-0.1368365743756294,-0.008787864819169,0.0241166297346353,0.0179374385625123,standing,2026-03-04_13-52-45
1772632367753118200,2.5371181640625,0.0124961281534284,0.0693248806387186,-0.1091799211651086,0.0119778662919998,0.0100865643471479,0.0192823335528373,standing,2026-03-04_13-52-45
1772632367763066400,2.54706640625,0.030056407828629,0.0443894690856337,-0.0327688816577196,0.0246454142034053,-0.0120264496654272,0.0183865465223789,standing,2026-03-04_13-52-45
1772632367773015300,2.557015380859375,0.0111835842501372,-0.0015844927124679,0.0164934541612863,0.0331422314047813,-0.0253760777413845,0.0156943574547767,standing,2026-03-04_13-52-45
1772632367782963200,2.566963134765625,0.0145849171262234,0.0032236382216215,0.015447744500637,0.0322459936141967,-0.0254452470690011,0.0180103797465562,standing,2026-03-04_13-52-45
1772632367792912100,2.576912109375,0.0076520491231232,0.0548779837436974,0.04647591997087,0.0225251913070678,-0.0171143468469381,0.0189952161163091,standing,2026-03-04_13-52-45
1772632367802860300,2.5868603515625,-0.0044117520276457,0.0586889203339815,0.0698228932887315,0.0042060194537043,-0.0131560377776622,0.0212297961115837,standing,2026-03-04_13-52-45
1772632367812809200,2.596809326171875,-0.0312727248158305,0.010134440523386,0.1053577325284481,-0.0196961164474487,-0.0056525818072259,0.0189927406609058,standing,2026-03-04_13-52-45
1772632367822757000,2.606757080078125,-0.052403702584654,0.0049935705035924,0.0629302111655473,-0.030577590689063,0.0041544917039573,0.0163027979433536,standing,2026-03-04_13-52-45
1772632367832706300,2.616706298828125,-0.051131782952696,0.0216832778893411,-0.0009130231916904,-0.029668653383851,0.0223295018076896,0.0159770920872688,standing,2026-03-04_13-52-45
1772632367842654200,2.626654296875,-0.0221801945608109,0.0400970325887203,-0.0586012420505285,-0.0149022620171308,0.0389975868165493,0.023870263248682,standing,2026-03-04_13-52-45
1772632367852603100,2.63660302734375,0.0078905340541154,0.0311691913761198,-0.0659586190760135,0.0050261728465557,0.0333596728742122,0.0259872116148471,standing,2026-03-04_13-52-45
1772632367862551300,2.64655126953125,0.020758271998912,0.0184114166118204,0.0118126028686761,0.0179821196943521,-0.0016129747964441,0.0241646580398082,standing,2026-03-04_13-52-45
1772632367872500200,2.656500244140625,0.0033977526795119,-0.0229851542681455,0.0974947440683841,0.0209629964083433,-0.0421553403139114,0.0122949481010437,standing,2026-03-04_13-52-45
1772632367882448100,2.6664482421875,-0.027376374964416,-0.0695617581345141,0.0781318719506263,0.0215738005936145,-0.0495860092341899,0.0050559150986373,standing,2026-03-04_13-52-45
1772632367892397300,2.676397216796875,-0.0547649518232792,-0.040023821222037,0.0027238720059394,0.0194818899035453,-0.0227517317980527,0.0014832844026386,standing,2026-03-04_13-52-45
1772632367902345200,2.68634521484375,-0.0452349799990653,0.0192525436110794,0.0116752402245998,0.008183435536921,-0.0063564842566847,0.0038018175400793,standing,2026-03-04_13-52-45
1772632367912294400,2.69629443359375,-0.0101051413636654,0.0214826407507061,0.0410655853599309,-0.0119801554828882,0.0018686889670789,0.0094668939709663,standing,2026-03-04_13-52-45
1772632367922242300,2.7062421875,0.037341011878848,0.0098955172009766,0.0184352358788251,-0.0202394779771566,0.0186328571289777,0.0204877089709043,standing,2026-03-04_13-52-45
1772632367932191500,2.71619140625,0.0106538612876087,0.0447378441318869,-0.0213625215023756,-0.0149240754544734,0.0389224179089069,0.029225006699562,standing,2026-03-04_13-52-45
1772632367942139400,2.726139404296875,-0.0204436530917882,0.0777322051085531,-0.0137286656230688,-0.0086715472862124,0.0221243016421794,0.0256255641579628,standing,2026-03-04_13-52-45
1772632367952087300,2.73608740234375,-0.0553633561078459,0.0344790465764701,0.0559299770146608,-0.0021028602495789,-0.018625259399414,0.0103352926671504,standing,2026-03-04_13-52-45
1772632367962036500,2.746036376953125,-0.0476836883254349,-0.0232199859373271,0.0022819734573364,0.0113073233515024,-0.0240127108991146,0.0015309401787817,standing,2026-03-04_13-52-45
1772632367971984400,2.755984375,-0.0245178437281399,0.0172733524926006,-0.0663701224863529,0.0259821396321058,0.0060477210208773,0.0070356940850615,standing,2026-03-04_13-52-45
1772632367981933300,2.765933349609375,0.0160541859611868,0.1144591767422854,-0.0596136339634656,0.0218626782298088,0.0221954360604286,0.0156128657981753,standing,2026-03-04_13-52-45
1772632367991881500,2.775881591796875,0.0479543219603598,0.1007661669544875,0.0675175389558076,0.0052277739159762,0.0097611369565129,0.0238369740545749,standing,2026-03-04_13-52-45
1772632368001830400,2.785830322265625,0.0673605948284268,0.0662790832020342,0.1539087052077055,-0.0116665214300155,0.0007205042056739,0.0313998199999332,standing,2026-03-04_13-52-45
1772632368011778300,2.7957783203125,0.0161612265322357,0.0751912884540855,0.1773205604553222,-0.0243279859423637,-0.0088463686406612,0.0313295125961303,standing,2026-03-04_13-52-45
1772632368021727200,2.805727294921875,-0.0841951905775815,0.0738226304493844,0.1446948866605758,-0.0220935847610235,-0.0230808183550834,0.0189122501760721,standing,2026-03-04_13-52-45
1772632368031675400,2.81567529296875,-0.0792350839521735,0.032203064468503,0.0073041855335235,-0.0072384718805551,-0.0135155413299798,0.0174869261682033,standing,2026-03-04_13-52-45
1772632368041624300,2.825624267578125,-0.0350985667143017,0.0602355652540922,-0.1225590426981449,0.0180470887571573,0.023702472448349,0.0269348919391632,standing,2026-03-04_13-52-45
1772632368051572200,2.835572265625,-0.0333455125018954,0.1286949151046574,-0.1126969893753528,0.0357214249670505,0.0410409830510616,0.0379606448113918,standing,2026-03-04_13-52-45
1772632368061521400,2.845521484375,-0.0090864658404141,0.0871739871926605,0.0551303510695695,0.0312553010880947,0.0057692788541316,0.037303376942873,standing,2026-03-04_13-52-45
1772632368071469300,2.85546923828125,0.0342509369090199,-0.0344753933146595,0.2521124743282795,0.005222903098911,-0.03485644236207,0.0304838195443153,standing,2026-03-04_13-52-45
1772632368081418200,2.865418212890625,0.0029948709670454,-0.1000586032070219,0.3500380110293626,-0.0254205949604511,-0.0602388903498649,0.0191805064678192,standing,2026-03-04_13-52-45
1772632368091366400,2.875366455078125,-0.0921669731743633,-0.1087830308020114,0.2831213605761528,-0.049733392894268,-0.0707399994134903,0.0003583505749702,standing,2026-03-04_13-52-45
1772632368101315300,2.8853154296875,-0.1690903461180627,-0.1042822122514247,0.096944708970189,-0.0616144463419914,-0.045799758285284,-0.0154000557959079,standing,2026-03-04_13-52-45
1772632368111263200,2.89526318359375,-0.142980118631944,-0.0448569404669106,-0.1142594163864851,-0.0575254261493682,-0.0011683742050081,-0.0073029808700084,standing,2026-03-04_13-52-45
1772632368121212200,2.905212158203125,-0.0667864482022821,0.0655129211351275,-0.2229816569119691,-0.0423513390123844,0.0392217114567756,0.0126544050872325,standing,2026-03-04_13-52-45
1772632368131160300,2.915160400390625,-0.0191753136564046,0.1150821309462189,-0.2145733095288276,-0.0242777969688177,0.0476865693926811,0.0324624627828598,standing,2026-03-04_13-52-45
1772632368141109200,2.925109130859375,-0.0141966484609991,0.0783700646206736,-0.0793494310468435,-0.0088650193065404,0.0068853432312607,0.0330134704709053,standing,2026-03-04_13-52-45
1772632368151057200,2.93505712890625,-0.0275225054368376,-0.026697452789545,-0.0115969142913818,0.0064593418501317,-0.0276215001940727,0.0211677327752113,standing,2026-03-04_13-52-45
1772632368161006300,2.94500634765625,-0.0803106772944331,-0.0806507229037582,-0.0809931066006422,0.0277658402919769,-0.0295484513044357,0.0046552899293601,standing,2026-03-04_13-52-45
1772632368170954200,2.954954345703125,-0.1236230917330831,-0.0526139843344688,-0.1308645142287015,0.0393149033188819,-0.0204068850725889,-0.0125218331813812,standing,2026-03-04_13-52-45
1772632368180903200,2.964903076171875,-0.1028491107083857,-0.0379646967351436,-0.1168260520040988,0.036413051187992,-0.0070536937564611,-0.0167630612850189,standing,2026-03-04_13-52-45
1772632368190851300,2.974851318359375,-0.003622720541805,-0.0087543843418359,-0.0430056135118007,0.022604826837778,0.0066429432481527,-0.004317311104387,standing,2026-03-04_13-52-45
1772632368200800300,2.98480029296875,0.0885609115064144,0.0379302099436521,0.0629834026575088,-0.0009251073934137,0.0087092844769358,0.0082194693386554,standing,2026-03-04_13-52-45
1772632368210748200,2.994748046875,0.0446885250974446,0.0481045440860092,0.1343219612061977,-0.0242956764996051,-0.002316468860954,0.0066005336120724,standing,2026-03-04_13-52-45
1772632368220697300,3.004697265625,-0.0256044699210673,-0.0109684071294963,0.0392716876804828,-0.0330365523695945,0.0107463020831346,-0.0006403706502169,standing,2026-03-04_13-52-45
1772632368230645200,3.014645263671875,-0.0743920278351753,-0.0099473935186862,-0.1009124435573816,-0.0195460449904203,0.0429508425295352,-0.0010571553139016,standing,2026-03-04_13-52-45
1772632368240594400,3.024594482421875,-0.0688006375689059,0.0410743531882762,-0.1597796430677175,0.0041331034153699,0.0591659657657146,-0.001063632662408,standing,2026-03-04_13-52-45
1772632368250542300,3.034542236328125,-0.0077399466022849,0.0540128913469612,-0.110208679690957,0.0191338900476694,0.0400865450501441,0.0044280719012022,standing,2026-03-04_13-52-45
1772632368260491300,3.0444912109375,0.0680083181474357,0.0376427713043987,0.0185913032233715,0.0304569453001022,0.010830633342266,0.0137382810935378,standing,2026-03-04_13-52-45
1772632368270439400,3.054439453125,0.1035233567081391,0.0362532166421413,0.1222615210562944,0.0365412048995494,-0.0137378256767988,0.0222769081592559,standing,2026-03-04_13-52-45
1772632368280388400,3.064388427734375,0.0348169002287089,0.0325409181207418,0.2411205401927232,0.0255008749663829,-0.0466085225343704,0.0163914673030376,standing,2026-03-04_13-52-45
1772632368290336300,3.074336181640625,-0.0317100933197885,-0.015412380926311,0.2732517084687948,0.006245422642678,-0.0710499510169029,-0.002404058817774,standing,2026-03-04_13-52-45
1772632368300285400,3.084285400390625,-0.0730573451653122,-0.0638216070473194,0.1221691665977239,-0.0034534516744315,-0.0368454009294509,-0.0122278630733489,standing,2026-03-04_13-52-45
1772632368310233300,3.0942333984375,-0.1240346682086586,0.0302653744041919,-0.0500455951511859,-0.0086647253483533,0.0190847106277942,-0.009869635105133,standing,2026-03-04_13-52-45
1772632368320182300,3.104182373046875,-0.1005863534081727,0.1193685760937631,-0.0757511142939329,-0.0183754563331604,0.0410217121243476,-0.0045996704138815,standing,2026-03-04_13-52-45
1772632368330129400,3.11412939453125,0.0019114596445113,0.0781942696623504,0.004940379011631,-0.0283460654318332,0.0369183123111724,0.0074292952194809,standing,2026-03-04_13-52-45
1772632368340078300,3.124078369140625,0.0452984736893326,0.038399434890598,0.0792173290997743,-0.0311547107994556,0.0248044654726982,0.0146583151072263,standing,2026-03-04_13-52-45
1772632368350026500,3.134026611328125,0.0091333737220615,0.0288578456938266,0.1048147116929292,-0.0252430252730846,-0.0045196004211902,0.0097035057842731,standing,2026-03-04_13-52-45
1772632368359975400,3.143975341796875,-0.0117919254068285,-0.0165307174317538,0.0693956077873706,-0.0125381918624043,-0.0314063020050525,0.0027591325342655,standing,2026-03-04_13-52-45
1772632368369923300,3.15392333984375,0.0143871295318007,-0.015802987679094,-0.0373468570977449,0.0093314219266176,-0.0297298412770032,0.0018954691477119,standing,2026-03-04_13-52-45
1772632368379872300,3.163872314453125,-0.0086045275423675,0.0376953782744705,-0.1225683950483799,0.0278437566012144,-0.0100073246285319,0.0053951488807797,standing,2026-03-04_13-52-45
1772632368389820400,3.1738203125,-0.0271446851003915,0.0650543637126684,-0.1368997027397155,0.0351368226110935,-6.0417689383e-05,0.011845058761537,standing,2026-03-04_13-52-45
1772632368399769300,3.183769287109375,0.0064638622518628,0.0338179523192346,-0.0672936670720577,0.0276094935834407,0.0014437900390475,0.0155700026080012,standing,2026-03-04_13-52-45
1772632368409717200,3.19371728515625,0.0108114630021154,0.0184739604540169,0.0447118329077959,0.0096150478348135,-0.0019879592582583,0.0147769125178456,standing,2026-03-04_13-52-45
1772632368419666200,3.203666259765625,-0.0849677093200385,-0.0143828917481005,0.1208054770290851,-0.0127419605851173,-0.0149376867339015,0.0006558625027537,standing,2026-03-04_13-52-45
1772632368429614300,3.2136142578125,-0.1214811112683266,-0.065790715163201,0.1195464168787002,-0.0293827224522829,-0.0212411228567361,-0.010390929877758,standing,2026-03-04_13-52-45
1772632368439563300,3.223563232421875,-0.0928071707740426,-0.0511579403072595,0.0041144495815038,-0.0294285453855991,-0.0111019648611545,-0.0132325096055865,standing,2026-03-04_13-52-45
1772632368449511200,3.23351123046875,-0.0795652657546103,0.0039554596275091,-0.1418681388020515,-0.0098332725465297,0.0206956453621387,-0.0085823638364672,standing,2026-03-04_13-52-45
1772632368459460400,3.24346044921875,-0.0887797418888658,0.0709672410182654,-0.251874573919177,0.0200086086988449,0.0457633957266807,-0.0025550173595547,standing,2026-03-04_13-52-45
1772632368469408300,3.253408203125,-0.0262543121319264,0.092242084237188,-0.2006856539517641,0.0449720174074173,0.0344609394669532,0.0041313813999295,standing,2026-03-04_13-52-45
1772632368479356400,3.2633564453125,0.0085498747456818,0.051169192353636,-0.063048284587264,0.0548523180186748,0.0053709158673882,0.0040414314717054,standing,2026-03-04_13-52-45
1772632368489305300,3.273305419921875,-0.0262307851258665,0.0024453473255038,0.0762105484992265,0.0478173121809959,-0.0122160669416189,-0.0041091730818152,standing,2026-03-04_13-52-45
1772632368499253200,3.283253173828125,-0.0760913060337305,-0.0255080968745052,0.1704910066962242,0.0242401137948036,-0.0170353632420301,-0.012603678740561,standing,2026-03-04_13-52-45
1772632368509202200,3.2932021484375,-0.1231605157226324,-0.0359771761797368,0.200458274936676,-0.0016759075224399,-0.0148678170517086,-0.0205649342387914,standing,2026-03-04_13-52-45
1772632368519150300,3.303150390625,-0.0966666226811707,-0.0339561917461454,0.17631752089262,-0.0209212806075811,0.0084672253578901,-0.0234463792294263,standing,2026-03-04_13-52-45
1772632368529099300,3.313099365234375,-0.0480949725400656,0.0211203833095729,0.0901052183389663,-0.0234286468476057,0.0428859181702137,-0.0111332535743713,standing,2026-03-04_13-52-45
1772632368539047200,3.323047119140625,-0.0039974721383303,0.071913581957668,0.0422352136611938,-0.0133025739341974,0.0569830797612667,-0.0004168455488979,standing,2026-03-04_13-52-45
1772632368548996000,3.33299609375,0.0022992168530821,0.0518009143859148,0.1010790322959423,-0.0047943061217665,0.028245972469449,-0.0007036678725853,standing,2026-03-04_13-52-45
1772632368558944300,3.3429443359375,0.0070209116127341,-0.0158361592963337,0.1959638861268758,0.002944856416434,-0.0267954114824533,-0.0104955919086933,standing,2026-03-04_13-52-45
1772632368568893200,3.35289306640625,-0.0090429920248687,-0.0843980927385389,0.2241103686809539,-0.0006560035981237,-0.0676192715764045,-0.0287704691290855,standing,2026-03-04_13-52-45
1772632368578841000,3.362841064453125,-0.0981983622930944,-0.0948868996575474,0.1820984423816204,-0.0151503216475248,-0.0807502716779708,-0.0467863753437995,standing,2026-03-04_13-52-45
1772632368588790300,3.372790283203125,-0.1202826221987605,-0.0725087713718414,0.0678109689444303,-0.0326171964406967,-0.0636312067508697,-0.055532194674015,standing,2026-03-04_13-52-45
1772632368598738200,3.38273828125,-0.0276656402345746,-0.0047695524893701,-0.0870814866036176,-0.0447800457477569,-0.021511286497116,-0.0363152101635932,standing,2026-03-04_13-52-45
1772632368608687400,3.392687255859375,0.0520402760997414,0.120355249043554,-0.2255886245399713,-0.0409687981009483,0.021941116079688,-0.0065005901269614,standing,2026-03-04_13-52-45
1772632368618635300,3.40263525390625,0.0945337753709405,0.1830002135269343,-0.2838783164232969,-0.0213191043585538,0.0466967746615409,0.0200610421597957,standing,2026-03-04_13-52-45
1772632368628584400,3.41258447265625,0.0863246038217097,0.1356600779421627,-0.2938017445445061,0.0098958071321249,0.0512302741408348,0.0304769333451986,standing,2026-03-04_13-52-45
1772632368638532400,3.422532470703125,0.0057666007027029,0.044093262618035,-0.2448977206438779,0.0430266931653022,0.0331127643585205,0.0217399634420871,standing,2026-03-04_13-52-45
1772632368648481300,3.432481201171875,-0.0923821502950042,-0.0564909718982875,-0.1153799448490142,0.0621686950325965,0.0012650862336158,1.78904738277e-05,standing,2026-03-04_13-52-45
1772632368658429400,3.442429443359375,-0.0790550512101501,-0.1237719256192445,0.025640052691102,0.0674691274762153,-0.0240289531648159,-0.0160619020462036,standing,2026-03-04_13-52-45
1772632368668378400,3.45237841796875,-0.0157577602978795,-0.1175625495851039,0.102627430781722,0.0545149818062782,-0.0285123847424983,-0.0188291929662227,standing,2026-03-04_13-52-45
1772632368678326300,3.462326171875,0.03338109527193,-0.0360179465815424,0.1695195313155651,0.0281590148806571,-0.0270733330398798,-0.0124597176909446,standing,2026-03-04_13-52-45
1772632368688275500,3.472275390625,0.0578266774814575,-0.0113349023543298,0.1927571990400552,0.0006797197274863,-0.021584291011095,-0.0032928504515439,standing,2026-03-04_13-52-45
1772632368698223400,3.482223388671875,0.0757193309161812,-0.0090877079494297,0.1464730022490024,-0.0180847086012363,0.0002562750596553,0.0042344229295849,standing,2026-03-04_13-52-45
1772632368708172300,3.49217236328125,0.0065304246820509,0.0306955825150012,0.0638245296567678,-0.0277051106095314,0.0149502670392394,0.0070014474913477,standing,2026-03-04_13-52-45
1772632368718120400,3.502120361328125,-0.0532835541591048,0.0234955880083143,0.0129313777655363,-0.027340468019247,0.0172622911632061,-0.0010344827314838,standing,2026-03-04_13-52-45
1772632368728069400,3.5120693359375,-0.0751372932445257,-0.023482290135324,-0.0338186829715967,-0.0116014536470174,0.0254113003611564,-0.0110026942566037,standing,2026-03-04_13-52-45
1772632368738017300,3.522017333984375,-0.0512534365709871,0.0037339258313179,-0.0799047268420457,0.0085930908098816,0.0324082374572753,-0.0079945027828216,standing,2026-03-04_13-52-45
1772632368747966200,3.53196630859375,-0.0321811448976397,0.0438251132011413,-0.0284714767247438,0.0246159993112087,0.0114158727228641,-0.003386701690033,standing,2026-03-04_13-52-45
1772632368757914400,3.541914306640625,0.0152115245919674,0.0261594003900885,0.0377297189354896,0.0367019996047019,-0.0252940990030765,0.0015134210698306,standing,2026-03-04_13-52-45
1772632368767863300,3.55186328125,0.0615649141617119,0.0250261585764586,0.0582967061460018,0.0445402152836322,-0.0432640425860881,0.0059603676199913,standing,2026-03-04_13-52-45
1772632368777811200,3.561811279296875,0.0310140738796442,0.051523412618786,0.0347504108637571,0.0510410144925117,-0.0338836796581745,0.0066732754930853,standing,2026-03-04_13-52-45
1772632368787760400,3.571760498046875,-0.0666292848791927,0.0560845830544829,0.0358726928919553,0.0399420261383056,-0.0259378738701343,-0.0016453749267384,standing,2026-03-04_13-52-45
1772632368797708300,3.581708251953125,-0.0967591963354498,0.0153738024815917,0.0558510665595531,0.0173125099390745,-0.0210236683487892,-0.010307096876204,standing,2026-03-04_13-52-45
1772632368807657200,3.5916572265625,-0.0878165228798985,-0.0360725993782281,0.0689729984611272,-0.0047339363954961,0.0040201665833592,-0.01618442684412,standing,2026-03-04_13-52-45
1772632368817605400,3.60160546875,-0.0740527128782123,-0.0006486731670796,0.0670709642320871,-0.0224933456629514,0.0198269393295049,-0.0172465406358242,standing,2026-03-04_13-52-45
1772632368827554300,3.61155419921875,-0.0436632737029343,0.0152604052349925,0.0655664048880338,-0.032639991492033,0.0178873594850301,-0.0137245096266269,standing,2026-03-04_13-52-45
1772632368837502200,3.621502197265625,0.043957726604864,0.0096413963094353,-0.0095499186336994,-0.0258227251470088,0.0211533196270465,0.0011263990309089,standing,2026-03-04_13-52-45
1772632368847451100,3.631451171875,0.0516508383907377,0.0225074537537992,-0.1121340947955846,0.0006690672598779,0.0316480360925197,0.0107529275119304,standing,2026-03-04_13-52-45
1772632368857399300,3.6413994140625,0.0018752192873507,0.0547017503939568,-0.1266407590538263,0.0267302375286817,0.0208554584532976,0.0084034800529479,standing,2026-03-04_13-52-45
1772632368867348200,3.65134814453125,-0.0154890994243323,-0.0032191081769764,-0.040559973925352,0.0422431491315364,-0.0101615795865654,0.0048188650980591,standing,2026-03-04_13-52-45
1772632368877296000,3.661296142578125,-0.0330550781879574,-0.0591898555934429,0.0536328059881925,0.0439848564565181,-0.0325433202087879,-0.0032486487179994,standing,2026-03-04_13-52-45
1772632368887245000,3.6712451171875,-0.0904857420891523,-0.0729930477574467,0.1041618007421493,0.0334419347345829,-0.0417490676045417,-0.0208204519003629,standing,2026-03-04_13-52-45
1772632368897193200,3.681193115234375,-0.1307617114413529,-0.0858954916894435,0.0978098013669252,0.01623160764575,-0.0345612466335296,-0.0323183052241802,standing,2026-03-04_13-52-45
1772632368907142400,3.691142333984375,-0.0819303143855184,-0.0675913348443806,0.0439566306263208,0.0011258926242589,-0.009491846896708,-0.029519323259592,standing,2026-03-04_13-52-45
1772632368917090300,3.70109033203125,-0.040258799021691,-0.0004794540800154,-0.0468459223270416,-0.007747477851808,0.0228793192654848,-0.0177750699222087,standing,2026-03-04_13-52-45
1772632368927039500,3.71103955078125,-0.0066830579604953,0.0538422109551727,-0.0742512311249971,-0.0088500268757343,0.0300357639789581,-0.0036515276879072,standing,2026-03-04_13-52-45
1772632368936987400,3.7209873046875,5.7721536606e-06,0.0579230505280196,-0.0391419238209724,-0.0006702840328216,0.0186944343149662,0.0036208170931786,standing,2026-03-04_13-52-45
1772632368946936300,3.730936279296875,-0.0050357291448861,0.0232080032385885,-0.0347206002473831,0.0168740879744291,0.0029402377549558,0.0007145092822611,standing,2026-03-04_13-52-45
1772632368956884500,3.740884521484375,-0.0595467062070965,0.0083960724234581,-0.0264899475187063,0.0331750102341175,-0.0121803516522049,-0.0092546790838241,standing,2026-03-04_13-52-45
1772632368966833400,3.75083349609375,-0.1025672980923205,-0.0188004159294068,0.021846505627036,0.0414270833134651,-0.0326763056218624,-0.0258325897157192,standing,2026-03-04_13-52-45
1772632368976781300,3.76078125,-0.1011482250746339,-0.0482432219043374,0.0124526543378829,0.0404943004250526,-0.0335715748369693,-0.0334255620837211,standing,2026-03-04_13-52-45
1772632368986730200,3.770730224609375,-0.0268602421358227,0.0153160809449851,-0.0055792614370584,0.0309969335794448,-0.0148034803569316,-0.0262320954352617,standing,2026-03-04_13-52-45
1772632368996678400,3.780678466796875,-0.0046464375663548,0.1107958319291472,0.0017646715849637,0.0170814879238605,0.0017495907377451,-0.0138743622228503,standing,2026-03-04_13-52-45
1772632369006627300,3.79062744140625,0.0151456197489053,0.1062060199208557,0.0380482833653688,0.000634070020169,0.0140011981129646,-0.0061876806430518,standing,2026-03-04_13-52-45
1772632369016575200,3.8005751953125,0.0216491564240306,0.0587172696456313,0.0653653293579816,-0.0053305942565202,0.0272011142224073,0.0011343245860189,standing,2026-03-04_13-52-45
1772632369026524400,3.8105244140625,-0.0076206310715526,0.054197892525047,0.0704986005932092,-0.004009666852653,0.0352787487208843,-0.0009288262808695,standing,2026-03-04_13-52-45
1772632369036472300,3.820472412109375,-0.0252108674935996,0.0304243643581867,0.1215197627782821,0.000814605038613,0.0288192629814147,0.0001168323215097,standing,2026-03-04_13-52-45
1772632369046421200,3.830421142578125,-0.0006785568486899,-0.0094618019588291,0.1755120497286319,0.0062884660437703,0.0018816543743014,-0.0031463387422263,standing,2026-03-04_13-52-45
1772632369056369400,3.840369384765625,-0.0171004801437258,-0.0440517615638673,0.2160334452092647,0.0057116383686661,-0.0308188870549201,-0.0160128753632307,standing,2026-03-04_13-52-45
1772632369066317300,3.8503173828125,-0.0606025719355791,-0.0810850226677954,0.2369476384222507,-0.0034339232370257,-0.0629733577370643,-0.0328280739486217,standing,2026-03-04_13-52-45
1772632369076266200,3.860266357421875,-0.0809912069045007,-0.0693313103795051,0.2064911253601312,-0.0176478587090969,-0.0767759978771209,-0.0466845519840717,standing,2026-03-04_13-52-45
1772632369086214400,3.87021435546875,-0.0793432935670018,-0.029601357537508,0.0775228001415729,-0.0294190309941768,-0.0613965056836605,-0.049345850944519,standing,2026-03-04_13-52-45
1772632369096163300,3.880163330078125,-0.0788629627041518,0.039760055719316,-0.0963701239526271,-0.0345706157386302,-0.0228593964129686,-0.039520476013422,standing,2026-03-04_13-52-45
1772632369106111200,3.890111328125,-0.0108970954589545,0.1214880524657666,-0.2252729827195405,-0.026340115815401,-0.013801984488964,-0.0195345189422369,standing,2026-03-04_13-52-45
1772632369116060200,3.90006005859375,0.0934140506260097,0.1666809468887746,-0.1901589992403984,-0.0116156823933124,0.0058528911322355,0.0090394131839275,standing,2026-03-04_13-52-45
1772632369126008300,3.91000830078125,0.0737369249273091,0.1618479737743735,-0.2167307798236608,0.0100246332585811,0.0215945690870285,0.0256183892488479,standing,2026-03-04_13-52-45
1772632369135957200,3.919957275390625,-0.0474516331352293,0.1043276588283479,-0.2238683766186237,0.0308242589235305,0.0219826381653547,0.018880994990468,standing,2026-03-04_13-52-45
1772632369145905200,3.9299052734375,-0.133334703734517,-0.020432839436829,-0.1338923376172781,0.0445667058229446,0.0118335979059338,-0.0015382587444037,standing,2026-03-04_13-52-45
1772632369155854300,3.939854248046875,-0.125904553733766,-0.0985582816466689,-0.009244798207283,0.0441257841885089,-0.0053300848230719,-0.0215763580054044,standing,2026-03-04_13-52-45
1772632369165802200,3.94980224609375,-0.0881304841998964,-0.1064883439935743,0.0952852513253688,0.0329642109572887,-0.0197620205581188,-0.0254358109086751,standing,2026-03-04_13-52-45
1772632369175751200,3.959751220703125,0.0086310502231121,-0.0763391433149576,0.148387311437726,0.0166909098625183,-0.0230737961828708,-0.0160280875861644,standing,2026-03-04_13-52-45
1772632369185699300,3.96969921875,0.0678182754680514,-0.032589871829003,0.1257563774347305,0.0035583307035267,-0.0194441750645637,-0.0046891458332538,standing,2026-03-04_13-52-45
1772632369195648300,3.979648193359375,0.0430312594097107,-0.0040633039161562,0.0887701703429222,-0.0043905787169933,-0.0086198365315794,-0.0053247464820742,standing,2026-03-04_13-52-45
1772632369205596200,3.98959619140625,-0.014456906832382,-0.0332055195093154,0.0371568874835968,-0.0083491010591387,0.0066501963883638,-0.0083919093012809,standing,2026-03-04_13-52-45
1772632369215545000,3.999545166015625,-0.0541859098263084,-0.0406526206448674,-0.0106686935305595,-0.0025889426469802,0.0138910030946135,-0.0186640247702598,standing,2026-03-04_13-52-45
1772632369225493200,4.0094931640625,-0.0740944331280887,-0.0213042154438793,-0.0317377850443124,0.0073936507105827,0.0126603553071618,-0.0258303247392177,standing,2026-03-04_13-52-45
1772632369235442400,4.0194423828125,-0.0232235661339014,-0.008427928866446,-0.0429635279357433,0.0182847194373607,0.0070982426404953,-0.0236237533390522,standing,2026-03-04_13-52-45
1772632369245390000,4.02939013671875,0.0480807978842407,0.0243668178848922,-0.0137853642463684,0.0247394237667322,0.0026624812744557,-0.0117583042010664,standing,2026-03-04_13-52-45
1772632369255339300,4.03933935546875,0.0804253897152841,0.050997635179013,0.0271849440455436,0.0289952550083398,-0.0185473412275314,-0.0054092714563012,standing,2026-03-04_13-52-45
1772632369265287400,4.049287353515625,0.0693270725958049,0.053495735605061,0.0378624054044485,0.0307169891893863,-0.0353058166801929,-0.0077059818431735,standing,2026-03-04_13-52-45
1772632369275236400,4.059236328125,0.0449362893134355,0.0365006155319511,0.0069289224803447,0.0324830785393714,-0.0292560644447803,-0.003246562089771,standing,2026-03-04_13-52-45
1772632369285184300,4.069184326171875,0.0198288091290742,0.0845087135061621,-0.0489355880826711,0.0316199474036693,-0.0154166826978325,-0.0021224417723715,standing,2026-03-04_13-52-45
1772632369295133400,4.079133544921875,-0.0243962631750851,0.1245348728157579,-0.0569341856211423,0.0273733809590339,-0.0074133453890681,-0.0020377025939524,standing,2026-03-04_13-52-45
1772632369305081300,4.089081298828125,-0.0459622713603079,0.0711323684521019,-0.0651753597438335,0.0196145288646221,0.0071019479073584,-0.0035045717377215,standing,2026-03-04_13-52-45
1772632369315030300,4.0990302734375,-0.0152949650917202,0.0931752734340727,-0.0506242718219757,0.0129664726555347,0.0245010294020175,0.0003383767325431,standing,2026-03-04_13-52-45
1772632369324978400,4.108978515625,-0.006085457393527,0.0974219710931181,-0.0192377844333648,0.0039359601214528,0.0301272235810756,0.0063240975141525,standing,2026-03-04_13-52-45
1772632369334927400,4.11892724609375,0.0192574389819055,0.0787158093184232,0.0134463415503501,0.0012293485924601,0.0268037598580122,0.0110326604917645,standing,2026-03-04_13-52-45
1772632369344875300,4.128875244140625,0.0393295553475618,0.0586949116833507,0.0498912813723087,0.0055106463842093,0.0252490062266588,0.0191917866468429,standing,2026-03-04_13-52-45
1772632369354824200,4.13882421875,0.0442157930191606,0.0624937194444239,0.0556879849523305,0.0155849959701299,0.0164807811379432,0.0287596881389617,standing,2026-03-04_13-52-45
1772632369364772400,4.1487724609375,0.0368663070391863,0.0734236942596733,0.0968891793906688,0.0225744619965553,-0.0054301121272146,0.0302697010338306,standing,2026-03-04_13-52-45
1772632369374721500,4.158721435546875,-0.0019417817175388,0.0169226393587887,0.1282084467619657,0.0295657142996788,-0.0202779825776815,0.0275974087417125,standing,2026-03-04_13-52-45
1772632369384669200,4.168669189453125,-0.0384904011096805,0.0028793548285961,0.1424456464290618,0.0304144639521837,-0.0296214167028665,0.0180084314197301,standing,2026-03-04_13-52-45
1772632369394618600,4.17861865234375,-0.0896198459748178,-0.0051747722893953,0.1601093134135007,0.0220425799489021,-0.0357962623238563,0.0098031433299183,standing,2026-03-04_13-52-45
1772632369404566500,4.18856640625,-0.0869298762384802,-0.0238629600159823,0.1365150873363018,0.0085869589820504,-0.0256360359489917,0.0064017539843916,standing,2026-03-04_13-52-45
1772632369414515500,4.198515380859375,-0.0787128136437386,0.0024622984603047,0.1110059675484895,-0.0055150161497294,-0.0074569135904312,0.0059160003438591,standing,2026-03-04_13-52-45
1772632369424463600,4.208463623046875,-0.0841653068959712,0.0261028478972613,0.1094809499382972,-0.0210391152650117,-0.0020336527377367,0.0049793664366006,standing,2026-03-04_13-52-45
1772632369434412500,4.21841259765625,-0.0690793814450502,0.0171904965147376,0.105257194763422,-0.0320128761231899,-0.0051966719329357,0.0066149653866887,standing,2026-03-04_13-52-45
1772632369444360400,4.2283603515625,-0.091613723205775,0.0304598740629851,0.074766194909811,-0.02693822234869,-0.0046722954139113,0.0027496530674397,standing,2026-03-04_13-52-45
1772632369454309400,4.238309326171875,-0.10030468692258,0.016138795504719,0.008334697625041,-0.0162398666143417,-0.0081069506704807,-0.0016486216336488,standing,2026-03-04_13-52-45
1772632369464257500,4.248257568359375,-0.0881167479354888,0.0284967572964727,-0.0280582197487354,-0.0037014386616647,-0.0155901676043868,-0.0044734366238117,standing,2026-03-04_13-52-45
1772632369474206500,4.25820654296875,-0.0610382599391043,0.0277756034150719,-0.0690074852526187,0.0081457179039716,-0.0113926921039819,-0.0103376302868127,standing,2026-03-04_13-52-45
1772632369484154400,4.268154296875,-0.0406252211812883,0.0310847279630601,-0.0809814161628484,0.011683726683259,-0.0026519312523305,-0.0089764893054962,standing,2026-03-04_13-52-45
1772632369494103600,4.278103515625,-0.0417172542016953,0.0720018447630107,-0.0545452446579933,0.0073583340272307,0.0018970486707985,-0.0033025892917066,standing,2026-03-04_13-52-45
1772632369504051500,4.288051513671875,-0.0164973996840417,0.0521162639454007,0.0082639704763889,-0.0037579666823148,0.0004914323799312,-0.0002189150545746,standing,2026-03-04_13-52-45
1772632369514000400,4.29800048828125,-0.0283673587631434,0.0183968035645782,0.0365361252367496,-0.012188147753477,0.0106952032074332,0.0012180188205093,standing,2026-03-04_13-52-45
1772632369523948500,4.307948486328125,-0.0400735055826604,0.0209375740885734,0.0039303251862525,-0.0144683457911014,0.0263876132667064,0.0042992960661649,standing,2026-03-04_13-52-45
1772632369533897500,4.3178974609375,-0.0416177393499761,-0.0015286708720028,0.0186731362879276,-0.0144802629947662,0.0366116538643837,0.0031697282101958,standing,2026-03-04_13-52-45
1772632369543845400,4.327845458984375,-0.0463449870675802,-0.0374903572216629,0.0716542003691196,-0.0083451382815837,0.0303287245333194,-0.003744636895135,standing,2026-03-04_13-52-45
1772632369553794300,4.337794189453125,-0.0504701041735708,-0.0657547670669853,0.1502571969628334,-0.0056461011990904,-0.0033751036971807,-0.0133723616600036,standing,2026-03-04_13-52-45
1772632369563742500,4.347742431640625,-0.0652092620134353,-0.1018061775267124,0.2181289561837911,-0.0161589309573173,-0.0483822599053382,-0.0227445568889379,standing,2026-03-04_13-52-45
1772632369573691400,4.35769140625,-0.0529804064940661,-0.1100569962605833,0.2144716027200222,-0.0262303631752729,-0.0799340531229972,-0.0343297906219959,standing,2026-03-04_13-52-45
1772632369583639300,4.367639404296875,-0.0666003510456532,-0.0732318249493837,0.106637250944972,-0.0334344804286956,-0.08074551820755,-0.0348309986293315,standing,2026-03-04_13-52-45
1772632369593588500,4.37758837890625,-0.0736181939184665,0.0079467212207615,-0.0903144771754741,-0.0283932592719793,-0.0483165569603443,-0.034078624099493,standing,2026-03-04_13-52-45
1772632369603536400,4.387536376953125,-0.0660864101741462,0.0717817722715437,-0.2586211255699396,-0.020642127841711,0.003066737903282,-0.0203106142580509,standing,2026-03-04_13-52-45
1772632369613485300,4.3974853515625,-0.0486715303190052,0.1567446592859923,-0.3485843050897121,-0.0063994475640356,0.0429052077233791,-0.0026545915752649,standing,2026-03-04_13-52-45
1772632369623433500,4.40743359375,-0.0284010418370366,0.1393124629698693,-0.2900467759251594,0.0036348106805235,0.0488845370709896,0.008389270864427,standing,2026-03-04_13-52-45
1772632369633382400,4.41738232421875,-0.0197804399427026,0.0530614358410239,-0.157016608095169,0.0134582556784152,0.0341588594019413,0.0109949577599763,standing,2026-03-04_13-52-45
1772632369643330300,4.427330322265625,-0.0510615672606974,-0.0058111704967916,-0.0395984354168176,0.0203438587486743,0.0184350255876779,0.0044821975752711,standing,2026-03-04_13-52-45
1772632369653279200,4.437279296875,-0.1090523492626845,-0.0497502654664218,0.0456260251432657,0.0211914330720901,0.0071844942867755,-0.0108198439702391,standing,2026-03-04_13-52-45
1772632369663227400,4.447227294921875,-0.1473973505523055,-0.0970481693446636,0.120790863981843,0.0152714923024177,-6.99565280228e-05,-0.0280744656920433,standing,2026-03-04_13-52-45
1772632369673175300,4.45717529296875,-0.1086686837073415,-0.1206255904175341,0.1622439873546362,0.0026264763437211,-0.0086020901799201,-0.0361983142793178,standing,2026-03-04_13-52-45
1772632369683124200,4.467124267578125,-0.0400756975397467,-0.0747471979483962,0.1807856062173843,-0.0096099497750401,-0.0133632887154817,-0.0332970656454563,standing,2026-03-04_13-52-45
1772632369693072400,4.477072265625,0.0058687459029257,-0.0214623286150395,0.1630091265082359,-0.0164668429642915,-0.0071565145626664,-0.0240281000733375,standing,2026-03-04_13-52-45
1772632369703021600,4.487021484375,0.004855477207154,0.0012524842791259,0.1246241585344076,-0.0183054879307746,-0.0022222101688385,-0.0211039502173662,standing,2026-03-04_13-52-45
1772632369712969200,4.49696923828125,-0.0216764828223735,-0.0120944885499775,0.0809071818828582,-0.0211296640336513,-0.0081106005236506,-0.0283357053995132,standing,2026-03-04_13-52-45
1772632369722918400,4.50691845703125,-0.0693326255537569,-0.0432213020890951,0.0313964242607355,-0.0216812044382095,-0.0061936574056744,-0.0365355797111988,standing,2026-03-04_13-52-45
1772632369732866600,4.516866455078125,-0.0426564347479492,-0.054967269462347,-0.0131143331170082,-0.0186572913080453,0.0123332971706986,-0.0353920757770538,standing,2026-03-04_13-52-45
1772632369742815500,4.5268154296875,-0.0187860220778733,-0.0119271691590547,-0.0348901115953922,-0.0181448999792337,0.021003482863307,-0.0298013016581535,standing,2026-03-04_13-52-45
1772632369752763400,4.536763427734375,0.0044322833590209,-0.0062063072942197,0.0037736733198165,-0.0154014686122536,0.0063696368597447,-0.0288368500769138,standing,2026-03-04_13-52-45
1772632369762712600,4.546712646484375,0.0533009436853229,-0.0181422442816197,-0.0199590844452381,-0.0070641757920384,-0.0061022127047181,-0.0203562825918197,standing,2026-03-04_13-52-45
1772632369772660500,4.556660400390625,0.0847143190808594,-0.0025743805326521,-0.0450502710819244,0.0052205603569746,-0.0061141420155763,-0.0122235380113124,standing,2026-03-04_13-52-45
1772632369782609400,4.566609375,0.0652413376521319,0.034281478177756,-0.0548877744853496,0.0129016488790512,-0.0133880339562892,-0.007585110142827,standing,2026-03-04_13-52-45
1772632369792557600,4.5765576171875,0.0038687311921268,0.0054978667639195,-0.0324251827865839,0.0133090587332844,-0.0219880491495132,-0.0190307348966598,standing,2026-03-04_13-52-45
1772632369802506500,4.586506591796875,-0.0178339089848101,-0.0318342311561107,-0.0470078348904848,0.0065472931601107,-0.0155738266184926,-0.0265978425741195,standing,2026-03-04_13-52-45
1772632369812454400,4.596454345703125,-0.033314898167923,-0.0313892638675868,-0.0740069009751081,0.0009258696809411,0.0070571056567132,-0.0249026585370302,standing,2026-03-04_13-52-45
1772632369822403300,4.6064033203125,-0.0265779911283403,0.0063273033253848,-0.0647679479867219,-0.0077954498119652,0.0240549966692924,-0.022428847849369,standing,2026-03-04_13-52-45
1772632369832351500,4.6163515625,-0.0010041355412453,0.0203719030298292,-0.0562619854480028,-0.0088622402399778,0.0346390008926391,-0.0151239801198244,standing,2026-03-04_13-52-45
1772632369842300400,4.626300537109375,0.0293322582725435,0.0222555248193442,-0.044528877556324,-0.0059418170712888,0.035975906997919,-0.0050196801312267,standing,2026-03-04_13-52-45
1772632369852248300,4.636248291015625,0.0396521383654326,0.0235424958899617,-0.0050128597259521,0.0031933130230754,0.0180330183357,0.000385032268241,standing,2026-03-04_13-52-45
1772632369862197500,4.646197509765625,0.0321858210727572,-0.0161585231184959,0.0047825581014156,0.0164470672607421,0.0005605497863143,9.60794277489e-05,standing,2026-03-04_13-52-45
1772632369872145400,4.6561455078125,-0.0003283551715314,-0.0197562553495168,0.0119710083007812,0.0295930728316307,-0.001291406340897,-0.001186448498629,standing,2026-03-04_13-52-45
1772632369882094300,4.66609423828125,-0.0455049560468643,0.0055194940738379,0.0266150352030992,0.0348472222685813,-0.0042666899971663,-0.005706631578505,standing,2026-03-04_13-52-45
1772632369892042500,4.67604248046875,-0.0575947684217244,-0.0080045888878405,0.0795943457186222,0.0286858603358268,-0.0082994801923632,-0.0114169437438249,standing,2026-03-04_13-52-45
1772632369901991400,4.685991455078125,-0.0441289184533059,-0.040157238343358,0.1446194833368063,0.0111143253743648,-0.0047329748049378,-0.0114225363358855,standing,2026-03-04_13-52-45
1772632369911939300,4.695939208984375,-0.0571714284431189,0.0003990823201835,0.1803898848980665,-0.0088277654722332,-0.0046449890360236,-0.0131952818483114,standing,2026-03-04_13-52-45
1772632369921888300,4.70588818359375,-0.0698955931987613,-0.0040744098320603,0.1998030258983373,-0.026254691183567,-0.0183714535087347,-0.0155455227941274,standing,2026-03-04_13-52-45
1772632369931836400,4.71583642578125,-0.0465700279951095,-0.0085579849869012,0.1214455284982919,-0.0276021510362625,-0.0177580025047063,-0.0115933334454894,standing,2026-03-04_13-52-45
1772632369941785300,4.725785400390625,-0.0263720932926982,0.0330000600650906,0.0054079965233802,-0.017752181738615,-0.0071666119620203,-0.0068137585185468,standing,2026-03-04_13-52-45
1772632369951733200,4.735733154296875,-0.0574374589681625,0.071057549650222,-0.0992529859125614,-0.0054537048563361,0.0023328836541622,-0.0065245390869677,standing,2026-03-04_13-52-45
1772632369961682400,4.745682373046875,-0.049439811277762,0.0523337060883641,-0.1301198333412409,0.0052135866135358,0.0108051979914307,-0.0037071809638291,standing,2026-03-04_13-52-45
1772632369971630300,4.75563037109375,-0.0119404670320451,0.040126404813677,-0.0895960997730493,0.0157845895737409,0.0181199889630079,-0.0008738000178709,standing,2026-03-04_13-52-45
1772632369981579300,4.765579345703125,0.0034666531972587,0.003981763112545,-0.0149029700994491,0.01503277849406,0.0115486402064561,-0.0007643441203981,standing,2026-03-04_13-52-45
1772632369991527400,4.77552734375,0.0310738412428647,-0.0025144670389592,0.09696166010499,0.0042159669101238,-0.0071546277031302,-0.0004088559653609,standing,2026-03-04_13-52-45
1772632370001476600,4.7854765625,0.0782028913602232,-0.0045613165661692,0.1633808824300766,-0.007080097682774,-0.0227519627660512,0.0101931886747479,standing,2026-03-04_13-52-45
1772632370011424300,4.79542431640625,0.0933944691427052,0.0108064945660531,0.1333890642702579,-0.0123655078932642,-0.0283188931643962,0.0198859721422195,standing,2026-03-04_13-52-45
1772632370021373400,4.80537353515625,0.0513339544612914,0.0492410007700324,0.0523293221741914,-0.008102586492896,-0.0116717405617237,0.0234719179570674,standing,2026-03-04_13-52-45
1772632370031321600,4.815321533203125,-0.0045955841619521,0.0434973425514996,-0.011751228070259,-0.0027364743873476,0.0079744048416614,0.0205712541937828,standing,2026-03-04_13-52-45
1772632370041270500,4.8252705078125,-0.0510454198434948,0.0177194888249039,-0.0026385318100452,-0.0042779119685292,0.0167748220264911,0.014029199257493,standing,2026-03-04_13-52-45
1772632370051218400,4.835218505859375,-0.0534287347834557,-0.0493811398930847,0.0527221208840608,-0.0086548076942563,0.0210858266800642,0.0084080584347248,standing,2026-03-04_13-52-45
1772632370061167400,4.84516748046875,-0.0258733499903231,-0.0644091976769268,0.1315869832843542,-0.0184488482773304,0.0095412908121943,0.0037592439912259,standing,2026-03-04_13-52-45
1772632370071115500,4.855115478515625,-0.0209459035255014,-0.0603399024114012,0.2254956855595111,-0.0343802757561206,-0.0205535590648651,0.0013969978317618,standing,2026-03-04_13-52-45
1772632370081064400,4.865064453125,0.0271294144660234,-0.0751626468814909,0.2208230175733566,-0.0452760681509971,-0.0529751479625701,0.0024822358973324,standing,2026-03-04_13-52-45
1772632370091012400,4.875012451171875,0.0585550648212432,-0.0256700094379484,0.1098252333313226,-0.0439065545797348,-0.0638282895088195,0.0113556580618023,standing,2026-03-04_13-52-45
1772632370100961500,4.88496142578125,0.0224273742549121,0.044362873339653,-0.0619131430774927,-0.0324357859790325,-0.047245055437088,0.0213254690170288,standing,2026-03-04_13-52-45
1772632370110909400,4.894909423828125,-0.0720201110720634,0.0810322695672512,-0.2117623437613248,-0.0164946112781763,-0.0252628810703754,0.0181690696626901,standing,2026-03-04_13-52-45
1772632370120858400,4.9048583984375,-0.134062141226232,0.0602471095614135,-0.2485767014175653,-0.0049095936119556,-0.0075824209488928,0.0157642345875501,standing,2026-03-04_13-52-45
1772632370130806500,4.914806640625,-0.1386600634757429,0.0420499202221631,-0.2429004093468189,0.0072830207645893,0.005981408059597,0.0132123632356524,standing,2026-03-04_13-52-45
1772632370140755500,4.92475537109375,-0.1151658637069165,0.0411200920261442,-0.1864776803791523,0.0134775340557098,0.019686035811901,0.0198199339210987,standing,2026-03-04_13-52-45
1772632370150703400,4.934703369140625,-0.0670608081642538,0.0159795132897794,-0.1025111109256744,0.0123653402552008,0.0283620059490203,0.0227934978902339,standing,2026-03-04_13-52-45
1772632370160652300,4.94465234375,-0.0535819525837898,0.0012463467992842,0.0201408707529306,0.0073580648750066,0.0207570847123861,0.0234315916895866,standing,2026-03-04_13-52-45
1772632370170600400,4.954600341796875,-0.0492679618421941,-0.0537016334407031,0.1079845739006996,-0.0021213996224105,0.0054319985210895,0.0205752067267894,standing,2026-03-04_13-52-45
1772632370180549400,4.96454931640625,-0.0602742898292839,-0.0723788613818585,0.161272511973977,-0.0104736052453517,-0.016775568947196,0.0093702208250761,standing,2026-03-04_13-52-45
1772632370190497300,4.974497314453125,-0.062729793222621,-0.0716330114506185,0.1648053622752427,-0.0117812231183052,-0.0258227419108152,-0.0004594989586621,standing,2026-03-04_13-52-45
1772632370200446500,4.984446533203125,-0.0428122098315507,-0.0530180350907146,0.0844727654099464,-0.0047589992173016,-0.0231747608631849,-0.0030467598699033,standing,2026-03-04_13-52-45
1772632370210394400,4.994394287109375,-0.0438007824774831,0.0003153495594859,0.0372527490735054,-0.0019348533824086,-0.0213436540216207,-0.0026595066301524,standing,2026-03-04_13-52-45
1772632370220343300,5.00434326171875,-0.0142154627593234,0.0242332546330988,0.0221960497170686,-0.0075727654621005,-0.0135235488414764,-0.0041511431336402,standing,2026-03-04_13-52-45
1772632370230291500,5.01429150390625,-0.0009061915921047,0.0131933897025883,0.0117015437096357,-0.0166929885745048,-0.0018135221907868,-0.0008936593076214,standing,2026-03-04_13-52-45
1772632370240240400,5.024240478515625,-0.0262943153487518,0.0381945599682629,0.0071229837477207,-0.0241716764867305,0.0095717571675777,0.0016709649935364,standing,2026-03-04_13-52-45
1772632370250188300,5.034188232421875,-0.0055243894446641,0.0521096880741417,0.0078407766282558,-0.0295727849006652,0.0185207650065422,0.007304249331355,standing,2026-03-04_13-52-45
1772632370260137200,5.04413720703125,0.0272800019178539,0.0661474196463823,0.0082476038634777,-0.022005945444107,0.0081794457510113,0.0146918585523962,standing,2026-03-04_13-52-45
1772632370270085400,5.05408544921875,0.0657063978806138,0.0699542645834386,0.0058066404521465,-0.0075073228217661,0.000360410194844,0.0218464918434619,standing,2026-03-04_13-52-45
1772632370280034300,5.064034423828125,0.0730403209652751,0.0611192162208259,-0.0153548055201768,0.003008967731148,-0.017923254519701,0.0277264825999736,standing,2026-03-04_13-52-45
1772632370289982200,5.073982177734375,0.0582574701141566,0.0432807771913707,-0.018664952981472,0.0152208460494875,-0.0314166843891143,0.0274064727127552,standing,2026-03-04_13-52-45
1772632370299931600,5.083931640625,0.020289010519348,0.0181501353271305,-0.0039583822369575,0.0150525337085127,-0.0310278609395027,0.0203445684164762,standing,2026-03-04_13-52-45
1772632370309879300,5.09387939453125,-0.0102225571982562,0.0028472061246633,0.0178577282518148,0.0060824137181043,-0.0261814557015895,0.014512893743813,standing,2026-03-04_13-52-45
1772632370319828500,5.103828369140625,-0.024750081581436,-0.0244078805476427,0.0533463902622461,-0.0110337221994996,-0.0171842351555824,0.0128883654251694,standing,2026-03-04_13-52-45
1772632370329776600,5.113776611328125,-0.0177641682168468,0.0008510638713836,0.034795419049263,-0.0267869625240564,-0.0073009827174246,0.0157900936901569,standing,2026-03-04_13-52-45
1772632370339724500,5.123724609375,0.021786519068107,0.0458060578852891,0.0154372231066226,-0.0280149448662996,0.0070931361988186,0.0241830460727214,standing,2026-03-04_13-52-45
1772632370349673500,5.133673583984375,0.0375079294109716,0.0705409784302115,-0.039041970577836,-0.0209999158978462,0.0106911864131689,0.0387886278331279,standing,2026-03-04_13-52-45
1772632370359622400,5.143622314453125,0.0696157533440738,0.1017692065171897,-0.0707207189112901,-0.0047128214500844,0.0117010567337274,0.0503936186432838,standing,2026-03-04_13-52-45
1772632370369570600,5.153570556640625,0.0314999211678281,0.078606211464107,-0.0726291828811168,0.0122987646609544,0.0022453903220593,0.0501262806355953,standing,2026-03-04_13-52-45
1772632370379518500,5.1635185546875,-0.0543730664288625,0.0256502818241715,-0.0383843834519386,0.0216299481689929,-0.0083430726081132,0.0365420281887054,standing,2026-03-04_13-52-45
1772632370389467400,5.17346728515625,-0.0791418527107685,-0.0309596402786672,-0.0065501522958278,0.0201398618519306,-0.0125071797519922,0.0242646895349025,standing,2026-03-04_13-52-45
1772632370399415600,5.18341552734375,-0.0719519046740606,-0.0436190692350268,0.0549029720544815,0.0073971673846244,-0.0168542563915252,0.017950601875782,standing,2026-03-04_13-52-45
1772632370409364500,5.193364501953125,-0.037637327944301,-0.0139376321986317,0.0920966844171285,-0.0069561768323183,-0.0177252013236284,0.0199048090726137,standing,2026-03-04_13-52-45
1772632370419312400,5.2033125,-0.0022531126890331,0.0313899945199489,0.074307345226407,-0.017240772023797,-0.0099216056987643,0.0280215926468372,standing,2026-03-04_13-52-45
1772632370429261600,5.213261474609375,0.012210077753663,0.0696655107699334,0.0325222134202718,-0.019998662173748,-0.00647031981498,0.0353440232574939,standing,2026-03-04_13-52-45
1772632370439209500,5.22320947265625,-0.0122933355903252,0.0725293757684528,0.0042395372658967,-0.0204157121479511,-0.0036891805939376,0.036698505282402,standing,2026-03-04_13-52-45
1772632370449158400,5.233158447265625,-0.0598367021296173,0.0582230563879013,-0.0121866968780755,-0.0120845595374703,-9.06272325664e-05,0.0309722013771533,standing,2026-03-04_13-52-45
1772632370459106600,5.2431064453125,-0.1002781277092173,0.0279389772832393,-0.0280132115632295,-0.0065132258459925,0.0009959426242858,0.0219669863581657,standing,2026-03-04_13-52-45
1772632370469055700,5.2530556640625,-0.131973023459874,0.0094990652292966,-0.0298632233440876,-0.0047128736041486,-0.0029290639795362,0.0140450652688741,standing,2026-03-04_13-52-45
1772632370479003400,5.26300341796875,-0.1161567013751715,0.0208176009707152,0.0006166705936193,-0.0057589630596339,-0.0013146556448191,0.0109520694240927,standing,2026-03-04_13-52-45
1772632370488952600,5.27295263671875,-0.045484753509052,0.0366951151907444,-0.0047001405149698,-0.0054633761756122,0.013848029077053,0.0159684494137763,standing,2026-03-04_13-52-45
1772632370498900700,5.282900634765625,-0.0216150349587202,0.0806068837620317,0.0464729973614215,-0.0060567283071577,0.0213458929210901,0.0233643129467964,standing,2026-03-04_13-52-45
1772632370508849700,5.292849609375,-0.0198950427656993,0.0758513597980141,0.1005944636493921,-0.0142027270048856,0.0103781456127762,0.0239699929952621,standing,2026-03-04_13-52-45
1772632370518797600,5.302797607421875,-0.0095130206894129,0.0305906608358025,0.1441530348688364,-0.0182619169354438,-0.0016646685544401,0.0210333280265331,standing,2026-03-04_13-52-45
1772632370528746500,5.31274658203125,-0.0230042608274146,0.0343533743701875,0.1472685365408658,-0.0204280540347099,-0.0142904026433825,0.019705343991518,standing,2026-03-04_13-52-45
1772632370538694700,5.322694580078125,-0.0472233408046886,0.0428242655955255,0.1186135199427604,-0.022574296221137,-0.0221629738807678,0.0146139143034815,standing,2026-03-04_13-52-45
1772632370549265700,5.333265625,-0.070792432440631,0.0309923735044896,0.0831453161984682,-0.0219523385167121,-0.0161812417209148,0.006992264650762,standing,2026-03-04_13-52-45
1772632370559213600,5.343213623046875,-0.0739235335405916,0.018643471802026,0.0275619606643915,-0.0250629093497991,-0.0039663868956267,0.0108397332951426,standing,2026-03-04_13-52-45
1772632370569162500,5.35316259765625,-0.0477882812110707,0.0422870899789035,0.0019914660781621,-0.0228773318231105,0.0107006598263978,0.0162735078483819,standing,2026-03-04_13-52-45
1772632370579110700,5.363110595703125,-0.0095690251929685,0.0278014685086905,-0.0132347446262836,-0.0215177871286869,0.0194012075662612,0.0223002415150403,standing,2026-03-04_13-52-45
1772632370589059600,5.3730595703125,0.0182215565955266,0.020656711320579,0.0611614479273557,-0.0216028019785881,0.0032637657131999,0.026471933349967,standing,2026-03-04_13-52-45
1772632370599007500,5.383007568359375,0.0205649413838982,-0.0093197631396353,0.1332230600535869,-0.0257842298597097,-0.0348367467522621,0.0189935099333524,standing,2026-03-04_13-52-45
1772632370608956700,5.392956787109375,-0.0257003315109759,-0.0787426973253488,0.1116086096167564,-0.0305687524378299,-0.0607957579195499,0.0087281335145235,standing,2026-03-04_13-52-45
1772632370618904600,5.402904541015625,-0.0650575055178254,-0.0876492034889757,0.0049292730957269,-0.0303367935121059,-0.0534976311028003,0.0007370519451797,standing,2026-03-04_13-52-45
1772632370628853500,5.412853515625,-0.0706292412355542,-0.0168682788230478,-0.0987175638616085,-0.0289325006306171,-0.0340004824101924,-0.0004909387789666,standing,2026-03-04_13-52-45
1772632370638801700,5.4228017578125,-0.0599813347646966,0.0420307771302759,-0.1761708058983087,-0.0247609242796897,-0.0176638513803482,0.0036777071654796,standing,2026-03-04_13-52-45
1772632370648750600,5.43275048828125,-0.0236753284893929,0.0527735588103532,-0.2600210554957389,-0.0133712105453014,0.0092157218605279,0.0140341436490416,standing,2026-03-04_13-52-45
1772632370658698500,5.442698486328125,-0.0093153426928445,0.0859162422165274,-0.2885229273587465,0.0064704050309956,0.0380724035203456,0.0279129408299922,standing,2026-03-04_13-52-45
1772632370668647400,5.4526474609375,-0.0245137520749121,0.1079391273237764,-0.206747145947814,0.0233665965497493,0.0395786464214324,0.0306511148810386,standing,2026-03-04_13-52-45
1772632370678595600,5.462595703125,-0.0325450463065877,0.0220315068051219,-0.0986497593224048,0.0320852510631084,0.0202739238739013,0.0260398518294096,standing,2026-03-04_13-52-45
1772632370688544500,5.47254443359375,-0.0218220287729054,-0.0576131077960133,0.0186211138397455,0.0292856413871049,0.0030297136399894,0.0201302338391542,standing,2026-03-04_13-52-45
1772632370698492400,5.482492431640625,-0.0357255395062267,-0.0579572450585663,0.1149468141287565,0.0215811170637607,-0.0078990999609231,0.0131636708974838,standing,2026-03-04_13-52-45
1772632370708441600,5.492441650390625,-0.0278672637538984,-0.0510378210589289,0.1935094787120819,0.00361935980618,-0.020532501861453,0.0041708312928676,standing,2026-03-04_13-52-45
1772632370718389500,5.502389404296875,-0.0264463641053065,-0.0498154396571218,0.1921037035673856,-0.0144198276102542,-0.019780958071351,0.0049982750788331,standing,2026-03-04_13-52-45
1772632370728338400,5.51233837890625,-0.0169305304042994,-0.0244638485185801,0.0970879168331623,-0.0218327715992927,-0.0068235737271606,0.0066734906286001,standing,2026-03-04_13-52-45
1772632370738286600,5.52228662109375,-0.0454373341707512,0.0304942147240042,0.0384036726742982,-0.019581601023674,0.0008399386424571,0.0049038203433156,standing,2026-03-04_13-52-45
1772632370748235500,5.532235595703125,-0.0681517452061176,0.0368280939206481,-0.0128968909740447,-0.0150169637054204,0.0082729114219546,0.0042042285203933,standing,2026-03-04_13-52-45
1772632370758183400,5.542183349609375,-0.0539898027323186,0.028949469500035,-0.0498784218907356,-0.0065318648703396,0.0177050270140171,0.0074809826910495,standing,2026-03-04_13-52-45
1772632370768132400,5.55213232421875,-0.05236348017212,0.0605836480394005,-0.0203700033336877,0.0032688877545297,0.0206551477313041,0.0071101626381278,standing,2026-03-04_13-52-45
1772632370778080500,5.56208056640625,-0.0765864326069131,0.0497460276827216,0.047719782552123,0.0021977643482387,0.0047606043517589,-3.82950529456e-05,standing,2026-03-04_13-52-45
1772632370788029400,5.572029541015625,-0.0585237563675269,0.0084162384286522,0.0897597659021615,2.24038958549e-05,-0.007482043467462,-0.0018242822261527,standing,2026-03-04_13-52-45
1772632370797977300,5.581977294921875,-0.0257773788025602,0.0018587796092033,0.0669236647158861,-0.003002680838108,-0.0046878545545041,-0.0018016453832387,standing,2026-03-04_13-52-45
1772632370807926500,5.591926513671875,-0.0397197237089276,0.0490840566426515,0.0830856949657201,-0.0102705564349889,-0.0156821887940168,-0.0039873523637652,standing,2026-03-04_13-52-45
1772632370817874400,5.60187451171875,-0.0155673888249322,0.0409019192308187,0.0951087257146835,-0.0131212044507265,-0.0290203634649515,-0.0029199575074017,standing,2026-03-04_13-52-45
1772632370827823600,5.61182373046875,0.0087304189443588,0.0324064780861139,-0.0025333178699016,-0.0098078092560172,-0.0190694686025381,-0.000157244503498,standing,2026-03-04_13-52-45
1772632370837771800,5.621771728515625,-0.0202388512346893,0.0774623021259903,-0.0774906514376401,-0.0025032898411154,0.0028728484176099,0.0055517735891044,standing,2026-03-04_13-52-45
1772632370847720700,5.631720703125,-0.0521667885562405,0.0826256762385368,-0.067712769266963,-0.0039929058402776,0.0028906853403896,0.0031090718694031,standing,2026-03-04_13-52-45
1772632370857668600,5.641668701171875,-0.0434159478783607,0.029332769729197,-0.0592459696948528,-0.0035505546256899,0.0014176911208778,-0.0014132420765236,standing,2026-03-04_13-52-45
1772632370867617500,5.651617431640625,-0.0254477449893951,-0.0254557821653783,-0.0787555568069219,0.0039424505084753,0.0200560446828603,-0.0048800148069858,standing,2026-03-04_13-52-45
1772632370877565700,5.661565673828125,-0.0408392292581498,0.0167278474390506,-0.0834042593955993,0.0087846098467707,0.0325292274355888,-0.0018988724332302,standing,2026-03-04_13-52-45
1772632370888135400,5.672135498046875,-0.0021356237892061,0.0153393156901001,0.0416980380445718,0.0070500439032912,0.0067206909880042,-0.0026631064247339,standing,2026-03-04_13-52-45
1772632370898084600,5.682084716796875,0.074641107225418,-0.0309684081070125,0.0975964508771896,0.0051549384370446,-0.0161782335489988,0.0045543266460299,standing,2026-03-04_13-52-45
1772632370908032800,5.69203271484375,0.0803100197073072,-0.0044997956372797,0.0697182638704776,0.0093460595235228,-0.0125476876273751,0.0120138972997665,standing,2026-03-04_13-52-45
1772632370917981700,5.701981689453125,0.0273186899604275,0.0421501657262444,0.0483691863715648,0.0084251379594206,-0.0186327453702688,0.0099502149969339,standing,2026-03-04_13-52-45
1772632370927929600,5.7119296875,-0.0598174859724938,-4.96843606233e-05,0.060670449540019,0.004518655128777,-0.0314262993633747,-0.0033982973545789,standing,2026-03-04_13-52-45
1772632370937878500,5.72187841796875,-0.0614306202575564,-0.0460565255150198,-0.0029781390279531,0.0017993017099797,-0.0212117452174425,-0.0122743463143706,standing,2026-03-04_13-52-45
1772632370947826700,5.73182666015625,-0.0404130762679502,0.0094227851226925,-0.0838414817690849,0.007067403756082,0.0096350945532321,-0.0069873742759227,standing,2026-03-04_13-52-45
1772632370957775600,5.741775634765625,-0.0348436421051621,0.0756168203897774,-0.0785235016167163,0.003306221216917,0.0255333669483661,-0.0028874378185719,standing,2026-03-04_13-52-45
1772632370967723500,5.7517236328125,-0.0398969069067388,0.0520385225340723,-0.0039297406643629,-0.007203992921859,0.0167142022401094,0.0021542857866734,standing,2026-03-04_13-52-45
1772632370977672700,5.761672607421875,0.012511252657324,0.0017743161961436,0.0406248558551073,-0.0114874225109815,0.0056660789996385,0.0069695468991994,standing,2026-03-04_13-52-45
1772632370987620600,5.77162060546875,-0.0098963939838111,0.0208018188796937,0.0355336701959371,-0.0063456515781581,0.0053602289408445,0.0078944554552435,standing,2026-03-04_13-52-45
1772632370997569500,5.781569580078125,-0.0933955285886302,0.0379129665479063,0.0111819037497043,0.0023892503231763,-0.0031344559974968,-0.0055076358839869,standing,2026-03-04_13-52-45
1772632371007517700,5.791517578125,-0.1202616159433498,-0.0234384509935975,-0.0127051677942276,0.011781639419496,-0.0047491188161075,-0.0178592763841152,standing,2026-03-04_13-52-45
1772632371017466600,5.801466552734375,-0.057390514553897,-0.0377034154504537,-0.0621136340856552,0.0228939466178417,0.0052140331827104,-0.0182065516710281,standing,2026-03-04_13-52-45
1772632371027414500,5.81141455078125,-0.0320823606982827,0.0267056360960006,-0.0500724831581115,0.027726087719202,0.0162703040987253,-0.01132083684206,standing,2026-03-04_13-52-45
1772632371037363500,5.821363525390625,0.0206863027412444,0.0755934395141899,0.0430786787480115,0.0188694801181554,0.0125027308240532,-0.0004540742374956,standing,2026-03-04_13-52-45
1772632371047311600,5.8313115234375,0.0517348634123802,0.0542915621578693,0.1242068099051713,0.0072551611810922,-0.0011906258296221,0.0104611096903681,standing,2026-03-04_13-52-45
1772632371057260500,5.841260498046875,0.0071894365800544,0.0136307582065463,0.1848492023944854,-0.0060073812492191,-0.0126065323129296,0.0067534567788243,standing,2026-03-04_13-52-45
1772632371067208400,5.85120849609375,-0.1092001237029209,-0.001210252572596,0.1608610085636377,-0.0121805556118488,-0.0113771595060825,-0.0085059506818652,standing,2026-03-04_13-52-45
1772632371077157400,5.861157470703125,-0.1265104472050443,-0.0303439925983548,0.0571200635820627,-0.0105941109359264,0.0094165354967117,-0.0131129529327154,standing,2026-03-04_13-52-45
1772632371087105500,5.87110546875,-0.0854979802718386,0.0036890637762844,-0.0033709377378225,-0.001487361267209,0.0367295704782009,-0.0096925627440214,standing,2026-03-04_13-52-45
1772632371097054500,5.881054443359375,-0.0392616412105038,0.0326075536161661,0.010136194089055,0.0036762412637472,0.0342981033027172,-0.0080523220822215,standing,2026-03-04_13-52-45
1772632371107002600,5.891002685546875,-0.0136250225855037,0.0061254971429705,0.1437771872937679,-0.0017473381012678,-0.004233740735799,-0.0101992385461926,standing,2026-03-04_13-52-45
1772632371116951600,5.90095166015625,0.0397060605097562,-0.0543101207278668,0.2311760692834853,-0.0150809865444898,-0.0471103675663471,-0.0157101172953844,standing,2026-03-04_13-52-45
1772632371126899500,5.9108994140625,0.0057027782188728,-0.0751809131905436,0.2144096433997154,-0.0278392173349857,-0.071025475859642,-0.02385282702744,standing,2026-03-04_13-52-45
1772632371136848400,5.920848388671875,-0.0590169101793318,-0.0392814784221351,0.0836170253634452,-0.0390711016952991,-0.0661167353391647,-0.0338713750243186,standing,2026-03-04_13-52-45
1772632371146796500,5.930796630859375,-0.0592320507673546,-0.0028999592252075,-0.1124544127911329,-0.0374920703470706,-0.0300952456891536,-0.0274553783237934,standing,2026-03-04_13-52-45
1772632371156745500,5.940745361328125,-0.024536584961228,0.0742541537344455,-0.2739128027260303,-0.0227847639471292,0.0232963413000106,-0.0106585565954446,standing,2026-03-04_13-52-45
1772632371166693400,5.950693359375,-0.0064799366038292,0.1467123639628291,-0.3122042471975088,-0.0047063240781426,0.057957362383604,0.0093857906758785,standing,2026-03-04_13-52-45
1772632371176642600,5.960642578125,0.0216322783544659,0.1410501004174351,-0.2439215690881013,0.0130191426724195,0.05293969810009,0.0179158952087163,standing,2026-03-04_13-52-45
1772632371186590500,5.970590576171875,0.0250497221151366,0.0597054039001464,-0.0868055922716855,0.0273758713155984,0.0270800124853849,0.014481158927083,standing,2026-03-04_13-52-45
1772632371196539600,5.98053955078125,0.0116695411361753,-0.0086281276136636,0.0316197116225957,0.0365677736699581,0.0009714467450976,0.0054919249378144,standing,2026-03-04_13-52-45
1772632371206487600,5.990487548828125,-0.0338761122472584,-0.0445192329451441,0.0963122562855482,0.0387323535978794,-0.0105948876589536,-0.0086078289896249,standing,2026-03-04_13-52-45
1772632371216436700,6.000436767578125,-0.0593841725891456,-0.0492488918155431,0.1580254928767681,0.02514224126935,-0.0125999823212623,-0.0205481108278036,standing,2026-03-04_13-52-45
1772632371226384600,6.010384521484375,-0.016322846834734,-0.0435348980829119,0.1878770257830619,0.0042603788897395,-0.0103246346116065,-0.0258898511528968,standing,2026-03-04_13-52-45
1772632371236333600,6.02033349609375,0.0200481875007972,-0.0069043725609779,0.2207557975560426,-0.0238942932337522,-0.007703018374741,-0.0229963269084692,standing,2026-03-04_13-52-45
1772632371246281700,6.03028173828125,0.0223672050328925,0.0281774622142314,0.2033048965394497,-0.0520565286278724,-0.0125771407037973,-0.0215553399175405,standing,2026-03-04_13-52-45
1772632371256230700,6.040230712890625,0.0148862746929749,0.0422720385402441,0.1270762278616428,-0.0592537187039852,-0.0056412043049931,-0.0156535096466541,standing,2026-03-04_13-52-45
1772632371266178600,6.050178466796875,0.0187929632753133,0.0748931822903454,-0.0185217451184988,-0.0528391227126121,0.0108891613781452,-0.0110440514981746,standing,2026-03-04_13-52-45
1772632371276127500,6.06012744140625,-0.0159371719853952,0.0961630570732057,-0.1940413936316967,-0.0250330623239278,0.037770576775074,-0.0063390443101525,standing,2026-03-04_13-52-45
1772632371286075600,6.07007568359375,-0.0310745353626087,0.0999788159690797,-0.2432043607294559,0.0038845005910843,0.0518166422843933,0.0025063124485313,standing,2026-03-04_13-52-45
1772632371296024600,6.080024658203125,0.008038381559588,0.0772813926011323,-0.1522013167679309,0.0278257858008146,0.0350017100572586,0.0125874429941177,standing,2026-03-04_13-52-45
1772632371305972500,6.089972412109375,0.0561575021602213,0.0176990305587649,-0.0101636666178703,0.0364505983889102,0.0005425591953098,0.0161751881241798,standing,2026-03-04_13-52-45
1772632371315921700,6.099921630859375,0.0463691351281479,-0.0169337452746927,0.0954553471952676,0.036517709493637,-0.0217345170676708,0.0136635610833764,standing,2026-03-04_13-52-45
1772632371325869600,6.10986962890625,-0.0244962894834578,-0.0467132358580827,0.1496206526249647,0.0254179686307907,-0.0287977922707796,0.0067493766546249,standing,2026-03-04_13-52-45
1772632371335818200,6.119818359375,-0.0680342928389087,-0.0629478929527103,0.1768809999942779,0.005715902429074,-0.0262968186289072,-0.0070290197618305,standing,2026-03-04_13-52-45
1772632371345766400,6.129766357421875,-0.0702865287451073,-0.0751202690444886,0.1873456953853368,-0.0207888185977935,-0.0246831458061933,-0.0120357424020767,standing,2026-03-04_13-52-45
1772632371355715300,6.13971533203125,-0.05239259666875,-0.0609876987956464,0.1062877068549394,-0.0367584638297557,-0.0056865513324737,-0.0092434175312519,standing,2026-03-04_13-52-45
1772632371365663200,6.149663330078125,-0.060809090825729,-0.0040719256140291,-0.0074801266223192,-0.0386768616735935,0.0152491740882396,-0.0051770657300949,standing,2026-03-04_13-52-45
1772632371375612200,6.159612060546875,-0.0315638532495126,0.0204565125733613,-0.0475777437329292,-0.0366509966552257,0.0227177422493696,-0.0012515659909695,standing,2026-03-04_13-52-45
1772632371385560300,6.169560302734375,-0.0387949370142072,-0.0023819267004728,-0.0818552763879299,-0.0227307546883821,0.0207395702600479,-0.0048338491469621,standing,2026-03-04_13-52-45
1772632371395509200,6.17950927734375,-0.053387270261906,-0.030897534827888,-0.0963280383765697,-0.0087640732526779,0.0133943064138293,-0.0151469400152564,standing,2026-03-04_13-52-45
1772632371405457200,6.18945703125,-0.0273080224359408,-0.0465808416500687,-0.0611912585437297,0.0056126788258552,0.001037459122017,-0.0155390929430723,standing,2026-03-04_13-52-45
1772632371415406300,6.19940625,0.0376690017241984,-0.0200562612093985,-0.0341173736572265,0.0128831081092357,-0.0124839423224329,-0.0151004698127508,standing,2026-03-04_13-52-45
1772632371425354200,6.209354248046875,0.0572996579326689,0.0102756025597453,-0.0329857392787933,0.0181596837937831,-0.0105531327426433,-0.0097071528434753,standing,2026-03-04_13-52-45
1772632371435303200,6.21930322265625,0.0605112403903156,0.0587407966516911,-0.0718389092862606,0.0238977298140525,0.0082889981567859,2.56358180195e-05,standing,2026-03-04_13-52-45
1772632371445251300,6.229251220703125,0.0459632942736148,0.1185090366549789,-0.0575245527297258,0.0197599548846483,0.0204699803143739,0.0034790227655321,standing,2026-03-04_13-52-45
1772632371455200300,6.2392001953125,0.0231597436500713,0.0866080238729715,0.0266425077319145,0.0089294118806719,0.0136160682886838,0.0053504258394241,standing,2026-03-04_13-52-45
1772632371465148200,6.249148193359375,0.0359021747147664,0.046304362796247,0.0912140563637018,-0.0082932263612747,0.0079571967944502,0.0036536452826112,standing,2026-03-04_13-52-45
1772632371475097000,6.25909716796875,-0.031770554802753,0.0267072435311973,0.1034440078616142,-0.0202098079025745,0.0022598954383283,-0.0023006503470242,standing,2026-03-04_13-52-45
1772632371485045200,6.269045166015625,-0.0492184966772794,0.0071482643194496,0.0730295803755521,-0.0240172203630208,0.0018495083786547,-0.0052039781585335,standing,2026-03-04_13-52-45
1772632371494994400,6.278994384765625,-0.0273502541424706,-0.0005833528459072,0.0225502699822187,-0.0188919678330421,0.0062610348686575,-0.0025738403201103,standing,2026-03-04_13-52-45
1772632371504942000,6.288942138671875,-0.0355363005444407,0.0278558290444314,-0.061686933106184,-0.0035828887484967,0.0193612650036811,0.0014698458835482,standing,2026-03-04_13-52-45
1772632371514891300,6.298891357421875,-0.0472656821090728,0.063587213769555,-0.1024590884774923,0.0122975409030914,0.0281281247735023,0.0037503107450902,standing,2026-03-04_13-52-45
1772632371524839400,6.30883935546875,-0.0601011617520824,0.0522317070186138,-0.0694336017102003,0.024579981341958,0.021466476842761,0.0054926658049225,standing,2026-03-04_13-52-45
1772632371534788400,6.318788330078125,-0.0476281952785328,0.0099940091393887,0.0307569573134183,0.0241743810474872,0.0001633192878216,-0.0023016075138002,standing,2026-03-04_13-52-45
1772632371544736500,6.328736572265625,-0.0960206163952127,-0.0408680169612169,0.1196153904616832,0.0137793682515621,-0.0112045537680387,-0.0108233839273452,standing,2026-03-04_13-52-45
1772632371554685400,6.338685546875,-0.0914076427070424,-0.073722677206248,0.1502630421817302,-0.0024350215680897,-0.0152975656092166,-0.0127464523538947,standing,2026-03-04_13-52-45
1772632371564633300,6.34863330078125,-0.0654798956483602,-0.0483412754513323,0.1433224292635917,-0.0164772309362888,-0.008518336340785,-0.0142873153090476,standing,2026-03-04_13-52-45
1772632371574582300,6.358582275390625,-0.065184529430978,-0.0299604001082479,0.0889642316102981,-0.0248041376471519,0.0060337078757584,-0.0141725335270166,standing,2026-03-04_13-52-45
1772632371584530400,6.368530517578125,-0.110257889127545,-0.0029196868389844,0.0057686465293169,-0.0198900699615478,0.036435168236494,-0.0137546900659799,standing,2026-03-04_13-52-45
1772632371594479400,6.378479248046875,-0.1135681827193126,0.0035226211681962,-0.0497568413376808,-0.0050019328482449,0.0486960969865322,-0.0122028663754463,standing,2026-03-04_13-52-45
1772632371604427300,6.38842724609375,-0.0637315541436895,-0.0092230247668921,-0.0016980360895395,0.0085165426135063,0.0283582173287868,-0.0095026949420571,standing,2026-03-04_13-52-45
1772632371614376200,6.398376220703125,-0.0097959658166393,-0.0406174032010138,0.1207546236246824,0.0133235482499003,-0.0203605853021144,-0.016659140586853,standing,2026-03-04_13-52-45
1772632371624324400,6.408324462890625,-0.0078913743043318,-0.0873638106763362,0.1926204209178686,0.0078469160944223,-0.0579034388065338,-0.0264979749917984,standing,2026-03-04_13-52-45
1772632371634273300,6.418273193359375,-0.0167907566074281,-0.1010148810185492,0.1599023926645517,-0.0060417358763515,-0.0656918585300445,-0.0363415516912937,standing,2026-03-04_13-52-45
1772632371644221200,6.42822119140625,-0.0500495041413232,-0.0476015629999339,0.0660883829355239,-0.0206130668520927,-0.0556096918880939,-0.0369876697659492,standing,2026-03-04_13-52-45
1772632371654170400,6.43817041015625,-0.0658266267267987,-0.001728723488748,-0.0587123012095689,-0.0345083773136138,-0.0287314746528863,-0.0358044244349002,standing,2026-03-04_13-52-45
1772632371664118300,6.4481181640625,-0.0156859006380662,0.0369834306128323,-0.1691483599156141,-0.036888550966978,0.0050173099152743,-0.0225291587412357,standing,2026-03-04_13-52-45
1772632371674067200,6.458067138671875,-0.0027504312193021,0.1056853570476174,-0.2535539053082466,-0.0225823149085044,0.0338766537606716,-0.003619382623583,standing,2026-03-04_13-52-45
1772632371684015400,6.468015380859375,0.0296069835606962,0.1329251000203192,-0.2732756738662719,-0.0033499202691018,0.028549687936902,0.0037648070137947,standing,2026-03-04_13-52-45
1772632371693964300,6.47796435546875,-0.009730718560703,0.0560363599985837,-0.2607102068036794,0.0232414752244949,0.0176331233233213,0.0009676890913397,standing,2026-03-04_13-52-45
1772632371703912200,6.487912109375,-0.0406504652203991,-0.0056968964673578,-0.240389887830615,0.0455269664525985,0.026958679780364,-0.0084146624431014,standing,2026-03-04_13-52-45
1772632371713861000,6.497861083984375,-0.0590078866226598,-0.0163489311240613,-0.1745154399067163,0.0576912201941013,0.0335886217653751,-0.0114764990285038,standing,2026-03-04_13-52-45
1772632371723809300,6.507809326171875,-0.0207417227229103,-0.0058940264746546,-0.0301595759421586,0.0535221025347709,0.0303731672465801,-0.0133040901273489,standing,2026-03-04_13-52-45
1772632371733758200,6.51775830078125,0.0319137261331081,-0.0103103816121816,0.1408288588821888,0.0339835546910762,0.0188720375299453,-0.0093250619247555,standing,2026-03-04_13-52-45
1772632371743706000,6.5277060546875,0.0642392479375004,-0.0065127428948879,0.2574853995382786,0.0127490554004907,0.0096585769206285,-0.0017461371608078,standing,2026-03-04_13-52-45
1772632371753655300,6.5376552734375,0.0445927731053903,-0.0039288638815283,0.3272632846415043,-0.0118713350966572,-0.0197467152029275,-0.0031392367091029,standing,2026-03-04_13-52-45
1772632371763603200,6.547603271484375,0.0071212301820516,-0.0177452077880501,0.2852963665276766,-0.0208963733166456,-0.0369911342859268,-0.0109303425997495,standing,2026-03-04_13-52-45
1772632371773552000,6.55755224609375,-0.0437593179559335,-0.0146620009504258,0.1103074638903141,-0.0154675189405679,-0.0146954134106636,-0.0171602759510278,standing,2026-03-04_13-52-45
1772632371783500300,6.567500244140625,-0.0775019034840166,0.0628453093610703,-0.022950667476654,-0.0078324507921934,0.0085963159799575,-0.0204408578574657,standing,2026-03-04_13-52-45
1772632371793449500,6.577449462890625,-0.0666940937437117,0.0803949945770204,-0.0667775342434644,-0.0027607264928519,0.0138470027595758,-0.0200957097113132,standing,2026-03-04_13-52-45
1772632371803397000,6.587397216796875,-0.0053033671051263,0.0411579398185014,-0.0276461318165063,-5.2286311984e-05,0.0175311304628849,-0.0115232849493622,standing,2026-03-04_13-52-45
1772632371813346300,6.59734619140625,0.0256333672219887,0.0579058071322739,0.0068079264491796,-0.0005692061968147,0.0155034000054001,-0.001413126476109,standing,2026-03-04_13-52-45
