time,seconds_elapsed,acc_x,acc_y,acc_z,gyr_x,gyr_y,gyr_z,activity,session
1772632326671174100,0.064174072265625,-0.1652319171242415,0.051138358823955,0.024925766941905,-0.0006690262816846,0.0300045367330312,-0.0105854049324989,standing,2026-03-04_13-52-06
1772632326681122000,0.0741220703125,-0.1420619078084826,0.0272106630086898,0.1639870316296816,-0.0444849506020545,0.0414209775626659,-0.008553147315979,standing,2026-03-04_13-52-06
1772632326691070000,0.084070068359375,-0.1706630022622644,0.0085894030384719,0.1806277853071689,-0.050612986087799,0.0588728412985801,-0.0154667859897017,standing,2026-03-04_13-52-06
1772632326701019100,0.09401904296875,-0.2672569250334054,0.0055140872463583,-0.006361351725459,-0.0096237417310476,0.0647991746664047,-0.0570927932858467,standing,2026-03-04_13-52-06
1772632326710967000,0.103967041015625,-0.418212552589178,0.0794004305817186,-0.1469634161144495,0.0560733117163181,0.0567882843315601,-0.06595990806818,standing,2026-03-04_13-52-06
1772632326720916000,0.113916015625,-0.3016363836929202,0.0475008791044354,-0.1267237611621618,0.1043654754757881,0.0296871587634086,-0.0703658461570739,standing,2026-03-04_13-52-06
1772632326730864000,0.123864013671875,-0.0908932269115,0.0958946153953671,0.0304191036611795,0.1238164529204368,-0.0134370364248752,-0.0696106627583503,standing,2026-03-04_13-52-06
1772632326740813000,0.13381298828125,-0.038059097020328,0.1741274635024368,0.2657330034017562,0.1145800724625587,-0.0445307753980159,-0.0545872412621974,standing,2026-03-04_13-52-06
1772632326750761000,0.143760986328125,0.1289746088288724,0.217253488523513,0.4211024288117885,0.0822169780731201,-0.0679274201393127,-0.0255215652287006,standing,2026-03-04_13-52-06
1772632326760710100,0.153710205078125,0.1957639065753668,0.2430314883805811,0.4970779995113611,0.0478126667439937,-0.0750194191932678,-0.0060959355905652,standing,2026-03-04_13-52-06
1772632326770658000,0.163657958984375,0.1145063038196414,0.2202045934140682,0.4210182576596736,0.0158704817295074,-0.0612023249268531,-0.0049535185098648,standing,2026-03-04_13-52-06
1772632326780607200,0.173607177734375,-0.0035622955914586,0.1246403790168464,0.304766206151247,-0.0181854888796806,-0.0421143844723701,-0.0185702610760927,standing,2026-03-04_13-52-06
1772632326790555100,0.18355517578125,-0.0893326995965093,0.0645665801957249,0.2109551190316677,-0.0412062779068946,-0.023159597069025,-0.0327898934483528,standing,2026-03-04_13-52-06
1772632326800504300,0.19350439453125,-0.1382921800114214,0.0431280708476901,0.1131119999170303,-0.0448516122996807,-0.0003874395042657,-0.0414957664906978,standing,2026-03-04_13-52-06
1772632326810452200,0.2034521484375,-0.1046787372883409,0.0730669897764921,0.0095621935933828,-0.0363722890615463,0.0054295118898153,-0.0370028913021087,standing,2026-03-04_13-52-06
1772632326820401200,0.213401123046875,-0.0529625785764306,0.1147301026381552,0.0102016605406999,-0.0238405186682939,-0.014060566201806,-0.0263369288295507,standing,2026-03-04_13-52-06
1772632326830349300,0.223349365234375,-0.0017456746235489,0.1573323960460722,0.0231792155355215,-0.0005691461265087,-0.0359573774039745,-0.0116624170914292,standing,2026-03-04_13-52-06
1772632326840298200,0.23329833984375,0.0650671501290053,0.1781575958013534,0.0245107564002275,0.03001219779253,-0.0465018972754478,0.0058792922645807,standing,2026-03-04_13-52-06
1772632326850246100,0.24324609375,0.054391953792423,0.1883434742510318,0.0211865804135799,0.0512141026556491,-0.0600354187190532,0.0109910713508725,standing,2026-03-04_13-52-06
1772632326860195000,0.253195068359375,-0.0280039322782307,0.1883478581652045,0.0822521667510271,0.0560216419398784,-0.0739166140556335,0.0078735752031207,standing,2026-03-04_13-52-06
1772632326870143200,0.263143310546875,-0.0245153595101088,0.1453461901761591,0.1620277142554521,0.0481092259287834,-0.0889803990721702,0.0085130576044321,standing,2026-03-04_13-52-06
1772632326880092200,0.273092041015625,-0.0055296501416712,0.1346535312481224,0.1940238579750061,0.0320796594023704,-0.0883961021900177,0.0097919078543782,standing,2026-03-04_13-52-06
1772632326890040000,0.2830400390625,0.0107554219659417,0.1517420286931097,0.1976724436104297,0.0110562238842248,-0.0781581774353981,0.0100226690992712,standing,2026-03-04_13-52-06
1772632326899989200,0.2929892578125,-0.0037574528373777,0.127018067933619,0.1501607508510351,-0.0100202988833189,-0.0509175024926662,0.0130586726590991,standing,2026-03-04_13-52-06
1772632326909937200,0.302937255859375,-0.0312407953076064,0.1104728835850954,0.108418289142847,-0.0281879901885986,-0.0286818873137235,0.0127510465681552,standing,2026-03-04_13-52-06
1772632326919886000,0.312885986328125,-0.0442082672998309,0.1320142687857151,0.1324655196845531,-0.0387386381626129,-0.0184806492179632,0.0157063566148281,standing,2026-03-04_13-52-06
1772632326929834200,0.322834228515625,0.016527648691833,0.1297911859087646,0.1480892052739858,-0.0457621626555919,-0.0200088620185852,0.0196342319250106,standing,2026-03-04_13-52-06
1772632326939783200,0.332783203125,0.0574815173055976,0.0630329408876597,0.1458908184468746,-0.0495252087712287,-0.0338703468441963,0.0116609949618577,standing,2026-03-04_13-52-06
1772632326949731000,0.34273095703125,0.0140551941636949,0.016662819378823,0.1387204884260892,-0.0451909974217414,-0.0531386323273181,0.0018159486353397,standing,2026-03-04_13-52-06
1772632326959680000,0.352679931640625,0.0537106935299932,-0.0030018121644854,0.0920960998952388,-0.0389544069766998,-0.0630583688616752,0.0051531558856368,standing,2026-03-04_13-52-06
1772632326969628200,0.362628173828125,0.1208242547947913,-0.0173879187829792,0.0416202966332435,-0.0281778201460838,-0.0595426075160503,0.0152303492650389,standing,2026-03-04_13-52-06
1772632326979577000,0.3725771484375,0.1458767168562859,-0.0148857267037034,-0.0100824180752038,-0.0238371342420578,-0.0534413084387779,0.0226198211312294,standing,2026-03-04_13-52-06
1772632326989525000,0.38252490234375,0.0920507994487881,-0.0022431027516722,-0.0079623571813106,-0.0228430181741714,-0.0578364320099353,0.025471894070506,standing,2026-03-04_13-52-06
1772632326999474200,0.39247412109375,0.1032342375684529,-0.0398256683014333,0.0440863944858312,-0.0280284602195024,-0.0724566504359245,0.0317425727844238,standing,2026-03-04_13-52-06
1772632327009422000,0.402422119140625,0.1257020168989896,-0.0804008397959172,0.0873544583261013,-0.037098292261362,-0.0801686570048332,0.0353509560227394,standing,2026-03-04_13-52-06
1772632327019371000,0.41237109375,0.0985205799847841,-0.0964233154445886,0.0744680887460708,-0.0358937419950962,-0.0875240415334701,0.031267262995243,standing,2026-03-04_13-52-06
1772632327029319200,0.422319091796875,0.0040109161417931,-0.1294507019080221,0.017639117065072,-0.0325540229678154,-0.1086957529187202,0.0199206434190273,standing,2026-03-04_13-52-06
1772632327039268000,0.43226806640625,-0.0066688833046704,-0.1249751639291644,-0.0722732090502977,-0.0215128250420093,-0.1058688089251518,0.0174431055784225,standing,2026-03-04_13-52-06
1772632327049216000,0.442216064453125,0.0697662677306681,-0.0872204566828906,-0.1900800887852907,-0.0064149112440645,-0.0729652792215347,0.0340960472822189,standing,2026-03-04_13-52-06
1772632327059165200,0.452165283203125,0.0682491411659866,-0.0164895086385309,-0.2505938864588737,0.00753765553236,-0.0420686155557632,0.0429657027125358,standing,2026-03-04_13-52-06
1772632327069113000,0.462113037109375,0.0097529669251292,-0.0011573533415794,-0.2547287943065166,0.0175114851444959,-0.0307531524449586,0.0406971350312233,standing,2026-03-04_13-52-06
1772632327079062300,0.472062255859375,-0.006717252491042,-0.0722514356099069,-0.1977566147625446,0.0181690193712711,-0.0383104048669338,0.0453054681420326,standing,2026-03-04_13-52-06
1772632327089010200,0.48201025390625,0.0404831823620945,-0.1102922663211822,-0.138743284779787,0.0118667036294937,-0.0395949780941009,0.0493730716407299,standing,2026-03-04_13-52-06
1772632327098959000,0.491958984375,0.0232663092970848,-0.104872871620953,-0.0869265883028507,0.0125332921743392,-0.0241590291261672,0.0501664280891418,standing,2026-03-04_13-52-06
1772632327108907300,0.5019072265625,-0.0270580297302454,-0.0763737762369215,-0.0736304688781499,0.0127532538026571,-0.0292570292949676,0.0480319261550903,standing,2026-03-04_13-52-06
1772632327118856200,0.511856201171875,-0.0191420689739286,-0.0860413299009203,-0.0482440986871719,0.0144406324252486,-0.058083351701498,0.0415721647441387,standing,2026-03-04_13-52-06
1772632327128804000,0.52180419921875,0.0216802822146564,-0.1135056754097342,-0.0356353770047426,0.0271168649196624,-0.0802458748221397,0.0402683168649673,standing,2026-03-04_13-52-06
1772632327138753300,0.531753173828125,0.0050194355972111,-0.0870364784181118,-0.1361801562935113,0.0421085953712463,-0.0758359432220459,0.0361084565520286,standing,2026-03-04_13-52-06
1772632327148701200,0.541701171875,-0.0138684394199401,-0.0172606391414999,-0.160800802809,0.0488745681941509,-0.0664299950003624,0.0344359129667282,standing,2026-03-04_13-52-06
1772632327158650000,0.551650146484375,-0.0246479729138314,-0.0025729192279279,-0.1013385600149631,0.0329587198793888,-0.0496313087642192,0.0291298292577266,standing,2026-03-04_13-52-06
1772632327168598300,0.561598388671875,-0.0235974409475922,-0.0404644045963883,-0.0856079069197177,0.0145440269261598,-0.0185237918049097,0.0284698233008384,standing,2026-03-04_13-52-06
1772632327178547200,0.571547119140625,-0.0698579646021127,-0.0349888957947492,-0.0973351695924997,-0.0052405968308448,0.0170275438576936,0.0237016975879669,standing,2026-03-04_13-52-06
1772632327188495000,0.5814951171875,-0.126989645556733,-0.0224335117347538,-0.0968184522420167,-0.0186133943498134,0.0133846057578921,0.0112141361460089,standing,2026-03-04_13-52-06
1772632327198444000,0.591444091796875,-0.1233531156852841,-0.005081102656573,-0.050420273682475,-0.0211236886680126,-0.0114440452307462,0.0113555500283837,standing,2026-03-04_13-52-06
1772632327208392200,0.60139208984375,-0.0283748114172369,0.0334630014017224,-0.0923152956038713,-0.0039701513014733,-0.0188099294900894,0.0299745518714189,standing,2026-03-04_13-52-06
1772632327218341000,0.611341064453125,0.0486659773610532,0.1014028574228286,-0.19550854357481,0.0280647464096546,-0.0064123817719519,0.0502294898033142,standing,2026-03-04_13-52-06
1772632327228289000,0.6212890625,0.0221012841057032,0.1719078877568244,-0.2426642625033855,0.0517409890890121,0.0058976784348487,0.0552139729261398,standing,2026-03-04_13-52-06
1772632327238238200,0.63123828125,-0.0857288298856467,0.1044444170758128,-0.1630839453101158,0.0645691752433776,0.0005346040707081,0.0429080352187156,standing,2026-03-04_13-52-06
1772632327248186000,0.64118603515625,-0.1524583602689206,0.0537150774441659,0.0102642043828964,0.046855729073286,-0.0102409711107611,0.031529851257801,standing,2026-03-04_13-52-06
1772632327258135000,0.651135009765625,-0.1579605378817767,0.0134504332035779,0.1871615709900856,0.0206038858741521,-0.0178999565541744,0.0268805064260959,standing,2026-03-04_13-52-06
1772632327268083200,0.661083251953125,-0.1318215957578271,0.0250280582726001,0.2991530424445867,-0.0103434715420007,-0.025629224255681,0.0248638950288295,standing,2026-03-04_13-52-06
1772632327278032100,0.6710322265625,-0.1088905097644776,0.0429030299201607,0.3437134841829538,-0.0379817597568035,-0.0348213911056518,0.0223618559539318,standing,2026-03-04_13-52-06
1772632327287979300,0.680979248046875,-0.0926706118475645,0.0634675329126417,0.3626274434894323,-0.0598146207630634,-0.0273914393037557,0.0291206929832696,standing,2026-03-04_13-52-06
1772632327297928400,0.690928466796875,-0.1144550120238214,0.0645836774609982,0.303358092918992,-0.0618178509175777,-0.0006780691910535,0.0309316422790288,standing,2026-03-04_13-52-06
1772632327307876400,0.70087646484375,-0.1865558601818978,0.0381760013982653,0.2326461418360471,-0.0478195287287235,0.0065863654017448,0.0169994216412305,standing,2026-03-04_13-52-06
1772632327317825300,0.7108251953125,-0.2493760351017117,0.0067731473967432,0.1953840404123067,-0.0329998359084129,-0.0146941561251878,-0.0117701739072799,standing,2026-03-04_13-52-06
1772632327327773400,0.7207734375,-0.257590905739367,-0.047964112702012,0.2159942822426557,-0.0329890102148056,-0.0517576113343238,-0.0325466245412826,standing,2026-03-04_13-52-06
1772632327337722400,0.730722412109375,-0.1641825542017817,-0.0630664047658443,0.2019295165330171,-0.0367667041718959,-0.0708673894405365,-0.03455251455307,standing,2026-03-04_13-52-06
1772632327347670300,0.740670166015625,-0.0762590638160705,-0.0189180509597063,0.1986252142906188,-0.0408137701451778,-0.0785226821899414,-0.0277854613959789,standing,2026-03-04_13-52-06
1772632327357619200,0.750619140625,-0.0398022143606096,0.0503163749165833,0.1693020891726017,-0.0482485182583332,-0.10026366263628,-0.0233688727021217,standing,2026-03-04_13-52-06
1772632327367567400,0.7605673828125,0.017229111492075,0.0584888677172362,0.1201420446842908,-0.0558068342506885,-0.1085450276732444,-0.0095420088618993,standing,2026-03-04_13-52-06
1772632327377516300,0.770516357421875,0.0540389025710523,0.0326817878961563,0.0213362180173397,-0.0552411824464798,-0.0946047157049179,-0.0009719562949612,standing,2026-03-04_13-52-06
1772632327387464200,0.780464111328125,-0.0318321487968787,0.0360078635789454,-0.1069090536236763,-0.0392327457666397,-0.0687685683369636,-0.0092888055369257,standing,2026-03-04_13-52-06
1772632327397413400,0.790413330078125,-0.1436594426656141,0.0417211266592144,-0.186597507366538,-0.0253590084612369,-0.053464975208044,-0.0146281775087118,standing,2026-03-04_13-52-06
1772632327407361300,0.800361328125,-0.0903020195527002,0.0525964486777782,-0.1858294456034898,-0.0201753377914428,-0.0527051985263824,-0.0064301048405468,standing,2026-03-04_13-52-06
1772632327417310200,0.810310302734375,0.0383719258291646,0.070024407210201,-0.062880526804924,-0.0326256155967712,-0.0570911578834056,0.0077435048297047,standing,2026-03-04_13-52-06
1772632327427258400,0.82025830078125,0.1057567417833954,0.0489623299591243,0.0547282000094652,-0.0458915717899799,-0.0542823337018489,0.014085722155869,standing,2026-03-04_13-52-06
1772632327437207300,0.830207275390625,0.0354107744686305,0.0094580025665462,0.0504588521271944,-0.0486916191875934,-0.0450526140630245,0.004014978185296,standing,2026-03-04_13-52-06
1772632327447155200,0.8401552734375,-0.0629216625329107,0.0138543378293514,0.027165654823184,-0.049475073814392,-0.0400226265192031,-0.0066337483003735,standing,2026-03-04_13-52-06
1772632327457104400,0.8501044921875,-0.0547843506434932,0.0105284082770347,0.049539983716607,-0.0528871156275272,-0.0445052571594715,-0.0036283710505813,standing,2026-03-04_13-52-06
1772632327467052300,0.86005224609375,0.0271103444393724,0.0286779590822756,0.0548760840475559,-0.0439189597964286,-0.0578246526420116,0.0006323009729385,standing,2026-03-04_13-52-06
1772632327477001500,0.87000146484375,0.0465872348582372,0.0114221422463655,-0.0221171392619609,-0.0275908540934324,-0.0495115965604782,-0.0017504291608929,standing,2026-03-04_13-52-06
1772632327486949400,0.879949462890625,0.0101986283333972,0.0077262103378772,-0.1133598371982574,-0.0086737480014562,-0.0358638502657413,-0.0048330835998058,standing,2026-03-04_13-52-06
1772632327496898300,0.889898193359375,-0.0491446277234703,0.0073985858187079,-0.164685535287857,0.0120776025578379,-0.0316888093948364,-0.0170519333332777,standing,2026-03-04_13-52-06
1772632327506846500,0.899846435546875,-0.0853503519620746,-0.0299298588395118,-0.2037859580546617,0.0338941253721714,-0.021321851760149,-0.0254255756735801,standing,2026-03-04_13-52-06
1772632327516795400,0.90979541015625,-0.0309602248005568,-0.0121720838308334,-0.2544189977049827,0.0403400398790836,0.0050666127353906,-0.0174470115453004,standing,2026-03-04_13-52-06
1772632327526743300,0.919743408203125,0.0268562966130673,0.0414753352046012,-0.201496970334649,0.0354422219097614,0.0235545448958873,-0.0090774949640035,standing,2026-03-04_13-52-06
1772632327536692500,0.9296923828125,0.0309957710379734,0.0358531114086508,-0.0915840587198734,0.0177348628640174,0.0195728503167629,-0.0112279979512095,standing,2026-03-04_13-52-06
1772632327546640400,0.939640380859375,0.0228158255832269,-0.050051148109138,0.0171919578194618,-0.0049354536458849,0.0035856345202773,-0.0131446244195103,standing,2026-03-04_13-52-06
1772632327556589300,0.94958935546875,0.0524476513242349,-0.0929964097358286,0.0860714327782392,-0.0205229353159666,-0.0016219106037169,-0.0064792651683092,standing,2026-03-04_13-52-06
1772632327566537500,0.959537353515625,0.0501649106819182,-0.0764276983812451,0.0501624995291233,-0.0209855269640684,0.008653363212943,-0.0001742315944284,standing,2026-03-04_13-52-06
1772632327576486400,0.969486328125,-0.0252303028464317,-0.0170716924406588,-0.009696049106121,-0.0058310749009251,0.0131562361493706,-0.0024741373490542,standing,2026-03-04_13-52-06
1772632327586434300,0.979434326171875,-0.0543848299318924,0.0008934417083859,-0.0558709403038024,0.0119378101080656,-0.0010087036062031,-0.0026946540456265,standing,2026-03-04_13-52-06
1772632327596383200,0.98938330078125,-0.0673698010481894,-0.0091518592268228,-0.0404372243285179,0.0301977731287479,-0.0119835902005434,-0.0129704605787992,standing,2026-03-04_13-52-06
1772632327606331400,0.999331298828125,-0.0912970584720373,-0.0194612179256975,-0.0521568882167339,0.0427733846008777,0.0010873463470488,-0.0164989400655031,standing,2026-03-04_13-52-06
1772632327616279300,1.009279296875,-0.1324020259942859,0.008915566252917,-0.0263391408711671,0.0407387316226959,0.0147006269544363,-0.0222292635589838,standing,2026-03-04_13-52-06
1772632327626228200,1.019228271484375,-0.165870470756106,0.0132870593354105,0.074434186476469,0.0221738815307617,-0.0004631576593965,-0.0371254906058311,standing,2026-03-04_13-52-06
1772632327636176400,1.02917626953125,-0.1624658864770084,-0.037309447696805,0.2014256586641073,-0.0098266620188951,-0.0157140158116817,-0.0485328771173954,standing,2026-03-04_13-52-06
1772632327646125300,1.039125244140625,-0.0877098111024126,-0.0606270487897098,0.2299392209649086,-0.0335472077131271,-0.0042899614199995,-0.0490052253007888,standing,2026-03-04_13-52-06
1772632327656073200,1.0490732421875,-0.0485098734838888,-0.0441620900705456,0.1387421157360076,-0.0400250814855098,0.0119931381195783,-0.0435010008513927,standing,2026-03-04_13-52-06
1772632327666022400,1.0590224609375,-0.0266081670708954,0.0583165798902511,0.0408861371397972,-0.0319658480584621,0.0184010602533817,-0.0322624444961547,standing,2026-03-04_13-52-06
1772632327675970300,1.06897021484375,0.0370501026408746,0.1161262331716716,-0.0191688108503818,-0.0130920242518186,0.0146499974653124,-0.0113369217142462,standing,2026-03-04_13-52-06
1772632327685919200,1.078919189453125,0.106465693770349,0.1281117083892226,-0.0233504804491996,0.0071382531896233,-0.0014810294378548,0.0033464673906564,standing,2026-03-04_13-52-06
1772632327695867400,1.088867431640625,0.0786523886933922,0.1190599485360085,-0.0140530752718448,0.0199342109262943,-0.0277962554246187,0.0065441252663731,standing,2026-03-04_13-52-06
1772632327705816300,1.09881640625,-0.0192718693660572,0.0705184743374586,0.025317396607995,0.0240160208195447,-0.0411925688385963,-0.0077385921031236,standing,2026-03-04_13-52-06
1772632327715764200,1.10876416015625,-0.1012374377280473,-0.012680033352971,0.0111497550457715,0.0166222862899303,-0.0314637720584869,-0.0259151980280876,standing,2026-03-04_13-52-06
1772632327725713200,1.118713134765625,-0.1090258996471762,-0.0690396339565515,-0.0067664253950119,0.0071171554736793,0.0044431556016206,-0.0320420339703559,standing,2026-03-04_13-52-06
1772632327735661300,1.128661376953125,-0.1019827762026339,-0.0202300103411078,-0.0192599962651729,-0.007124098483473,0.0244943611323833,-0.0321935676038265,standing,2026-03-04_13-52-06
1772632327745610200,1.1386103515625,-0.0609079480903223,0.0246044260330498,0.009850947406888,-0.0188963487744331,0.0224965289235115,-0.0244069416075944,standing,2026-03-04_13-52-06
1772632327755558100,1.14855810546875,0.0579261192679405,0.0531681110858917,0.0177010763853788,-0.022511588409543,0.0220302082598209,-0.0052548199892044,standing,2026-03-04_13-52-06
1772632327765507300,1.15850732421875,0.1077624555826187,0.0478133060544729,-0.0064075289547443,-0.0138891153037548,0.0279613938182592,0.0131180947646498,standing,2026-03-04_13-52-06
1772632327775455200,1.168455322265625,0.072150276790373,0.0607194032482802,-0.0245464122354984,0.0004578670486807,0.0149201611056923,0.0089188227429986,standing,2026-03-04_13-52-06
1772632327785404400,1.178404296875,-0.0387201547449454,0.035026597456634,0.0255167185723781,0.0101829981431365,-0.0173534583300352,-0.0091087697073817,standing,2026-03-04_13-52-06
1772632327795352300,1.188352294921875,-0.0651342605484649,-0.0402237277083098,0.025319150173664,0.0123449526727199,-0.024566363543272,-0.0207513105124235,standing,2026-03-04_13-52-06
1772632327805301500,1.198301513671875,-0.0280597906513139,-0.0351855874106287,0.0465133293718099,0.0053123184479773,-0.0027648869436234,-0.0125404298305511,standing,2026-03-04_13-52-06
1772632327815249400,1.20824951171875,-0.0315065701043233,0.0340545375540852,0.0353705885887146,-0.0048292656429111,0.0252827256917953,-0.009538248181343,standing,2026-03-04_13-52-06
1772632327825198300,1.2181982421875,-0.0500732138104736,0.0867028625495731,0.0940723684042692,-0.014737457036972,0.0156973339617252,-0.0080143306404352,standing,2026-03-04_13-52-06
1772632327835146500,1.228146484375,-0.0005209916668012,0.0584261777445673,0.1379705468416213,-0.0200528595596551,0.0081206411123275,0.0030055630486458,standing,2026-03-04_13-52-06
1772632327845095400,1.238095458984375,0.0900114391082897,0.0591226355761289,0.0973386767238378,-0.0188167560845613,0.0174465849995613,0.0213246196508407,standing,2026-03-04_13-52-06
1772632327855043300,1.248043212890625,0.0542364344371482,0.1057487776726484,0.0762169782400131,-0.012129558250308,0.0154135255143046,0.0183125846087932,standing,2026-03-04_13-52-06
1772632327864992300,1.2579921875,-0.0501738977059721,0.0491134288676083,0.097940734270215,-0.0142376143485307,-0.0117916045710444,-0.0066086873412132,standing,2026-03-04_13-52-06
1772632327874940400,1.2679404296875,-0.1066614355381578,-0.0582044978179037,0.098772508919239,-0.0205397196114063,-0.0382519736886024,-0.0259562879800796,standing,2026-03-04_13-52-06
1772632327884889300,1.277889404296875,-0.0626738252516836,-0.0821007755815982,0.0680997227579355,-0.0293500907719135,-0.0517753660678863,-0.0322544537484645,standing,2026-03-04_13-52-06
1772632327894837500,1.28783740234375,-0.0393874595472589,-0.0241987678416073,0.0352086760252714,-0.0403769090771675,-0.0450295768678188,-0.0313167534768581,standing,2026-03-04_13-52-06
1772632327904786400,1.297786376953125,-0.0193934133864939,0.0333938816882669,-0.0664946256488561,-0.0426416657865047,-0.0258975774049758,-0.01809654943645,standing,2026-03-04_13-52-06
1772632327914734300,1.307734375,0.0340827042026445,0.0843725199058651,-0.1572761358141899,-0.0351595133543014,0.0014150051865726,0.0018987299408763,standing,2026-03-04_13-52-06
1772632327924683300,1.317683349609375,0.0532610135337337,0.1307978787332773,-0.2233832234501838,-0.0160134322941303,0.0160689763724803,0.0250148326158523,standing,2026-03-04_13-52-06
1772632327934631400,1.32763134765625,0.0503663150055333,0.1452415607579052,-0.262283155208826,0.0189091302454471,0.0332269258797168,0.0344552062451839,standing,2026-03-04_13-52-06
1772632327944580400,1.337580322265625,-0.017369835137017,0.1078413660377264,-0.3032370968878269,0.0494623929262161,0.0454086028039455,0.0323288962244987,standing,2026-03-04_13-52-06
1772632327954528300,1.3475283203125,-0.078742770390585,0.0428697121724486,-0.2353156533062458,0.0624740645289421,0.0427667461335659,0.0265700742602348,standing,2026-03-04_13-52-06
1772632327964477200,1.357477294921875,-0.1147825634777545,-0.0248334124833345,-0.0699947427242994,0.0575433522462844,0.0236119944602251,0.0098643694072961,standing,2026-03-04_13-52-06
1772632327974425300,1.36742529296875,-0.1257906084978953,-0.092701956833899,0.0908434694856405,0.0378857627511024,0.0016843255143612,-0.0057699833996593,standing,2026-03-04_13-52-06
1772632327984374300,1.377374267578125,-0.0831621212027966,-0.1290918054677546,0.1869961512953042,0.0155188459903001,-0.007279535755515,-0.0109568880870938,standing,2026-03-04_13-52-06
1772632327994322200,1.387322265625,-0.0570039629217237,-0.115571521898359,0.1969844613462686,-0.0040428708307445,-0.0007207028102129,-0.0123230898752808,standing,2026-03-04_13-52-06
1772632328004271400,1.397271240234375,-0.0578127585539594,-0.0544832853376865,0.1379869134545326,-0.0108165591955184,0.0019126483239233,-0.0120489001274108,standing,2026-03-04_13-52-06
1772632328014219300,1.40721923828125,-0.0902840089719742,-0.0129531512059271,0.070942837229371,-0.0086223818361759,0.0020841560326516,-0.0172639023512601,standing,2026-03-04_13-52-06
1772632328024168200,1.417168212890625,-0.095843981186673,-0.0237220902405679,0.0137163906633853,-0.0042128544300794,0.0030703593511134,-0.0191099680960178,standing,2026-03-04_13-52-06
1772632328034116400,1.427116455078125,-0.0770247144263237,-0.0038468846864998,-0.0428501306891441,0.0007869638502597,0.0136167434975504,-0.020770713686943,standing,2026-03-04_13-52-06
1772632328044065300,1.437065185546875,-0.0935438875507563,0.0167379304416477,-0.0646995589256286,0.0025554578751325,0.0306572411209344,-0.0211081877350807,standing,2026-03-04_13-52-06
1772632328054013200,1.44701318359375,-0.0815682030748575,0.0222846047833561,-0.0537204842716455,0.0056545785628259,0.0351577177643775,-0.0162982530891895,standing,2026-03-04_13-52-06
1772632328063962000,1.456962158203125,-0.0227965363608673,0.0346603944927454,-0.0113853173673152,0.0121093932539224,0.0283032786101102,-0.0037730885669589,standing,2026-03-04_13-52-06
1772632328073910300,1.46691015625,0.0481324184736236,0.0514417256847023,0.0119254155933856,0.0185779444873332,0.009715212509036,0.0092489700764417,standing,2026-03-04_13-52-06
1772632328083859500,1.476859375,0.0526321045130491,0.0694113898783922,0.062166241055727,0.0291828848421573,-0.0169699862599372,0.0081855971366167,standing,2026-03-04_13-52-06
1772632328093807000,1.48680712890625,-0.0327422859117388,0.0494473369970917,0.0619867928355932,0.0357486419379711,-0.0378888510167598,-0.0063155815005302,standing,2026-03-04_13-52-06
1772632328103756500,1.496756591796875,-0.1028154276344925,-0.0047080315604805,0.0549590861558914,0.0359435304999351,-0.0438813641667366,-0.0166743714362382,standing,2026-03-04_13-52-06
1772632328113704400,1.506704345703125,-0.0928106779053807,-0.006837883196026,0.0343535205006599,0.0274294055998325,-0.0268168933689594,-0.0145212048664689,standing,2026-03-04_13-52-06
1772632328123653400,1.5166533203125,-0.0429310869708657,0.0596165565729141,0.0077899232238531,0.0141512583941221,-0.0026026284322142,-0.0106166945770382,standing,2026-03-04_13-52-06
1772632328133601500,1.5266015625,-0.0352944546125829,0.0979179379165172,0.0465863946080207,-0.0039758132770657,0.0165455006062984,-0.0058416472747921,standing,2026-03-04_13-52-06
1772632328143550500,1.536550537109375,-0.0219288866808637,0.0781242731660604,0.0822007288247346,-0.0159617122262716,0.0370151400566101,-7.70457554608e-05,standing,2026-03-04_13-52-06
1772632328153498400,1.546498291015625,-0.0064225438607856,0.0502690286435186,0.0659270548939704,-0.0180517602711915,0.0372766628861427,-0.0012522987090051,standing,2026-03-04_13-52-06
1772632328163447300,1.556447265625,-0.0450680259343236,0.0210750828631222,0.0379717109978198,-0.004223583266139,0.0156035618856549,-0.0116644464433193,standing,2026-03-04_13-52-06
1772632328173395500,1.5663955078125,-0.0625085882199928,-0.001303483814001,-0.021963994526863,0.0113098360598087,-0.0006371927447617,-0.0121504729613661,standing,2026-03-04_13-52-06
1772632328183344400,1.576344482421875,0.0131014736354351,0.0075749652989208,-0.0420814844042062,0.0198455210775136,-0.0035126360598951,-0.0024038224946707,standing,2026-03-04_13-52-06
1772632328193292300,1.586292236328125,0.068701561108604,0.0544923454269766,-0.0305634805679321,0.0197379291057586,0.0045735202729702,0.0063744895160198,standing,2026-03-04_13-52-06
1772632328203241500,1.596241455078125,0.0138775360418483,0.0533719630949199,0.0003097966015338,0.0125937461853027,-0.0014880725648254,0.0002007347065955,standing,2026-03-04_13-52-06
1772632328213189400,1.606189453125,-0.0230101791115477,0.0117076811894774,0.0094902974009513,0.0073233502916991,-0.0061557949520647,0.0024529702495783,standing,2026-03-04_13-52-06
1772632328223137300,1.61613720703125,0.0236527878640219,0.0188419169835746,-0.0370282926678657,0.0123430341482162,0.0103805661201477,0.0122024863958358,standing,2026-03-04_13-52-06
1772632328233086500,1.62608642578125,0.0234760430576279,0.0707405926555395,-0.0960673416137695,0.0267821587622165,0.0251909382641315,0.0133918542414903,standing,2026-03-04_13-52-06
1772632328243034400,1.636034423828125,-0.0491626383041962,0.0643207887411117,-0.1341571260333061,0.0431920289993286,0.0298549309372901,0.0075368941761553,standing,2026-03-04_13-52-06
1772632328252983300,1.6459833984375,-0.0906729352243244,0.0417765101082623,-0.0904103387653827,0.0502097234129905,0.0163577646017074,0.0018417239189147,standing,2026-03-04_13-52-06
1772632328262931500,1.655931396484375,-0.06112897042986,0.0025170973874628,-0.005430792877078,0.04386942461133,0.004372201859951,-0.0033280549105256,standing,2026-03-04_13-52-06
1772632328272880400,1.66588037109375,-0.0714419458579272,-0.0219606335259974,0.087062197381258,0.0323113054037094,-0.0006686293054372,-0.0106541449204087,standing,2026-03-04_13-52-06
1772632328282829000,1.6758291015625,-0.0713969376724213,-0.0271593712128698,0.1306967564463615,0.016794616356492,0.0016142434906214,-0.0028762815054506,standing,2026-03-04_13-52-06
1772632328292778000,1.685778076171875,-0.0408743371041491,-0.0059133156970143,0.1219791969835758,0.0071081668138504,0.0070148678496479,-0.0017899781232699,standing,2026-03-04_13-52-06
1772632328302726100,1.69572607421875,-0.0701171269949525,0.0125832949802279,0.0836176098853349,0.0105624077841639,0.0177826359868049,-0.0008865048876032,standing,2026-03-04_13-52-06
1772632328312675000,1.705675048828125,-0.0727756056144833,0.017362199819833,0.0418307245135307,0.0175489448010921,0.0281593780964612,0.0008876929059624,standing,2026-03-04_13-52-06
1772632328322623000,1.715623046875,-0.0589356616366654,0.0353027840495109,0.0283808758318424,0.0194251406937837,0.0269213523715734,0.0006015847902745,standing,2026-03-04_13-52-06
1772632328332572000,1.725572021484375,-0.0783067535934969,0.0323009718850255,0.0917705212026834,0.0156852640211582,0.0100651402026414,-0.0058901365846395,standing,2026-03-04_13-52-06
1772632328342520000,1.73552001953125,-0.0929595483241602,-0.0089097210340201,0.1688216121792793,0.0063439905643463,-0.0081450631842017,-0.0105582131072878,standing,2026-03-04_13-52-06
1772632328352469000,1.745468994140625,-0.064455009580031,-0.0128612351387739,0.1736632069915533,-0.0029256739653646,-0.0165787618607282,-0.0195085629820823,standing,2026-03-04_13-52-06
1772632328362417000,1.7554169921875,-0.0819882185852155,-0.0182774149686098,0.1067512327134609,-0.0019591101445257,-0.0045424802228808,-0.0248542688786983,standing,2026-03-04_13-52-06
1772632328372366000,1.765365966796875,-0.0844768205305561,-0.0042398295268416,-0.0253442846149206,0.0149564910680055,0.0138280047103762,-0.0199585817754268,standing,2026-03-04_13-52-06
1772632328382314000,1.77531396484375,-0.0302735577106475,0.0359644628286361,-0.1042103160589933,0.0333437584340572,0.0210610311478376,-0.0113129029050469,standing,2026-03-04_13-52-06
1772632328392263200,1.78526318359375,0.0507751880673691,0.056411769182235,-0.0921767639160156,0.0429484471678733,0.0147735746577382,0.0028886701911687,standing,2026-03-04_13-52-06
1772632328402211000,1.795211181640625,0.1069288543026894,0.0454388320080935,0.0245224468380212,0.0363116860389709,-0.0089653339236974,0.0092563536018133,standing,2026-03-04_13-52-06
1772632328412160300,1.80516015625,0.0870998259779065,-0.011911679328978,0.1286766487956047,0.0197361707687377,-0.0407967679202556,-0.006383859552443,standing,2026-03-04_13-52-06
1772632328422108200,1.815108154296875,-0.0629819778854027,-0.0719482148796319,0.1267389587312936,0.0011669211089611,-0.0660465583205223,-0.0334768034517765,standing,2026-03-04_13-52-06
1772632328432057000,1.82505712890625,-0.1260165627408772,-0.1079601701118052,0.0467214191645383,-0.0166083481162786,-0.0590230040252208,-0.0438061393797397,standing,2026-03-04_13-52-06
1772632328442005200,1.835005126953125,-0.0644502603396773,-0.0425140306025743,-0.0999450598299503,-0.0294937770813703,-0.0159941632300615,-0.0335721485316753,standing,2026-03-04_13-52-06
1772632328451954200,1.8449541015625,-0.0067993778165429,0.0842766583159565,-0.2357452768951654,-0.023476630449295,0.0341142788529396,-0.0132959056645631,standing,2026-03-04_13-52-06
1772632328461902000,1.854902099609375,0.0274418048834428,0.1690593664579093,-0.3037356940597295,-0.0082512833178043,0.0684007480740547,0.01360644120723,standing,2026-03-04_13-52-06
1772632328471851000,1.86485107421875,0.0912755407599732,0.1691198644734919,-0.2661760709941387,0.012522704899311,0.0747135058045387,0.0353373028337955,standing,2026-03-04_13-52-06
1772632328481799200,1.874799072265625,0.0761301767393946,0.1339544430680573,-0.1707066952735185,0.0342746526002883,0.0572716519236564,0.0396733619272708,standing,2026-03-04_13-52-06
1772632328491748000,1.884748046875,-0.007961115072295,0.0939559024177491,-0.0456383001029491,0.0547655448317527,0.0251885522156953,0.0310902576893568,standing,2026-03-04_13-52-06
1772632328501696000,1.894696044921875,-0.0668473115440458,0.0119455815985798,0.059379825207591,0.0597969889640808,-0.0031828007195144,0.0225458927452564,standing,2026-03-04_13-52-06
1772632328511645200,1.904645263671875,-0.0590467938609421,-0.0274500247225165,0.1254348903954029,0.0589098893105983,-0.0167500078678131,0.009664449840784,standing,2026-03-04_13-52-06
1772632328521593000,1.914593017578125,-0.0803452006185427,-0.0295138253845274,0.1628536436855792,0.0483011417090892,-0.0142376897856593,-0.0007707864278927,standing,2026-03-04_13-52-06
1772632328531542000,1.9245419921875,-0.100974293279834,-0.0063264265425503,0.1841530368238687,0.029398825019598,-0.0028066036757081,-0.0061562308110296,standing,2026-03-04_13-52-06
1772632328541490200,1.934490234375,-0.0688521120278164,0.006836129630357,0.201985630634427,0.0066116745583713,0.0040072654373943,-0.0034545233938843,standing,2026-03-04_13-52-06
1772632328551439000,1.944439208984375,-0.0216810859322547,0.0327810104869306,0.2295475912988185,-0.014132484793663,0.0059875920414924,0.0006992088165134,standing,2026-03-04_13-52-06
1772632328561387000,1.954386962890625,-0.0188577721398323,0.0523529953107237,0.2062058786779642,-0.0275148265063762,0.0061218035407364,0.0036048823967576,standing,2026-03-04_13-52-06
1772632328571336000,1.9643359375,-0.0348039311492815,0.0537431344948709,0.1665519136816263,-0.0311143547296524,-0.0082326345145702,0.0039300541393458,standing,2026-03-04_13-52-06
1772632328581284000,1.9742841796875,-0.0204174957372248,0.0344216173008084,0.0925631328850984,-0.0245890226215124,-0.0237022694200277,0.002512878505513,standing,2026-03-04_13-52-06
1772632328591233000,1.98423291015625,-0.0412633729543536,0.0233392284028232,-0.0348632235884666,-0.0023755962029099,-0.0251960363239049,-0.0014187461929395,standing,2026-03-04_13-52-06
1772632328601181000,1.994180908203125,-0.0470709267219528,0.0268948750577867,-0.1549392172992229,0.0248290989547967,-0.0136942863464355,0.0031848135404288,standing,2026-03-04_13-52-06
1772632328611130000,2.004130126953125,-0.0428402668822556,0.0526234828151762,-0.206454300481081,0.0442318245768547,-0.0019492130959406,0.0041728462092578,standing,2026-03-04_13-52-06
1772632328621078000,2.014078125,-0.0448790061682462,0.0479820867501199,-0.1876280194580555,0.0506522469222545,0.0081214290112257,0.0031729745678603,standing,2026-03-04_13-52-06
1772632328631027000,2.02402685546875,-0.0473508031092584,0.0256394681692123,-0.1032657286852598,0.0428497195243835,0.0094215841963887,0.0024041198194026,standing,2026-03-04_13-52-06
1772632328640975000,2.03397509765625,-0.0430936205888167,0.0052938686244189,-0.0024964929908514,0.0240641310811042,0.0021288795396685,0.0003255936317145,standing,2026-03-04_13-52-06
1772632328650924000,2.043924072265625,-0.0296596270633861,-0.018378683385998,0.0647439825892448,0.0070872786454856,0.0028918753378093,0.0012747442815452,standing,2026-03-04_13-52-06
1772632328660872000,2.053871826171875,-0.0268790929667651,-0.0024807108998298,0.0706271954089403,-0.0005393736064434,0.017396256327629,0.0049116071313619,standing,2026-03-04_13-52-06
1772632328670821000,2.063821044921875,-0.0388452789619565,-0.0044736382827162,0.0106698625743389,-0.0033745747059583,0.0279884468764066,-0.0028930525295436,standing,2026-03-04_13-52-06
1772632328680769000,2.07376904296875,-0.1267063351033255,-0.0199598150976002,0.002495323947072,-0.0009539239108562,0.0232065990567207,-0.0159486103802919,standing,2026-03-04_13-52-06
1772632328690718200,2.08371826171875,-0.1260640551444143,-0.0621300006985664,0.0194406135290861,0.0023390743881464,0.01902836561203,-0.0192658435553312,standing,2026-03-04_13-52-06
1772632328700666000,2.093666015625,-0.0466640994867309,-0.0477186135083436,0.0396148020297288,0.0082814097404479,0.0196184311062097,-0.0127693470567464,standing,2026-03-04_13-52-06
1772632328710615000,2.103614990234375,0.0155783486103639,-0.0107321141555905,0.075480480659008,0.0086614424362778,-0.0004615366924554,-0.0076025491580367,standing,2026-03-04_13-52-06
1772632328720563200,2.113563232421875,-0.0080647581098601,0.0104674718700349,0.1106149224042892,0.0082466136664152,-0.0301781762391328,-0.0125133544206619,standing,2026-03-04_13-52-06
1772632328730512100,2.12351220703125,-0.0304159618560224,-0.009328677098453,0.0705371790379285,0.0146091720089316,-0.0337928868830204,-0.0110723190009593,standing,2026-03-04_13-52-06
1772632328740460000,2.1334599609375,-0.0030318419765681,0.0197384274318814,-0.019946224963665,0.0182558856904506,-0.0157055053859949,-0.0018048849888145,standing,2026-03-04_13-52-06
1772632328750408200,2.143408203125,0.0012607041181996,0.0694109514869749,-0.0549649313747882,0.0253353659063577,0.0030045330058783,0.005633589811623,standing,2026-03-04_13-52-06
1772632328760357000,2.153357177734375,-0.0298687763020396,0.0828986479610204,-0.0212041160702705,0.0205652303993701,-0.0055927969515323,-0.0012533004628494,standing,2026-03-04_13-52-06
1772632328770305300,2.16330517578125,-0.0643854880077764,0.0380425842769443,0.0708002138882875,0.0103863617405295,-0.0185307003557682,-0.0122929019853472,standing,2026-03-04_13-52-06
1772632328780254200,2.173254150390625,-0.0542829769926145,-0.0165121588617563,0.0886070887356996,-0.0011138329282402,-0.0037551808636635,-0.0137187205255031,standing,2026-03-04_13-52-06
1772632328790202000,2.1832021484375,-0.0509842642407864,0.0057829673156142,0.055388709744811,-0.0081576276570558,0.0219073053449392,-0.0120276138186454,standing,2026-03-04_13-52-06
1772632328800151000,2.193151123046875,-0.0981362933749332,0.0469914682775735,0.0571253242790699,-0.0155831351876258,0.0076948376372456,-0.021313851699233,standing,2026-03-04_13-52-06
1772632328810099200,2.20309912109375,-0.0988396193386986,0.0296399359822273,0.0802899267673492,-0.0098437573760747,-0.022586902603507,-0.025516852736473,standing,2026-03-04_13-52-06
1772632328820048100,2.213048095703125,-0.0046182343851774,0.0238527308829128,-0.0075105217605829,0.0050232112407684,-0.0220530927181243,-0.0094601670280098,standing,2026-03-04_13-52-06
1772632328829996000,2.22299609375,0.0748325746769085,0.1254362055696547,-0.1090326216489076,0.0287897940725088,0.0075807003304362,0.0064397035166621,standing,2026-03-04_13-52-06
1772632328839945000,2.232945068359375,0.0121521735539659,0.1697508558534085,-0.1544791985720396,0.0461451560258865,0.0245730951428413,0.0104678040370345,standing,2026-03-04_13-52-06
1772632328849893000,2.24289306640625,-0.0647637832682579,0.1272916241779923,-0.1015080713629722,0.0508935749530792,0.0161569733172655,-0.0004383733030408,standing,2026-03-04_13-52-06
1772632328859842000,2.252842041015625,-0.071179203268513,0.0288397255152463,0.0355646498560905,0.0350793935358524,0.003572721267119,-0.0106211211532354,standing,2026-03-04_13-52-06
1772632328869790000,2.2627900390625,-0.0674898837639018,0.0045567865215241,0.1868441756039857,0.0063284412026405,-0.0097252409905195,-0.0124927908182144,standing,2026-03-04_13-52-06
1772632328879739100,2.2727392578125,-0.0659599342502653,0.006995557975769,0.2861526910960674,-0.0187218319624662,-0.0321256108582019,-0.0187881365418434,standing,2026-03-04_13-52-06
1772632328889687000,2.28268701171875,-0.0433985218195244,-0.0237406488105654,0.1784925268441438,-0.0198677908629179,-0.0283846668899059,-0.0151095120236277,standing,2026-03-04_13-52-06
1772632328899636000,2.292635986328125,-0.0286324759727343,0.0037735271893441,-0.0271212311595678,-0.0078241573646664,0.0108186900615692,-0.0060672936961054,standing,2026-03-04_13-52-06
1772632328909584100,2.302584228515625,-0.0391730861442163,0.0622188480257987,-0.1301958211869001,0.0013666781596839,0.0487823188304901,0.0078088399022817,standing,2026-03-04_13-52-06
1772632328919533000,2.312532958984375,-0.012022921151109,0.0748585493683815,-0.0771042824685573,0.0042043579742312,0.0488242246210575,0.010227327235043,standing,2026-03-04_13-52-06
1772632328929481000,2.32248095703125,-0.0046124622315168,-0.023308687134087,0.0583686023384332,0.0043846541084349,0.0148526765406131,0.002085244981572,standing,2026-03-04_13-52-06
1772632328939430000,2.332429931640625,-0.0098976726254448,-0.1079668921135365,0.1411123519986867,-0.0010142545215785,-0.0209198147058486,-0.0111000211909413,standing,2026-03-04_13-52-06
1772632328949378000,2.3423779296875,-0.0523003518080338,-0.1287307170704007,0.1453115572541952,-0.0143396481871604,-0.0390173271298408,-0.0245724208652973,standing,2026-03-04_13-52-06
1772632328959327000,2.352326904296875,-0.098816165397875,-0.1126544654078781,0.1230365970820188,-0.0337889976799488,-0.0439872294664382,-0.0357054807245731,standing,2026-03-04_13-52-06
1772632328969275000,2.36227490234375,-0.0830171232415363,-0.0910486366689205,0.0791501090824604,-0.0450107604265213,-0.0379868596792221,-0.0343083851039409,standing,2026-03-04_13-52-06
1772632328979224000,2.37222412109375,-0.0255407570350915,-0.0405094127818942,-0.0067746087014675,-0.0438277162611484,-0.0172665026038885,-0.0223620980978012,standing,2026-03-04_13-52-06
1772632328989172000,2.382171875,-0.008056428672932,0.032208617426455,-0.1567564958542585,-0.0257033072412014,0.0131835481151938,-0.0084492126479744,standing,2026-03-04_13-52-06
1772632328999121200,2.39212109375,-0.0284726092359051,0.0927589477181434,-0.2714502120047807,0.0003640698269009,0.0366040132939815,0.0004138592630624,standing,2026-03-04_13-52-06
1772632329009069000,2.402069091796875,-0.0728479036657139,0.0990647698640823,-0.2839028663426637,0.0291618946939706,0.044519729912281,0.0043071345426142,standing,2026-03-04_13-52-06
1772632329019018200,2.412018310546875,-0.079351001949422,0.0748069653116166,-0.2072200241565704,0.0455050021409988,0.0338568910956382,0.0031458612065762,standing,2026-03-04_13-52-06
1772632329028966100,2.421966064453125,-0.0597507774118334,0.029841888295114,-0.0536333905100822,0.0454235076904296,0.0080652423202991,-0.0048289746046066,standing,2026-03-04_13-52-06
1772632329038915000,2.4319150390625,-0.0886743452856317,-0.0218321848407387,0.052277884247899,0.0374397411942482,-0.0124657116830348,-0.0150578655302524,standing,2026-03-04_13-52-06
1772632329048863200,2.44186328125,-0.0596665697271004,-0.0325623993001878,0.0850584563434124,0.0284803342074155,-0.0078941294923424,-0.0189538039267063,standing,2026-03-04_13-52-06
1772632329058812200,2.451812255859375,-0.0271569235274568,0.0136963707886636,0.0628331805318593,0.0165840703994035,0.0153670795261859,-0.0134156914427876,standing,2026-03-04_13-52-06
1772632329068760000,2.461760009765625,0.0010092866403982,0.0696824619047343,0.1008814638972282,0.0003094929270446,0.0241113025695085,-0.0073764408007264,standing,2026-03-04_13-52-06
1772632329078709200,2.471709228515625,0.0411098263604566,0.0619432459548115,0.1538636970221996,-0.0163632407784461,0.019393216818571,-0.0030762206297367,standing,2026-03-04_13-52-06
1772632329088657200,2.4816572265625,0.0414927247308194,0.0351103302173316,0.1738596063464879,-0.0243178345263004,0.0175782740116119,-0.0022027036175131,standing,2026-03-04_13-52-06
1772632329098606000,2.491606201171875,-0.0062142348723486,0.0314678820617497,0.1478635798245668,-0.0278437044471502,0.0068113738670945,-0.0148623557761311,standing,2026-03-04_13-52-06
1772632329108554200,2.50155419921875,-0.0661389806115999,0.0092721246056258,0.1149094047278165,-0.0217104442417621,-0.0085326945409178,-0.0222451724112033,standing,2026-03-04_13-52-06
1772632329118503200,2.511503173828125,-0.0460203216904774,-0.0003846154034137,-0.0228361011862754,-0.0032910457812249,0.0011858830694109,-0.0187517087906599,standing,2026-03-04_13-52-06
1772632329128451000,2.521451171875,0.020483071786724,0.0666423635564744,-0.1256523325383663,0.0156517531722784,0.0197904594242572,-0.0024467709008604,standing,2026-03-04_13-52-06
1772632329138400000,2.53139990234375,0.06910078955926,0.1488281870730221,-0.112342184588313,0.0276417173445224,0.0173923969268798,0.0111957602202892,standing,2026-03-04_13-52-06
1772632329148348200,2.54134814453125,0.0840614446626976,0.1098360469862818,-0.0649754532575607,0.0298952870070934,0.0027735063340514,0.0136551903560757,standing,2026-03-04_13-52-06
1772632329158297000,2.551297119140625,0.0434136463234201,0.0293969210065901,-0.0079109192550182,0.0191391929984092,-0.0001770439557731,0.011726226657629,standing,2026-03-04_13-52-06
1772632329168245000,2.561244873046875,-0.0300533756213262,0.0089298870392143,0.0516191280782222,0.0027242680080235,0.0034131633583456,0.006535458844155,standing,2026-03-04_13-52-06
1772632329178194000,2.57119384765625,-0.0671508976005017,-0.0039864392876625,0.1008306104928255,-0.0185846146196126,-0.005335790105164,-0.0023440299555659,standing,2026-03-04_13-52-06
1772632329188142000,2.58114208984375,-0.0748685227731242,-0.0454974303275346,0.1066664770394563,-0.0278422944247722,-0.0110477376729249,-0.0133783053606748,standing,2026-03-04_13-52-06
1772632329198091000,2.591091064453125,-0.070322805634886,-0.0633357232265174,-0.0360083019703626,-0.0200158134102821,0.0173101052641868,-0.0037989015690982,standing,2026-03-04_13-52-06
1772632329208039200,2.6010390625,-0.0366948594624176,0.0345315074160695,-0.152262691566348,-0.0026887562125921,0.0419374220073223,0.0101233050227165,standing,2026-03-04_13-52-06
1772632329217987000,2.610987060546875,-0.0257428189458325,0.088351798800379,-0.1459557003766298,0.0120279993861913,0.0289071388542652,0.0158121213316917,standing,2026-03-04_13-52-06
1772632329227936000,2.62093603515625,-0.04128638850376,0.0157175013527274,-0.0851081407040357,0.0256780311465263,0.0015423614531755,0.0100844614207744,standing,2026-03-04_13-52-06
1772632329237884200,2.63088427734375,-0.0581208746550604,-0.0464247743055224,-0.0770925920307636,0.0400443747639656,-0.0004310868680477,0.0072432626038789,standing,2026-03-04_13-52-06
1772632329247833000,2.6408330078125,-0.0731332599457353,-0.028482290379703,-0.0659720630794763,0.0431829094886779,0.0092694777995347,0.0104758078232407,standing,2026-03-04_13-52-06
1772632329257781000,2.650781005859375,-0.0953512292336672,0.0144968735165894,0.0215010531902313,0.0345911346375942,-0.0018725025001913,0.0036365864798426,standing,2026-03-04_13-52-06
1772632329267730000,2.66072998046875,-0.0734750591207295,-0.0393764632292091,0.1158978312432765,0.0163218509405851,-0.0177886188030242,-0.0068884920328855,standing,2026-03-04_13-52-06
1772632329277678000,2.670677978515625,-0.0633458792943507,-0.0688489336900413,0.0481330395281314,0.0059358435682952,0.0041407849639654,-0.0079964753240346,standing,2026-03-04_13-52-06
1772632329287626800,2.680626708984375,-0.0798294331161305,-0.0086574998386204,0.0171200616270303,0.0009378888644278,0.0355101600289344,-0.0055426387116312,standing,2026-03-04_13-52-06
1772632329297574700,2.69057470703125,-0.0928103125791996,0.0498139783523976,0.048531098935008,-0.0112255327403545,0.0381492637097835,2.8430949896e-06,standing,2026-03-04_13-52-06
1772632329307523800,2.70052392578125,-0.0439612337362021,0.0250827110692858,0.1592179175317287,-0.0204882733523845,0.0069854836910963,-0.0037104026414453,standing,2026-03-04_13-52-06
1772632329317471700,2.7104716796875,-0.0230242441695183,-0.0321780761577188,0.2123053645968437,-0.0219802167266607,-0.0233405213803052,-0.0094164656475186,standing,2026-03-04_13-52-06
1772632329327421000,2.7204208984375,-0.0543450093781575,-0.0318994053468108,0.1127431666046381,-0.0077442899346351,-0.0257224515080451,-0.0174245908856391,standing,2026-03-04_13-52-06
1772632329337368800,2.730368896484375,-0.1157780042558908,0.0197433958679437,-0.0749029730319976,0.0167689342051744,0.0022455262951552,-0.0270660817623138,standing,2026-03-04_13-52-06
1772632329347318000,2.740318115234375,-0.1698110981406644,0.0601909954600036,-0.1924170073002576,0.0355000123381614,0.0248523019254207,-0.0320786833763122,standing,2026-03-04_13-52-06
1772632329357266000,2.750265869140625,-0.1246127603575587,0.0550220683895051,-0.1440934136360883,0.0368663296103477,0.0317756086587905,-0.0244398973882198,standing,2026-03-04_13-52-06
1772632329367214800,2.76021484375,-0.017199994995445,0.063254474683851,-0.0139589672476053,0.0231177601963281,0.0187796484678983,-0.0136785954236984,standing,2026-03-04_13-52-06
1772632329377163000,2.7701630859375,0.0309413739696145,0.0782400085002183,0.1454296306759119,0.0066836518235504,-0.0043055778369307,-0.0097919711843132,standing,2026-03-04_13-52-06
1772632329387112000,2.78011181640625,0.0179934834606945,0.0522984886445105,0.202720374649763,-0.0115259774029254,-0.0203340779989957,-0.0081967376172542,standing,2026-03-04_13-52-06
1772632329397059800,2.790059814453125,-0.0073692866589874,0.030794951236248,0.1730646565765142,-0.0285771060734987,-0.0162142589688301,-0.0101621700450778,standing,2026-03-04_13-52-06
1772632329407008800,2.8000087890625,-0.0505436078011989,0.0263170751698315,0.1022182654589414,-0.0314115062355995,0.000695748720318,-0.0129923122003674,standing,2026-03-04_13-52-06
1772632329416957000,2.80995703125,-0.1143653609789907,0.0405444840952754,-0.048775429084897,-0.0151656568050384,0.0283972602337598,-0.0163775496184825,standing,2026-03-04_13-52-06
1772632329426905900,2.81990576171875,-0.1082824608687311,0.0441425085872411,-0.1692535738557577,0.0097261099144816,0.0462593436241149,-0.0130613828077912,standing,2026-03-04_13-52-06
1772632329436853800,2.829853759765625,-0.04710530391559,0.0614629150919616,-0.1457972949445247,0.0325853750109672,0.0463161021471023,-0.004298263695091,standing,2026-03-04_13-52-06
1772632329446803000,2.839802978515625,0.0132951695766299,0.0621330694384872,-0.0237613993376493,0.0439336337149143,0.0189606416970491,1.97854824364e-05,standing,2026-03-04_13-52-06
1772632329456750800,2.849750732421875,0.0612638123232871,0.0272987796835601,0.1122241111665964,0.0406181253492832,-0.0313033908605575,-0.0021067722700536,standing,2026-03-04_13-52-06
1772632329466699800,2.85969970703125,0.0320523308862,-0.0348470031060278,0.2314753444910049,0.0211842376738786,-0.0730124861001968,-0.0154390884563326,standing,2026-03-04_13-52-06
1772632329476648000,2.86964794921875,-0.0135834119334816,-0.1001318145737052,0.2057277397722005,0.0010460135526955,-0.0715079084038734,-0.0283851027488708,standing,2026-03-04_13-52-06
1772632329486596900,2.879596923828125,-0.0781802411369979,-0.0725664929084479,0.0686690470784902,-0.0154669173061847,-0.0408791527152061,-0.0331859849393367,standing,2026-03-04_13-52-06
1772632329496544800,2.889544677734375,-0.082909936540015,0.0248594237074255,-0.0505535446733236,-0.0227523613721132,-0.0173308104276657,-0.0286762453615665,standing,2026-03-04_13-52-06
1772632329506493700,2.89949365234375,-0.0450718983918428,0.0618261954464018,-0.1306575934797525,-0.0227800570428371,0.006438435986638,-0.018500305712223,standing,2026-03-04_13-52-06
1772632329516441900,2.90944189453125,0.0033231530733406,0.0968947323486208,-0.2069645880907774,-0.0116244666278362,0.0327621512115001,0.0028946946840733,standing,2026-03-04_13-52-06
1772632329526390800,2.919390869140625,0.0405277521561831,0.1281293901763856,-0.2275578787863254,0.0093231592327356,0.0494306087493896,0.0218273717910051,standing,2026-03-04_13-52-06
1772632329536338700,2.929338623046875,0.0053164457824081,0.1422127144560217,-0.176326873242855,0.0294022522866725,0.0258185416460037,0.0210493858903646,standing,2026-03-04_13-52-06
1772632329546287900,2.939287841796875,-0.0428974038969725,0.053606648633629,-0.0930325039625167,0.0461812317371368,-0.0048938295803964,0.0124300653114914,standing,2026-03-04_13-52-06
1772632329556235800,2.94923583984375,-0.0637400662437081,-0.0331552506268024,-0.0561474191576242,0.0589991919696331,-0.0023165468592196,0.0046823397278785,standing,2026-03-04_13-52-06
1772632329566184700,2.959184814453125,-0.0901251651484519,-0.0344505511343479,-0.0832400087445974,0.0658637583255767,0.0127052804455161,0.0003581654746085,standing,2026-03-04_13-52-06
1772632329576132900,2.9691328125,-0.0936113267637789,0.0120638011507689,0.011631985604763,0.0527114681899547,0.009335315786302,-0.0016392052639275,standing,2026-03-04_13-52-06
1772632329586081800,2.979081787109375,-0.0232666746232658,-0.0188411863312125,0.1766273174941539,0.0267712157219648,-0.0022001666948199,0.0011909359600394,standing,2026-03-04_13-52-06
1772632329596029700,2.98902978515625,0.0351660059273242,-0.0478274807102978,0.2506295422941446,0.0028944346122443,-9.02742613106e-05,0.0070271454751491,standing,2026-03-04_13-52-06
1772632329605978600,2.998978515625,0.0070227382436394,-0.0140634505353868,0.237719207316637,-0.0127886552363634,0.0019787354394793,0.0066785374656319,standing,2026-03-04_13-52-06
1772632329615926800,3.0089267578125,-0.0590792348258197,-0.0056131637066602,0.2060351982861757,-0.0179468113929033,-0.0185146182775497,-0.0087715489789843,standing,2026-03-04_13-52-06
1772632329625876000,3.0188759765625,-0.1137803276326507,-0.0370488970644772,0.1295259591013193,-0.0114295240491628,-0.0226126909255981,-0.0204902570694684,standing,2026-03-04_13-52-06
1772632329635823600,3.02882373046875,-0.0998778398126363,-0.024331746571511,-0.0108428810536861,0.0041688131168484,-0.0041538560763001,-0.0231297984719276,standing,2026-03-04_13-52-06
1772632329645773000,3.03877294921875,-0.0713603319890797,0.0449529481872916,-0.1023480293184518,0.018382903188467,0.0132661471143364,-0.0190586242824792,standing,2026-03-04_13-52-06
1772632329655721000,3.048720947265625,-0.0371456354372203,0.0906244199074804,-0.0899175868123769,0.0223969742655754,0.0157838929444551,-0.0126556372269988,standing,2026-03-04_13-52-06
1772632329665670000,3.058669921875,0.0523730882506817,0.1005072237573563,-0.0014332476735115,0.0168637242168188,0.0045639965683221,-0.0002013645134866,standing,2026-03-04_13-52-06
1772632329675618000,3.0686181640625,0.0978237568270415,0.1089778227217495,0.0727133540332317,0.0127886896952986,-0.0087164239957928,0.0054322490468621,standing,2026-03-04_13-52-06
1772632329685567000,3.07856689453125,0.0437988827813416,0.0678266049049794,0.0875777456879615,0.0096357725560665,-0.0182015392929315,-0.0009926276979967,standing,2026-03-04_13-52-06
1772632329695515000,3.088514892578125,-0.0199830498427152,0.0435264225155115,0.0402139369666576,0.0142853707075119,-0.0199530106037855,-0.0091874189674854,standing,2026-03-04_13-52-06
1772632329705463800,3.0984638671875,-0.0280574160311371,0.0533195022553205,-0.0137590607613325,0.0164808798581361,-0.0253951791673898,-0.0103845102712512,standing,2026-03-04_13-52-06
1772632329715412000,3.108411865234375,0.0052179173113778,0.0652175914503633,-0.0327414091289043,0.0167586412280797,-0.0195549167692661,-0.0057582654990255,standing,2026-03-04_13-52-06
1772632329725361000,3.11836083984375,0.0399894440283998,0.1088968664400279,-0.0448725764274597,0.0145612666383385,-0.0091246459633111,0.0036693247966468,standing,2026-03-04_13-52-06
1772632329735308800,3.128308837890625,0.05113729937803,0.1026804761432111,-0.0313911635637283,0.0084546972066164,-0.0038438260089606,0.0135814417153596,standing,2026-03-04_13-52-06
1772632329745257700,3.1382578125,0.0338973742309957,0.1129654310531914,-0.0273474411308765,0.006745480466634,0.0084807500243186,0.0188198797404766,standing,2026-03-04_13-52-06
1772632329755206000,3.148205810546875,-0.0087597181040793,0.0681356708541512,-0.05162321973145,0.0073080137372016,0.0124618373811244,0.0138923618942499,standing,2026-03-04_13-52-06
1772632329765154800,3.15815478515625,-0.063677668531984,0.0434884285926818,-0.0199497320950031,0.0078166779130697,0.0129984654486179,0.0101229241117835,standing,2026-03-04_13-52-06
1772632329775103000,3.16810302734375,-0.0544260387251153,0.0283531110420823,0.0023369185149669,0.0006762510165572,0.0191858932375907,0.0110850306227803,standing,2026-03-04_13-52-06
1772632329785051000,3.17805078125,-0.0377669822059571,0.0188340259380638,0.0246750070512294,-0.0080445371568202,0.0333672240376472,0.0112232491374015,standing,2026-03-04_13-52-06
1772632329794999800,3.187999755859375,-0.059613049441576,0.0205202254593372,0.0584375759214162,-0.011726084165275,0.0334091857075691,0.0101667661219835,standing,2026-03-04_13-52-06
1772632329804948000,3.197947998046875,-0.0478595563489943,0.015230448488146,0.1404021579027176,-0.0202878788113594,0.016775881871581,0.0106495972722768,standing,2026-03-04_13-52-06
1772632329814897000,3.20789697265625,-0.008313216445595,-0.0054946518935263,0.1898369276791811,-0.0267281718552112,-0.0007555319461971,0.0143644204363226,standing,2026-03-04_13-52-06
1772632329824844800,3.2178447265625,0.0075635671220719,0.0010107844777405,0.1644832907140254,-0.0274299159646034,-0.0159022603183984,0.014796650968492,standing,2026-03-04_13-52-06
1772632329834793700,3.227793701171875,-0.0397550872832536,0.0043346682034432,0.0836877525120973,-0.0156004065647721,-0.014896236360073,0.0082466015592217,standing,2026-03-04_13-52-06
1772632329844742000,3.237741943359375,-0.0696332890007644,0.0153328859493136,-0.0083867200732231,-0.0055858548730611,-0.0107816532254219,0.0032542399130761,standing,2026-03-04_13-52-06
1772632329854690800,3.24769091796875,-0.0823951554182916,0.0159685535043478,-0.0310083017259836,-0.0046250307932496,-0.0062942849472165,-0.0023327809758484,standing,2026-03-04_13-52-06
1772632329864638700,3.257638671875,-0.0748954107800498,0.0627766280390322,0.0134720605134963,-0.0117090390995144,-0.0149298515170812,-0.0025141420774161,standing,2026-03-04_13-52-06
1772632329874587600,3.267587646484375,-0.029719211763516,0.0868495775438845,0.0331318697512149,-0.0196379125118255,-0.0168947372585535,3.36533412337e-05,standing,2026-03-04_13-52-06
1772632329884535800,3.277535888671875,0.0517077927423641,0.1111817625068128,0.009186930540204,-0.0265445560216903,-0.0092069897800683,0.0141233736649155,standing,2026-03-04_13-52-06
1772632329894484700,3.287484619140625,0.0791557716382667,0.143071961633861,-0.0081909052401781,-0.0244239270687103,0.0059464080259203,0.0249742586165666,standing,2026-03-04_13-52-06
1772632329904433000,3.297432861328125,0.0674705945415422,0.1531149244815111,-0.0623866058081388,-0.0201269164681434,0.0191631447523832,0.0324489511549472,standing,2026-03-04_13-52-06
1772632329914381800,3.3073818359375,0.0834850695468485,0.1735711447939276,-0.0607628039985895,-0.0131507664918899,0.0265970919281244,0.0431191734969615,standing,2026-03-04_13-52-06
1772632329924329700,3.317329833984375,0.0819616593718528,0.1314572194248437,-0.0369856225699186,-0.0070646433159708,0.0317809358239173,0.0546418689191341,standing,2026-03-04_13-52-06
1772632329934278700,3.327278564453125,0.0484095183819532,0.1261766486734152,0.0297743760168552,-0.0014118272811174,0.0319467708468437,0.0586018115282058,standing,2026-03-04_13-52-06
1772632329944226800,3.337226806640625,0.0097839465852826,0.1093595155157148,0.1092944874554872,-0.0077685257419943,0.0187848974019289,0.056591123342514,standing,2026-03-04_13-52-06
1772632329954176000,3.347176025390625,-0.0337250133387744,0.0318456293329596,0.216267838487029,-0.0180321410298347,0.0034900095779448,0.0443217121064662,standing,2026-03-04_13-52-06
1772632329964123600,3.35712353515625,-0.0604287497386336,-0.0300644450046122,0.2861374935269355,-0.0337197557091712,-0.013804025016725,0.0395666360855102,standing,2026-03-04_13-52-06
1772632329974072800,3.36707275390625,-0.0334465617235749,-0.0666188365504145,0.2952688944876194,-0.0430702045559883,-0.0331192314624786,0.0372698605060577,standing,2026-03-04_13-52-06
1772632329984021000,3.37702099609375,0.031911607241258,-0.059683776590228,0.2419499767541885,-0.0490300953388214,-0.0501693189144134,0.0410414263606071,standing,2026-03-04_13-52-06
1772632329993970000,3.386969970703125,0.0391787852326408,-0.0498496341876685,0.1838695437073707,-0.0542391873896122,-0.0608451440930366,0.0406317301094532,standing,2026-03-04_13-52-06
1772632330003917800,3.396917724609375,-0.0049650385288521,-0.0503247043535113,0.0800321526139974,-0.0509459227323532,-0.0650348290801048,0.0332228131592273,standing,2026-03-04_13-52-06
1772632330013867000,3.406866943359375,-0.0841746957788243,-0.0705249040782451,-0.0672884063750505,-0.0435641855001449,-0.0611424297094345,0.0250810831785202,standing,2026-03-04_13-52-06
1772632330023815000,3.41681494140625,-0.1345136113207787,-0.0834269096188247,-0.2054933464944362,-0.0346343405544757,-0.0472921282052993,0.0191411674022674,standing,2026-03-04_13-52-06
1772632330033763800,3.426763916015625,-0.1230222397631034,-0.0351239203512668,-0.3211526928067207,-0.016896242275834,-0.0200483221560716,0.0255119577050209,standing,2026-03-04_13-52-06
1772632330043712000,3.4367119140625,-0.105110954693146,0.018152035023272,-0.4105798657536506,-0.0032629882916808,0.0107846911996603,0.0383001901209354,standing,2026-03-04_13-52-06
1772632330053661000,3.446660888671875,-0.0680868267437443,0.0444501132316887,-0.4157224893391132,0.0093221003189682,0.0420171171426773,0.0575580075383186,standing,2026-03-04_13-52-06
1772632330063608800,3.45660888671875,-0.0389355510612949,0.0357170639388263,-0.3551660215675831,0.0172934755682945,0.0566772855818271,0.0646641254425048,standing,2026-03-04_13-52-06
1772632330073557800,3.466557861328125,-0.0918526099955663,-0.0513058243453502,-0.2726385450065136,0.0256764236837625,0.055423554033041,0.0558471642434597,standing,2026-03-04_13-52-06
1772632330083506000,3.476505859375,-0.1603063338229432,-0.1185873625881969,-0.1654839921891689,0.0293113719671964,0.0489315651357173,0.0410628914833068,standing,2026-03-04_13-52-06
1772632330093454800,3.486454833984375,-0.1835019525039941,-0.156597944291681,-0.0545832385808229,0.0280243679881095,0.0426732636988163,0.0270864106714725,standing,2026-03-04_13-52-06
1772632330103402800,3.49640283203125,-0.1539572570571676,-0.1696690227888524,0.0454991838932037,0.0228855311870574,0.0277241431176662,0.0160585269331932,standing,2026-03-04_13-52-06
1772632330113352000,3.50635205078125,-0.1072423406986519,-0.1647103774681687,0.1487590673595666,0.0187384225428104,0.0090073384344577,0.0155129414051771,standing,2026-03-04_13-52-06
1772632330123299800,3.5162998046875,-0.0501228616384789,-0.1132043543756008,0.2025093622475862,0.0154049433767795,-0.007060311269015,0.0110026113688945,standing,2026-03-04_13-52-06
1772632330133248800,3.526248779296875,-0.0423876642765477,-0.0559926669873297,0.2130558907032012,0.0093205440789461,-0.0322672426700592,0.0026190248318016,standing,2026-03-04_13-52-06
1772632330143197000,3.536197021484375,-0.0704809918712824,-0.0544939528621733,0.1794640022248029,0.0096105616539716,-0.0420080237090587,-0.0110392635688185,standing,2026-03-04_13-52-06
1772632330153145900,3.546145751953125,-0.0903443973897025,-0.0501665911823511,0.1039811834782361,0.00956925842911,-0.0276313200592994,-0.0178347546607255,standing,2026-03-04_13-52-06
1772632330163093800,3.55609375,-0.0925531229477375,0.0203637197233736,0.0047059857338666,0.0086262328550219,-0.0007309957873076,-0.0165604315698146,standing,2026-03-04_13-52-06
1772632330173042700,3.566042724609375,-0.0557738731374964,0.0915320362716913,-0.0538321279525756,0.0071366718038916,0.0186263974756002,-0.0104705579578876,standing,2026-03-04_13-52-06
1772632330182990800,3.575990966796875,0.0098299776840955,0.1415899063825607,-0.0632090281069278,0.00315737654455,0.03624027967453,0.007235468365252,standing,2026-03-04_13-52-06
1772632330192939800,3.585939697265625,0.1029256830759346,0.1913710053786635,-0.0324713600158691,-0.0024644453078508,0.0416078865528106,0.028957325965166,standing,2026-03-04_13-52-06
1772632330202887700,3.5958876953125,0.1320426180973649,0.2118539675675332,0.0429477458447217,-0.0075795790180563,0.0323257073760032,0.0377814434468746,standing,2026-03-04_13-52-06
1772632330212836900,3.6058369140625,0.0818303976750001,0.1558094242624938,0.1211497604221105,-0.0171046406030654,0.0022498276084661,0.0313496440649032,standing,2026-03-04_13-52-06
1772632330222784800,3.61578466796875,-0.0118723702318966,0.0544336009770631,0.1424146667689085,-0.0150393592193722,-0.0198853015899658,0.0190208069980144,standing,2026-03-04_13-52-06
1772632330232733700,3.625733642578125,-0.042990452475287,0.0134257371537387,0.0779319654643535,-0.0103087071329355,-0.0088854329660534,0.0110827991738915,standing,2026-03-04_13-52-06
1772632330242681900,3.635681884765625,-0.0966761576944962,0.0262961785122752,0.0086006550848484,-0.00407211529091,0.0098195448517799,0.0061809848994016,standing,2026-03-04_13-52-06
1772632330252631000,3.645631103515625,-0.0958379898373037,0.0491468927457928,0.0075993690878152,-0.009236641228199,0.0103940526023507,0.0095951817929744,standing,2026-03-04_13-52-06
1772632330262578700,3.65557861328125,-0.006891951470822,0.0317686185739934,0.0692851331502199,-0.0167179945856332,-0.001307078404352,0.0198792442679405,standing,2026-03-04_13-52-06
1772632330272526800,3.66552685546875,0.0330974925575777,0.0153331782102584,0.1037368533283472,-0.0165781509131193,-0.014999495819211,0.0263146851211786,standing,2026-03-04_13-52-06
1772632330282476000,3.67547607421875,-0.0190475590908899,-0.0029091654449701,0.0596416910141706,-0.0088382065296173,-0.0288218334317207,0.0260411780327558,standing,2026-03-04_13-52-06
1772632330292423400,3.68542333984375,-0.0377619407046586,-0.0104784316554665,-0.0289011003136634,0.0087853800505399,-0.028840322047472,0.0257141850888729,standing,2026-03-04_13-52-06
1772632330302372600,3.69537255859375,-0.0625519524376839,-0.0248407190069556,-0.1153343521416187,0.0240649990737438,-0.0213419273495674,0.0244656950235366,standing,2026-03-04_13-52-06
1772632330312320500,3.705320556640625,-0.1174040345551446,-0.0202832018330693,-0.1536731428861618,0.0301756225526332,-0.0144485998898744,0.0169912669807672,standing,2026-03-04_13-52-06
1772632330322269700,3.715269775390625,-0.1115659029861912,-0.0264582372061908,-0.1045621982365846,0.0323277227580547,-0.0102437352761626,0.0167675614356994,standing,2026-03-04_13-52-06
1772632330332217600,3.725217529296875,-0.0681239804163575,-0.0256181331202387,-0.0384825831294059,0.020765021443367,-0.0092656929045915,0.01863294839859,standing,2026-03-04_13-52-06
1772632330342166800,3.735166748046875,-0.0267085952380672,-0.023301380610466,0.0079822309255599,0.0110016074031591,-0.006309850141406,0.0199810396879911,standing,2026-03-04_13-52-06
1772632330352114700,3.74511474609375,-0.0293937061361968,-0.0049992695920169,0.0218289699703454,0.0002356227487325,-0.0016674215439707,0.0197603143751621,standing,2026-03-04_13-52-06
1772632330362063600,3.755063720703125,-0.0596992298876866,0.0068587798535823,0.0247714531630277,-0.0103714819997549,-0.0023782192729413,0.0160654447972774,standing,2026-03-04_13-52-06
1772632330372011800,3.76501171875,-0.0621743147643282,0.0026624972075223,0.0100111064046621,-0.01556889526546,0.0084772389382123,0.0107428450137376,standing,2026-03-04_13-52-06
1772632330381960700,3.774960693359375,-0.0743040572907775,-0.0060335810758173,-0.0329419001370668,-0.0144751351326704,0.0218782648444175,0.0015749132726341,standing,2026-03-04_13-52-06
1772632330391908600,3.78490869140625,-0.0936733591493219,-0.0150096453443169,-0.0896498757869005,-0.0068770917132496,0.0377333834767341,-0.0014516047667711,standing,2026-03-04_13-52-06
1772632330401857500,3.794857421875,-0.1090844979666173,0.0258164321713149,-0.1322346335381269,0.0041657052934169,0.051454521715641,-0.0008721009362488,standing,2026-03-04_13-52-06
1772632330411805700,3.8048056640625,-0.0659734513189643,0.0542461155809462,-0.0789659846872091,0.0127108599990606,0.0486286766827106,0.0071592330932617,standing,2026-03-04_13-52-06
1772632330421754600,3.814754638671875,-0.0061671808602288,0.0716531774558126,0.009929273340106,0.0167977474629879,0.0239251945167779,0.0107102915644645,standing,2026-03-04_13-52-06
1772632330431702500,3.82470263671875,-0.0072615154355764,0.0599744300998747,0.1119026241272687,0.0228158663958311,0.0008941309060901,0.0117173586040735,standing,2026-03-04_13-52-06
1772632330441651500,3.8346513671875,-0.0132776339199393,0.035496553055942,0.1579904215633869,0.0227410327643156,-0.0237957686185836,0.0108108185231685,standing,2026-03-04_13-52-06
1772632330451599600,3.844599609375,-0.0063994917787611,0.0494406149953603,0.193964236742258,0.012926485389471,-0.0433513596653938,0.0053105922415852,standing,2026-03-04_13-52-06
1772632330461548500,3.854548583984375,-0.0084946739597246,0.0466473310150206,0.1858697776138782,0.0031683961860835,-0.0390671342611312,0.0045356126502156,standing,2026-03-04_13-52-06
1772632330471496700,3.86449658203125,-0.0427781248988583,0.0571165564507245,0.0806038150221109,0.000711575616151,0.0020998739637434,0.0083309914916753,standing,2026-03-04_13-52-06
1772632330481445600,3.874445556640625,-0.0839832283273339,0.0816140149779617,-0.0347667774766683,0.0004151659086346,0.0438273474574089,0.0102157108485698,standing,2026-03-04_13-52-06
1772632330491393500,3.8843935546875,-0.1208388313094153,0.0916847426153719,-0.0377320570230483,-0.0046509560197591,0.0531895719468593,0.0079355053603649,standing,2026-03-04_13-52-06
1772632330501342500,3.894342529296875,-0.0589731806354597,0.03293123261258,0.0941717371255159,-0.0186828859150409,0.0353216230869293,0.0118109369650483,standing,2026-03-04_13-52-06
1772632330511290600,3.90429052734375,0.0252693927478045,-0.0277777953721582,0.2123538799136877,-0.0299489572644233,0.0101948417723178,0.0133483242243528,standing,2026-03-04_13-52-06
1772632330521239600,3.914239501953125,0.0266402427095919,-0.0530478457070887,0.2589011115550995,-0.0399712286889553,-0.033005092293024,4.15728427469e-05,standing,2026-03-04_13-52-06
1772632330531187500,3.9241875,-0.0656508317684754,-0.0890451878920197,0.2582914552241563,-0.0422098599374294,-0.0851185470819473,-0.0232696905732154,standing,2026-03-04_13-52-06
1772632330541136400,3.934136474609375,-0.108060634811595,-0.1289168872922658,0.0945107598215341,-0.0319135449826717,-0.0840889737010002,-0.0331273786723613,standing,2026-03-04_13-52-06
1772632330551084500,3.94408447265625,-0.0667393576575443,-0.0605041530624032,-0.1843289779126644,-0.0094389058649539,-0.0320096313953399,-0.0238533597439527,standing,2026-03-04_13-52-06
1772632330561033500,3.954033447265625,-0.0631062983848154,0.0769303872063756,-0.3326929084748029,0.0056966370902955,0.009865378960967,-0.0072088707238435,standing,2026-03-04_13-52-06
1772632330570981400,3.9639814453125,-0.0137518273029476,0.1395570853807032,-0.3077992902368306,0.0118311922997236,0.0254865773022174,0.0101347947493195,standing,2026-03-04_13-52-06
1772632330580930600,3.9739306640625,0.0763399470325559,0.0878809664182364,-0.2193243034482002,0.0153103452175855,0.0409028157591819,0.0305825471878051,standing,2026-03-04_13-52-06
1772632330590878500,3.98387841796875,0.0745790017746388,0.062912090986967,-0.1696329285621643,0.0214505195617675,0.0555812120437622,0.0359192602336406,standing,2026-03-04_13-52-06
1772632330600827600,3.99382763671875,-0.0418008773645386,0.0267822084635496,-0.0848626415103673,0.0245666857808828,0.0386682748794555,0.0190864838659763,standing,2026-03-04_13-52-06
1772632330610775600,4.003775634765625,-0.1219981208797544,-0.071349372203648,0.0380780939817428,0.0237711984664201,0.001661789836362,-0.0035591733176261,standing,2026-03-04_13-52-06
1772632330620724700,4.013724853515625,-0.0886876796912401,-0.159133454118669,0.1013467433214187,0.0241198074072599,-0.0141270263120532,-0.0101944394409656,standing,2026-03-04_13-52-06
1772632330630672600,4.023672607421875,-0.0120260264236479,-0.1003558325879275,0.0805628984898328,0.0202146396040916,-0.0054219751618802,-0.0048387581482529,standing,2026-03-04_13-52-06
1772632330640621600,4.03362158203125,0.0088912355292588,0.0029265549711883,0.1083335334688425,0.008277554064989,-5.105510354e-06,0.0048764534294605,standing,2026-03-04_13-52-06
1772632330650569700,4.04356982421875,0.0475042401053011,0.0171701843790709,0.140326754578948,-0.0048502162098884,0.0028351850342005,0.0127607285976409,standing,2026-03-04_13-52-06
1772632330660518700,4.0535185546875,0.0287458001540973,3.02490077912e-05,0.152456752833724,-0.0155635811388492,0.000617038225755,0.0106086283922195,standing,2026-03-04_13-52-06
1772632330670466600,4.063466552734375,-0.0810932425068691,-0.015604396367073,0.1161322245210409,-0.0213466566056013,-0.0083896834403276,-0.007879814133048,standing,2026-03-04_13-52-06
1772632330680415700,4.073415771484375,-0.155922821509093,-0.0439728511087596,0.0522819759011268,-0.0169801376760005,0.0036656484007835,-0.0214374363422393,standing,2026-03-04_13-52-06
1772632330690363600,4.08336376953125,-0.1209160247314721,-0.0395949282854795,-0.0672480743646621,0.0010176636278629,0.0275984052568674,-0.0169465970247983,standing,2026-03-04_13-52-06
1772632330700312600,4.0933125,-0.067294141996093,0.0449514868825674,-0.1154571017384529,0.0148919336497783,0.0315201766788959,-0.0076180761680006,standing,2026-03-04_13-52-06
1772632330710260700,4.1032607421875,-0.0092193715050816,0.0885365077175199,-0.0489928712278604,0.0234131794422864,0.0038972708862274,0.0005199271254241,standing,2026-03-04_13-52-06
1772632330720209700,4.113209716796875,0.0548903683012351,0.057982087238878,0.0572673630982637,0.0187409296631813,-0.020754013210535,0.010287070646882,standing,2026-03-04_13-52-06
1772632330730157600,4.123157470703125,0.0747010207191109,0.033154081583023,0.0872130040287971,0.0133723532781004,-0.017222685739398,0.020968273282051,standing,2026-03-04_13-52-06
1772632330740106500,4.1331064453125,-0.0233898260788992,0.0411425961188971,0.0857867706179618,0.0035993510391563,-0.0071322340518236,0.0098149552941322,standing,2026-03-04_13-52-06
1772632330750054700,4.1430546875,-0.1716073339076712,-0.0290925312325358,0.0493505986243486,-0.0080688120797276,-0.0060271583497524,-0.0187036637216806,standing,2026-03-04_13-52-06
1772632330760003600,4.153003662109375,-0.2138733080333098,-0.1025571420244872,0.0388005630373954,-0.0184932239353656,0.0093451403081417,-0.0288897212594747,standing,2026-03-04_13-52-06
1772632330769951500,4.162951416015625,-0.1427116769541055,-0.0666939476132392,-0.0169704240232706,-0.0214026235044002,0.0353334546089172,-0.025481617078185,standing,2026-03-04_13-52-06
1772632330779899600,4.172899658203125,-0.0797043088991194,0.0183722536452114,-0.0232791687786579,-0.0196473337709903,0.0329909361898899,-0.0212133694440126,standing,2026-03-04_13-52-06
1772632330789848600,4.1828486328125,-0.008302147062309,0.0560430820003151,0.0159931034237146,-0.0089781954884529,0.0249372161924839,-0.0086679868400096,standing,2026-03-04_13-52-06
1772632330799796500,4.19279638671875,0.0637226401848718,0.0744226421691477,0.0079530048310756,0.0063890432938933,0.020607715472579,0.0070678326301276,standing,2026-03-04_13-52-06
1772632330809745700,4.20274560546875,0.0452142660045996,0.0732341630369424,0.0271148014187812,0.0161661095917224,0.0097446078434586,0.0074410708621144,standing,2026-03-04_13-52-06
1772632330819693600,4.212693603515625,-0.0350577232472598,0.046501931194961,0.0904413184255361,0.0152356019243597,-0.0050428602844476,-0.001921271905303,standing,2026-03-04_13-52-06
1772632330829642500,4.222642578125,-0.0631052024062722,-0.0279860312953591,0.1619517264097928,0.0152077144011855,-0.0150572452694177,-0.011265892535448,standing,2026-03-04_13-52-06
1772632330839590700,4.232590576171875,-0.069874331215024,-0.043650341156125,0.1561421633481979,0.0116649121046066,-0.0162476785480976,-0.0227273385971784,standing,2026-03-04_13-52-06
1772632330849539600,4.24253955078125,-0.1163061197832226,-0.0291468917682766,0.1393430042386055,0.0057232221588492,-0.0190149936825037,-0.0327612645924091,standing,2026-03-04_13-52-06
1772632330859487500,4.252487548828125,-0.1015376627836376,-0.0204128195621073,0.1403822841584682,-0.0072133489884436,-0.0225404854863882,-0.0336220003664493,standing,2026-03-04_13-52-06
1772632330869436400,4.2624365234375,-0.0373728317892178,-0.0042705169260501,0.1494476341456175,-0.0226097889244556,-0.0247810240834951,-0.0264737457036972,standing,2026-03-04_13-52-06
1772632330879384600,4.272384521484375,0.0172340433955192,0.0272268834911286,0.1037789389044046,-0.0327417850494384,-0.0194483119994401,-0.0147454505786299,standing,2026-03-04_13-52-06
1772632330889333500,4.28233349609375,0.0155514971360564,0.0643904929764568,0.0618500147134065,-0.0425099991261959,-0.0242670644074678,-0.0092950109392404,standing,2026-03-04_13-52-06
1772632330899281400,4.292281494140625,0.0013121785771101,0.058367141033709,0.0060234980732202,-0.0473929047584533,-0.0294421184808015,-0.0029995643999427,standing,2026-03-04_13-52-06
1772632330909230600,4.302230712890625,0.0174537505608052,0.0519957063056528,-0.0844406167060136,-0.0380407758057117,-0.0153951048851013,0.0065461979247629,standing,2026-03-04_13-52-06
1772632330919178500,4.312178466796875,-0.0084056439694017,0.0533411295652389,-0.1736912640422582,-0.0226746052503585,-0.0073425052687525,0.0032766354270279,standing,2026-03-04_13-52-06
1772632330929127700,4.322127685546875,-0.0566841563828289,0.0417288715742528,-0.2308919916450977,-0.00581945059821,-0.0046831909567117,0.0017911170143634,standing,2026-03-04_13-52-06
1772632330939075600,4.33207568359375,-0.0135357368668541,0.0227050221525132,-0.2448690790712833,0.0113874990493059,0.0139589365571737,0.0063424594700336,standing,2026-03-04_13-52-06
1772632330949024800,4.342024658203125,0.0414716454101726,0.0197283444292843,-0.2264624847650528,0.0233025606721639,0.0382306165993213,0.0159899070858955,standing,2026-03-04_13-52-06
1772632330958972700,4.35197265625,0.0329796748641878,0.0629072686813771,-0.1218254677265882,0.0195946414023637,0.0304752252995967,0.0185766350477933,standing,2026-03-04_13-52-06
1772632330968921600,4.361921630859375,0.0351726548638194,0.0497727695591747,0.0552151067435741,0.005313825327903,-0.0012350950855761,0.0169773809611797,standing,2026-03-04_13-52-06
1772632330978869800,4.371869873046875,0.0196609417488798,-0.0293098272450268,0.1412158123731613,-0.004962514154613,-0.0221632793545722,0.0086068008095026,standing,2026-03-04_13-52-06
1772632330988818700,4.381818603515625,-0.0210738042214885,-0.0430301634311676,0.1107213053882121,-0.0058149234391748,-0.0006117506418377,0.008141690865159,standing,2026-03-04_13-52-06
1772632330998766600,4.3917666015625,-0.0288840761136263,-0.0082816522635519,-0.0125339028805494,0.0028131860308349,0.044868379831314,0.0112503990530967,standing,2026-03-04_13-52-06
1772632331008715500,4.401715576171875,-0.0454995492193847,0.0360581324614584,-0.0409153632342815,0.0070106489583849,0.0593657009303569,0.0074622109532356,standing,2026-03-04_13-52-06
1772632331018663700,4.41166357421875,-0.0579169130481779,-0.0097086163267493,0.0613613544136285,0.0056305988691747,0.0297039486467838,0.0011915320064872,standing,2026-03-04_13-52-06
1772632331028612600,4.421612548828125,0.0018501944439485,-0.0611754764527082,0.1674912403583526,0.0007490711286664,-0.0089073730632662,-0.0022448459640145,standing,2026-03-04_13-52-06
1772632331038560500,4.431560546875,0.0232815799314528,-0.0493188883118331,0.2376023029386997,-0.0095592271536588,-0.0436075627803802,-7.94297084212e-05,standing,2026-03-04_13-52-06
1772632331048509700,4.441509765625,0.0015333835797384,-0.0120022802218794,0.2176636767596006,-0.0203869491815567,-0.0613394267857074,-0.0033125579357147,standing,2026-03-04_13-52-06
1772632331058457600,4.45145751953125,-0.0475739443406462,0.0128502753533422,0.0972626888781785,-0.0218998901546001,-0.0398716852068901,-0.0024480957072228,standing,2026-03-04_13-52-06
1772632331068406500,4.461406494140625,-0.0809764842594042,0.031773002488166,-0.0730821873456239,-0.0132537819445133,0.0020257604774087,0.0035246016923338,standing,2026-03-04_13-52-06
1772632331078354700,4.471354736328125,-0.1252171925241127,0.0721684335015714,-0.1662789419591426,0.0001493748277425,0.0206812042742967,0.0047749560326337,standing,2026-03-04_13-52-06
1772632331088303600,4.4813037109375,-0.1493857113579288,0.076010057491064,-0.1612380251824855,0.0107540674507617,0.0154551351442933,0.0036236767191439,standing,2026-03-04_13-52-06
1772632331098251500,4.49125146484375,-0.0963532824156805,0.0534741082951426,-0.1276233403503894,0.0206005722284317,0.0233532711863517,0.0145911071449518,standing,2026-03-04_13-52-06
1772632331108200400,4.501200439453125,-0.0316243512650951,0.0615266279779374,-0.0813555101722478,0.0235867351293563,0.0395229309797287,0.0216256827116012,standing,2026-03-04_13-52-06
1772632331118148600,4.511148681640625,-0.047790838494338,0.0565725127018988,0.0103016137838363,0.0164334829896688,0.0213993228971958,0.0099772829562425,standing,2026-03-04_13-52-06
1772632331128097500,4.52109765625,-0.0997240009577944,-0.01595963954553,0.125320908626914,0.0043730461038649,-0.0024442831054329,-0.0012316717766225,standing,2026-03-04_13-52-06
1772632331138045400,4.53104541015625,-0.0509197476372122,-0.092221625971049,0.1329641168564558,-0.0009546079672873,-0.0016732980730012,-0.0097841471433639,standing,2026-03-04_13-52-06
1772632331147994600,4.54099462890625,-0.0588349777411669,-0.0765169840998947,0.0694002839624881,-0.0041238712146878,0.003720544045791,-0.0169198773801326,standing,2026-03-04_13-52-06
1772632331157942500,4.550942626953125,-0.0827815974526107,-0.0280623114019632,0.0601309358358383,-0.0135791581124067,-0.0041411076672375,-0.0223367474973201,standing,2026-03-04_13-52-06
1772632331167891500,4.560891357421875,-0.0416674237105995,-0.0292133811332285,0.0631184272140264,-0.0186209455132484,0.0015343606937676,-0.0133823500946164,standing,2026-03-04_13-52-06
1772632331177839600,4.570839599609375,0.032438407594338,-0.001350245565176,0.00632218875885,-0.016340747475624,0.0210462771356105,-0.0016314185922965,standing,2026-03-04_13-52-06
1772632331187788500,4.58078857421875,0.0113921854995191,0.0525133004389703,-0.0395674557566642,-0.0097200479358434,0.0254798047244548,-0.0064553227275609,standing,2026-03-04_13-52-06
1772632331197736400,4.590736328125,-0.0562258912213146,0.0289659822434186,0.0047591772258281,-0.0079884612932801,0.0123807815834879,-0.0109118558466434,standing,2026-03-04_13-52-06
1772632331207685400,4.600685302734375,-0.0073234747558832,-0.0077535367362201,0.0062795186609029,-0.0027576694265007,0.007923012599349,-0.0023172332439571,standing,2026-03-04_13-52-06
1772632331217633500,4.610633544921875,0.0481228103950619,0.0277712195008993,0.022961773392558,0.004775880370289,0.0051264269277453,0.0059726545587182,standing,2026-03-04_13-52-06
1772632331227582700,4.620582763671875,0.0288027545057237,0.0550118392564356,0.0592711041361093,0.0057994988746941,-0.0191089957952499,0.0019379081204533,standing,2026-03-04_13-52-06
1772632331237530400,4.6305302734375,0.0142833768963813,0.0226956698022782,0.0705564682602882,0.0061742053367197,-0.0294939931482076,-2.69718002527e-05,standing,2026-03-04_13-52-06
1772632331247479600,4.6404794921875,0.004692943589203,-0.0050841713964939,0.0021878654330968,0.0062021799385547,-0.0066601685248315,-0.0003548134118318,standing,2026-03-04_13-52-06
1772632331257427700,4.650427734375,-0.0511973224695771,0.0385761066317558,-0.0474678536176681,0.0041134627535939,0.0143809337168931,-0.0029559228569269,standing,2026-03-04_13-52-06
1772632331267376600,4.660376708984375,-0.0907488134721294,0.072975804361701,-0.011602174988389,-0.0051069888286292,-0.0032290876843035,-0.0068107405677437,standing,2026-03-04_13-52-06
1772632331277324800,4.67032470703125,-0.0658010538941249,0.0359039648130536,0.0432341615706682,-0.0126463994383811,-0.0148407369852066,-0.0102936225011944,standing,2026-03-04_13-52-06
1772632331287273700,4.680273681640625,-0.0150404423413798,0.0173398418575525,-0.0002168576210737,-0.0131062697619199,0.0099094863981008,-0.0041972221806645,standing,2026-03-04_13-52-06
1772632331297221600,4.6902216796875,-0.0399098394535481,0.0682251027032733,-0.1022773021697998,-0.0057950941845774,0.0356872864067554,0.0032931847963482,standing,2026-03-04_13-52-06
1772632331307170600,4.700170654296875,-0.0577471825044602,0.0930320655710995,-0.0643014995187521,0.0024699363857507,0.0294735264033079,0.0014877035282552,standing,2026-03-04_13-52-06
1772632331317118700,4.71011865234375,-0.0317499138735234,0.0362023632377386,-0.0196060332238674,0.0077081080526113,0.0105405813083052,0.0020405757240951,standing,2026-03-04_13-52-06
1772632331327066600,4.720066650390625,0.0162121530018746,-0.0032514030113816,-0.0062356795191764,0.016826482489705,0.0053850365802645,0.0068215560168027,standing,2026-03-04_13-52-06
1772632331337015600,4.730015625,0.0108185503300279,0.0192531281329691,0.0062666591793298,0.0221988782286643,0.0085904169827699,0.0097622191533446,standing,2026-03-04_13-52-06
1772632331346963700,4.739963623046875,-0.0213423554971814,0.0466354944467544,0.0577519317448139,0.0150720290839672,-0.0176195073872804,0.0036491034552454,standing,2026-03-04_13-52-06
1772632331356912600,4.74991259765625,-0.04449424463436,-0.0055570496052503,0.1396504627525806,0.0011056140065193,-0.0348451025784015,-0.0077489595860242,standing,2026-03-04_13-52-06
1772632331366860500,4.759860595703125,-0.0644964375689625,-0.0514056314580142,0.0767383717656135,-0.0102834403514862,-0.0050927852280437,-0.0097014876082539,standing,2026-03-04_13-52-06
1772632331376809500,4.7698095703125,-0.0731968267012387,0.0075651745572686,-0.0216103587836027,-0.0144747234880924,0.0360202938318252,-0.0051733152940869,standing,2026-03-04_13-52-06
1772632331386757600,4.779757568359375,-0.0797551623035222,0.0748832454182207,-0.0230564659386873,-0.0195274297147989,0.0387220792472362,-0.0028110404964536,standing,2026-03-04_13-52-06
1772632331396706600,4.78970654296875,-0.0527292082119733,0.0217763630002737,0.0362421107262372,-0.021205486729741,0.0091788340359926,0.0005749023985117,standing,2026-03-04_13-52-06
1772632331406654700,4.79965478515625,0.0168850107621401,-0.0044629707582294,0.0592711041361093,-0.0103907296434044,-0.0178454220294952,0.0048087267205119,standing,2026-03-04_13-52-06
1772632331416603600,4.809603759765625,0.0088472502570599,0.0330417072497308,0.0258119021266698,0.0058425678871572,-0.0364228338003158,0.0050992779433727,standing,2026-03-04_13-52-06
1772632331426551600,4.819551513671875,-0.03892484700419,0.0777592392459511,-0.0798556270033121,0.0240803286433219,-0.0279805418103933,0.0052858311682939,standing,2026-03-04_13-52-06
1772632331436500500,4.82950048828125,-0.0525526095360517,0.0763870741099119,-0.1543266383588314,0.0352120734751224,0.00312544638291,0.0062600160017609,standing,2026-03-04_13-52-06
1772632331446448600,4.83944873046875,-0.0646744244843721,0.0826981569528579,-0.1555886211186647,0.0337419435381889,0.027697954326868,0.0066506257280707,standing,2026-03-04_13-52-06
1772632331456397600,4.8493974609375,-0.0474178769960999,0.0746463679224252,-0.0620773937284946,0.0176575146615505,0.0320373065769672,0.0047704335302114,standing,2026-03-04_13-52-06
1772632331466345500,4.859345458984375,-0.0401743356086313,0.026435440852493,0.1069634141594171,-0.0082068964838981,0.0112168444320559,0.0012964480556547,standing,2026-03-04_13-52-06
1772632331476294400,4.86929443359375,-0.0235587894376367,-0.0013144435994327,0.1911386579275131,-0.0240175500512123,0.0012204030063003,-0.0007461963687092,standing,2026-03-04_13-52-06
1772632331486242600,4.87924267578125,-0.0062376522805541,0.0072264441221952,0.1307604693323373,-0.0260911025106906,0.0165278390049934,0.0036296495236456,standing,2026-03-04_13-52-06
1772632331496191500,4.88919140625,-0.0540615527942776,0.0373665847115218,0.0077624506950378,-0.0137532074004411,0.0402768440544605,0.0022032605484128,standing,2026-03-04_13-52-06
1772632331506139400,4.899139404296875,-0.0649614977974444,0.0513290590904653,-0.0389396792471408,-0.0006735804490745,0.0481872223317623,0.0048681846819818,standing,2026-03-04_13-52-06
1772632331516088600,4.909088623046875,-0.0021204262200742,0.0172264446109533,0.0174140761375427,0.0097204707562923,0.0430598370730876,0.009752687998116,standing,2026-03-04_13-52-06
1772632331526036500,4.919036376953125,0.0389806688446551,-0.0074703358806669,0.14923779078722,0.0059378389269113,0.0075467368587851,0.0065739834681153,standing,2026-03-04_13-52-06
1772632331535985400,4.9289853515625,0.0175503428030759,-0.039517479135096,0.283167537805438,-0.0085329785943031,-0.0472328886389732,-0.0054677654989063,standing,2026-03-04_13-52-06
1772632331545933600,4.93893359375,-0.0032864743247628,-0.0873271319277584,0.3626099078327417,-0.0295100659132003,-0.0876680687069892,-0.0137794343754649,standing,2026-03-04_13-52-06
1772632331555882800,4.9488828125,-0.0135146575462073,-0.0699568949319422,0.2446194882243871,-0.0422735325992107,-0.0849953219294548,-0.0168063826858997,standing,2026-03-04_13-52-06
1772632331565830400,4.958830322265625,-0.0488080527128651,-0.0117950672119855,0.0498749147593975,-0.0494758412241935,-0.0470579303801059,-0.0156235648319125,standing,2026-03-04_13-52-06
1772632331575779600,4.968779541015625,-0.0728119190368801,0.0572002892114222,-0.12784604319036,-0.0449045225977897,-0.0206068828701972,-0.0136267272755503,standing,2026-03-04_13-52-06
1772632331585727700,4.978727783203125,-0.0864781869482249,0.0560157556019723,-0.2162888812750577,-0.0299188718199729,0.0237259492278099,0.0010426614899188,standing,2026-03-04_13-52-06
1772632331595676700,4.9886767578125,-0.0328332886634394,0.1203882745303213,-0.2760755337178707,-0.0106884539127349,0.0547057017683982,0.0194296576082706,standing,2026-03-04_13-52-06
1772632331605624600,4.99862451171875,-0.0044094870053231,0.1223641046479344,-0.2469260116010904,0.0088958460837602,0.0555511191487312,0.0285550858825445,standing,2026-03-04_13-52-06
1772632331615573800,5.00857373046875,-0.0286526054453104,0.0551141305871307,-0.167872933152318,0.0190251786261796,0.0480932034552097,0.0195432156324386,standing,2026-03-04_13-52-06
1772632331625521700,5.018521728515625,-0.0701497871555388,-0.0306419526316225,-0.0718897626906633,0.0139079811051487,0.0364996828138828,0.0097698336467146,standing,2026-03-04_13-52-06
1772632331635470600,5.028470703125,-0.1257039165951311,-0.0614671528756618,0.0128875386238098,0.0067518008872866,0.0291373748332262,-0.00371801154688,standing,2026-03-04_13-52-06
1772632331645418800,5.038418701171875,-0.1429545457992702,-0.0712874128833413,0.0415606754004955,0.0004760506562888,0.015441121533513,-0.0158428456634283,standing,2026-03-04_13-52-06
1772632331655367700,5.04836767578125,-0.0732966338139027,-0.0558947595708072,0.0540074845194816,-0.0107859261333942,0.0052489377558231,-0.0162154212594032,standing,2026-03-04_13-52-06
1772632331665315600,5.058315673828125,-0.0063090370163321,-0.0274773511208593,0.0799818837314844,-0.0205091331154108,0.0016708332113921,-0.0109426230192184,standing,2026-03-04_13-52-06
1772632331675264500,5.068264404296875,0.007743453733623,-0.001714841093868,0.1012789387822151,-0.0223368611186742,0.0010463218204677,-0.0011624295730143,standing,2026-03-04_13-52-06
1772632331685212700,5.078212646484375,0.0075891399547457,0.0282647021062672,0.0510071336597204,-0.0143357701599597,0.0009328657761216,0.0030269387643784,standing,2026-03-04_13-52-06
1772632331695161600,5.08816162109375,0.000485226233676,0.0361323667414486,-0.0027840777605772,0.0030480134300887,0.0027672508731484,0.0041100466623902,standing,2026-03-04_13-52-06
1772632331705109500,5.098109619140625,-0.0401082115698605,0.0308574950784444,-0.033152328017354,0.0139383301138877,-0.0015945874620229,-0.0033214606810361,standing,2026-03-04_13-52-06
1772632331715058700,5.10805859375,-0.0507788047965616,0.0043146483287215,-0.0299655146747827,0.0229414124041795,-0.0066133141517639,-0.0088208885863423,standing,2026-03-04_13-52-06
1772632331725006600,5.118006591796875,-0.0618579057589173,-0.008312193532288,-0.0287122997432947,0.0292935147881507,0.0023664333857595,-0.0102096050977706,standing,2026-03-04_13-52-06
1772632331734955500,5.12795556640625,-0.0429554176945239,0.0264729963839054,0.0010544774889945,0.025458563119173,0.0058815395459532,-0.0057085966691374,standing,2026-03-04_13-52-06
1772632331744903700,5.137903564453125,0.0030273849971592,0.0470601495996117,0.0920452464908361,0.0097592948004603,-0.0096366126090288,-0.002945871092379,standing,2026-03-04_13-52-06
1772632331754852600,5.1478525390625,0.0376007587935775,0.0389620372094213,0.1795885053873062,-0.0129311047494411,-0.0293866153806448,-0.0022478564642369,standing,2026-03-04_13-52-06
1772632331764800500,5.157800537109375,0.0117163028873503,-0.011629209125787,0.152495915800333,-0.0224563181400299,-0.0148107847198843,-0.0067744646221399,standing,2026-03-04_13-52-06
1772632331774749400,5.16774951171875,-0.0653607262481004,0.0103401922285556,0.0048468555092811,-0.0194536037743091,0.0113808717578649,-0.0093587962910532,standing,2026-03-04_13-52-06
1772632331784697600,5.177697509765625,-0.0986964480083435,0.0529088756278157,-0.0579565144062042,-0.0152953434735536,0.0096319736912846,-0.0094378925859928,standing,2026-03-04_13-52-06
1772632331794646500,5.187646484375,-0.0420967550385743,0.0658678720526397,-0.0607534516483545,-0.008629186078906,-0.0095909889787435,-0.0027296557091176,standing,2026-03-04_13-52-06
1772632331804594400,5.197594482421875,0.0428897320471704,0.0548481731273233,-0.0762228234589099,0.0080238543450832,-0.0106324730440974,0.0109197627753019,standing,2026-03-04_13-52-06
1772632331814543400,5.20754345703125,0.0749598908510059,0.1123356087170541,-0.1207680676281452,0.0283621475100517,0.0057382453233003,0.024336501955986,standing,2026-03-04_13-52-06
1772632331824491500,5.217491455078125,0.0235846545312553,0.1395231831111013,-0.1459352421104908,0.0420189052820205,0.01548957452178,0.0262226983904838,standing,2026-03-04_13-52-06
1772632331834440400,5.2274404296875,-0.0462949373807758,0.090431235422939,-0.1056716207832098,0.0410316698253154,0.0092276837676763,0.0165157429873943,standing,2026-03-04_13-52-06
1772632331844388600,5.237388671875,-0.0481182072851806,-0.0149323423244059,-0.0289221431016921,0.0316172018647193,0.005006471183151,0.0085373232141137,standing,2026-03-04_13-52-06
1772632331854336500,5.24733642578125,-0.0203358818683773,-0.0142218559674918,0.0740992554336786,0.009849589318037,0.0108561050146818,0.0065684476867318,standing,2026-03-04_13-52-06
1772632331864285400,5.257285400390625,-0.0420242012590169,-0.0103312782697379,0.1436713888317346,-0.0157101172953844,0.0095055866986513,0.002427511382848,standing,2026-03-04_13-52-06
1772632331874233600,5.267233642578125,-0.0275637142300605,-0.0223559164538979,0.1910042178928852,-0.0326249189674854,0.0099474061280488,0.0044310074299573,standing,2026-03-04_13-52-06
1772632331884182800,5.277182861328125,0.0158824826560914,-0.0256596341744065,0.1401414611399173,-0.0325330309569835,0.014738580211997,0.011578126810491,standing,2026-03-04_13-52-06
1772632331894130400,5.28713037109375,-0.0013807137686759,0.0311442030653357,0.0499614239990711,-0.0208766423165798,0.0102181304246187,0.0119845252484083,standing,2026-03-04_13-52-06
1772632331904079600,5.29707958984375,-0.0567490383125841,0.05421557431221,-0.0043272155493497,-0.0040552513673901,-0.00354187306948,0.0128486063331365,standing,2026-03-04_13-52-06
1772632331914027800,5.30702783203125,-0.0452213898651301,0.0378252882644534,-0.0345399829834699,0.008236302062869,-0.0037645134143531,0.0150108262896537,standing,2026-03-04_13-52-06
1772632331923976700,5.316976806640625,-0.050444166014716,0.0230953366443514,-0.069786652931571,0.0189541392028331,0.0072299451567232,0.0083873867988586,standing,2026-03-04_13-52-06
1772632331938277400,5.33127734375,-0.1109316602032631,0.041672465211898,-0.0437210683047771,0.0067789652384817,0.0158508624881505,-0.0010314148385077,standing,2026-03-04_13-52-06
1772632331948226800,5.341226806640625,-0.1097405507225543,0.0013781564854085,0.0420733010977506,-0.0110079869627952,0.0250577852129936,0.0008364312816411,standing,2026-03-04_13-52-06
1772632331958174500,5.351174560546875,-0.0759008249629288,-0.0134004565820097,0.0923310776948928,-0.0260947942733764,0.0222841035574674,-0.0025897254236042,standing,2026-03-04_13-52-06
1772632331968123600,5.36112353515625,-0.098804730688408,-0.0018758768744766,0.0966974562108516,-0.0277857147157192,0.010079538449645,-0.0135066248476505,standing,2026-03-04_13-52-06
1772632331978071800,5.37107177734375,-0.1030618036109954,-0.0242667185112833,0.0530389317482709,-0.0180153734982013,0.0015656794421374,-0.0135268652811646,standing,2026-03-04_13-52-06
1772632331988020700,5.381020751953125,-0.0661059916574507,0.0007771218523383,-0.0335860432595014,-0.0025469115935266,0.0054693003185093,-0.006385953631252,standing,2026-03-04_13-52-06
1772632331997968600,5.39096875,-0.062053282200545,0.0531336242944002,-0.0912058730572462,0.0101563669741153,0.0231313854455947,-0.0055180294439196,standing,2026-03-04_13-52-06
1772632332007917600,5.40091748046875,-0.0899232128355652,0.0574361437939107,-0.077955346339941,0.0079168677330017,0.0390701480209827,-0.004357588943094,standing,2026-03-04_13-52-06
1772632332017865700,5.41086572265625,-0.1077129904177039,0.0366945306688547,-0.0024193361014127,-0.0085622407495975,0.0576624721288681,-0.0016305120661854,standing,2026-03-04_13-52-06
1772632332027814700,5.420814697265625,-0.1043129727158695,0.0021739830382168,0.1364946290701627,-0.023564726114273,0.0523972809314727,-0.0033384542912244,standing,2026-03-04_13-52-06
1772632332037762600,5.430762451171875,-0.073745546625182,-0.0382116572335362,0.1927098527669906,-0.0250771343708038,0.0301268622279167,-0.0145892444998025,standing,2026-03-04_13-52-06
1772632332047711500,5.44071142578125,-0.074518065367639,-0.1041853277482092,0.2081236949980258,-0.0222026370465755,-0.0092686340212821,-0.0235364437103271,standing,2026-03-04_13-52-06
1772632332057659600,5.45065966796875,-0.0159882811181247,-0.0874627410061657,0.1937602386027574,-0.0141417812556028,-0.0444351434707641,-0.0236943699419498,standing,2026-03-04_13-52-06
1772632332067608600,5.460608642578125,0.0233632668655365,-0.0390640362791717,0.1250607963860034,-0.0090261530131101,-0.0766983777284622,-0.0266799442470073,standing,2026-03-04_13-52-06
1772632332077556700,5.470556640625,0.0285269332390278,-0.0220754920773208,0.0334001652985811,-0.0060364878736436,-0.085933431982994,-0.0309186317026615,standing,2026-03-04_13-52-06
1772632332087505700,5.480505615234375,-0.0315154475305229,-0.0051391164541244,-0.102381347066164,0.0004550227895379,-0.0598769187927246,-0.0330876186490058,standing,2026-03-04_13-52-06
1772632332097453600,5.49045361328125,-0.0598779839880764,0.0498882126323878,-0.2050596312522888,-0.0004038466140627,-0.0282891672104597,-0.0280739516019821,standing,2026-03-04_13-52-06
1772632332107402500,5.500402587890625,-0.0301767462726682,0.1053257299549877,-0.2393558686077594,-0.0001097223721444,-0.0050632008351385,-0.0134909637272357,standing,2026-03-04_13-52-06
1772632332117350700,5.5103505859375,0.0538623038951307,0.1316238081634044,-0.2900479449689388,0.0075005264952778,0.0298572313040494,0.0120042767375707,standing,2026-03-04_13-52-06
1772632332127299600,5.520299560546875,0.1288371000543236,0.1595544560097158,-0.3136597067028284,0.0231287684291601,0.0664257779717445,0.0346784219145774,standing,2026-03-04_13-52-06
1772632332137247500,5.53024755859375,0.0948367038402706,0.1526059520460665,-0.2703326061517,0.0398350432515144,0.0710727274417877,0.0379085689783096,standing,2026-03-04_13-52-06
1772632332147196400,5.540196533203125,0.0277334447737783,0.0795120742626488,-0.1458271055608987,0.0476943179965019,0.0375317707657814,0.0266739372164011,standing,2026-03-04_13-52-06
1772632332157144600,5.55014453125,-0.0040860272046178,-0.044919484309107,0.0093885905921459,0.0450727045536041,0.0074023641645908,0.0157698914408683,standing,2026-03-04_13-52-06
1772632332167093500,5.560093505859375,0.0018797493319958,-0.0808379160389304,0.0796112968534231,0.0419245176017284,-0.0006111050024628,0.0047485139220952,standing,2026-03-04_13-52-06
1772632332177041400,5.57004150390625,-0.0134347972430288,-0.0595107581108808,0.1562882938206195,0.0301573425531387,-0.0124203599989414,-0.0017304245848208,standing,2026-03-04_13-52-06
1772632332186990600,5.579990478515625,-0.0038047260452061,-0.0483960743784904,0.1903068832784891,0.0172874666750431,-0.0250361338257789,0.0019090950954705,standing,2026-03-04_13-52-06
1772632332196938500,5.5899384765625,0.0743550568256527,-0.0389805957794189,0.1808411357969045,0.0089757405221462,-0.0174242872744798,0.0094889840111136,standing,2026-03-04_13-52-06
1772632332206887400,5.599887451171875,0.0747163644187152,0.0222213302887976,0.1237666649222373,0.009020528756082,-0.0060685789212584,0.0157326646149158,standing,2026-03-04_13-52-06
1772632332216835600,5.609835693359375,0.0077346859052777,0.0774634711697697,0.0626075550824403,0.0080388877540826,-0.0033401707187294,0.0175896864384412,standing,2026-03-04_13-52-06
1772632332226784500,5.619784423828125,-0.018097966748476,0.0538721677020192,0.0409276381939649,0.0097938859835267,0.0006753844209015,0.0128685235977172,standing,2026-03-04_13-52-06
1772632332236732400,5.629732421875,-0.0370496277168393,-0.0046675534196197,-0.0094628248721361,0.0156262088567018,0.0177222788333892,0.0083699114620685,standing,2026-03-04_13-52-06
1772632332246681600,5.639681640625,-0.108126831915602,0.0213974466852843,-0.0450531936913728,0.0186212696135044,0.0274340454488992,0.0024189646355807,standing,2026-03-04_13-52-06
1772632332256629500,5.64962939453125,-0.1257219637084752,0.017715689432621,0.0127636199831962,0.0114147551357746,0.0115517508238554,-0.0026879129000008,standing,2026-03-04_13-52-06
1772632332266578700,5.65957861328125,-0.0817730779971927,-0.0169230777502059,0.0920966844171285,0.0031885742209851,-0.0060918903909623,-0.0028843721374869,standing,2026-03-04_13-52-06
1772632332277148400,5.6701484375,-0.0149707015734165,0.0055495969511568,0.1116699844151735,0.0001094271428883,0.0011958496179431,0.0084417853504419,standing,2026-03-04_13-52-06
1772632332287096600,5.6800966796875,-0.0155993548657745,0.0845180658563971,0.0435205772966146,0.0020995601080358,0.0067733190953731,0.0180380549281835,standing,2026-03-04_13-52-06
1772632332297045200,5.690045166015625,-0.0667062956381589,0.0828730751283466,0.0317447993069887,0.0085625192150473,-0.0005333293229341,0.0157381501048803,standing,2026-03-04_13-52-06
1772632332306993200,5.6999931640625,-0.0992039591390639,0.03832110895738,0.0107698158174753,0.0155142163857817,-0.0017346926033496,0.0068241814151406,standing,2026-03-04_13-52-06
1772632332316942300,5.7099423828125,-0.1337944302007556,0.0156494045525789,-0.0102893388241529,0.015554429963231,0.0015777472872287,0.0008571026846766,standing,2026-03-04_13-52-06
1772632332326890200,5.71989013671875,-0.1149515633691102,0.0229315243847668,0.013862521135807,0.0136360377073287,-0.000327660003677,-0.002530998783186,standing,2026-03-04_13-52-06
1772632332336839200,5.729839111328125,-0.0659242053497582,0.0191140119232237,0.0275654677957296,0.0131734460592269,0.0037645534612238,0.0045767119154334,standing,2026-03-04_13-52-06
1772632332346787300,5.739787353515625,-0.0075811758439987,0.0338671982884407,0.0218196176201105,0.0095320669934153,0.0071560102514922,0.0110402833670377,standing,2026-03-04_13-52-06
1772632332356736300,5.749736328125,-0.0225111800808459,0.0344075887754559,0.0340776261687278,0.0052451770752668,0.0103432815521955,0.0111963432282209,standing,2026-03-04_13-52-06
1772632332366684200,5.75968408203125,-0.0408388639319688,-0.0003678103990852,0.0507271476745605,0.0012142164632678,0.0054643698967993,0.006728624459356,standing,2026-03-04_13-52-06
1772632332376633000,5.769633056640625,-0.050691637969762,-0.028530805696547,0.062824412703514,0.0004307143390178,0.0064524025656282,0.0011064254213124,standing,2026-03-04_13-52-06
1772632332386581200,5.779581298828125,-0.056509165142104,-0.0408095647722482,0.0096048636913299,0.0065235858783125,0.0096633238717913,-0.0052906745113432,standing,2026-03-04_13-52-06
1772632332396530200,5.7895302734375,-0.0642081221468746,-0.0378640128396451,-0.0182493579179048,0.009772908873856,0.0071298591792583,-0.0120625607669353,standing,2026-03-04_13-52-06
1772632332406478000,5.79947802734375,-0.0577709287062287,-0.0417325248360633,-0.0090144965827465,0.0115831242874264,0.0042976336553692,-0.0189293846487998,standing,2026-03-04_13-52-06
1772632332416427000,5.809427001953125,-0.0584712589953094,-0.0410616398371756,-0.0071031100034713,0.0087902676314115,0.005313629284501,-0.0202465839684009,standing,2026-03-04_13-52-06
1772632332426375200,5.819375244140625,-0.049464068936184,-0.0254620657756924,-0.002594108146429,0.0047838017344474,0.0019839978776872,-0.0190367046743631,standing,2026-03-04_13-52-06
1772632332436324400,5.829324462890625,-0.0309258841395378,-0.0191787477225065,-0.0068441668063402,0.0055382754653692,-0.0033721514046192,-0.0153607418760657,standing,2026-03-04_13-52-06
1772632332446272300,5.839272216796875,-0.0180528854977339,0.0055948973976075,-0.033711715465784,0.01221364736557,-0.0064989747479557,-0.0114472769200801,standing,2026-03-04_13-52-06
1772632332456221400,5.849221435546875,-0.0135298551153391,0.020814386100322,-0.074366966459155,0.0217576175928115,0.0027405961882323,-0.0076072653755545,standing,2026-03-04_13-52-06
1772632332466169300,5.85916943359375,-0.0553009583961218,0.0617469927303492,-0.1306657767862081,0.0299487207084894,0.0157702881842851,-0.0071228565648198,standing,2026-03-04_13-52-06
1772632332476118300,5.8691181640625,-0.0584282235711812,0.046804129011929,-0.1049374612897634,0.0311708450317382,0.0220899693667888,-0.0052466597408056,standing,2026-03-04_13-52-06
1772632332486066400,5.87906640625,-0.0503404864445328,0.0138351947374641,-0.0358358680129051,0.0279663316905498,0.026973957195878,-0.0105461981147527,standing,2026-03-04_13-52-06
1772632332496015400,5.889015380859375,-0.0888019537206739,0.0228669347159564,0.0306324541509151,0.0202990900725126,0.02478270791471,-0.015916196629405,standing,2026-03-04_13-52-06
1772632332505963300,5.89896337890625,-0.098396149887517,0.0115235567942261,0.0836520966768264,0.0114807765930891,0.0145850628614425,-0.0207744929939508,standing,2026-03-04_13-52-06
1772632332515912200,5.908912109375,-0.0655544221892952,0.0181670864619314,0.1018283893585205,0.0064378138631582,0.0167006775736808,-0.0172327551990747,standing,2026-03-04_13-52-06
1772632332525860400,5.9188603515625,-0.0461447152551263,0.0517997453421354,0.0635918899446725,0.0060527441091835,0.0268918760120868,-0.0156748853623867,standing,2026-03-04_13-52-06
1772632332535808300,5.928808349609375,-0.0895518222399055,0.0547116872660815,0.0423468573421239,0.0103747881948947,0.0288178734481334,-0.0201205015182495,standing,2026-03-04_13-52-06
1772632332545757200,5.938757080078125,-0.0885962750807404,0.0336085473522543,0.0539519549399614,0.0135061293840408,0.031034804880619,-0.0177715867757797,standing,2026-03-04_13-52-06
1772632332555705300,5.948705322265625,-0.0532584197178482,-0.0064778177119791,0.0707119510829448,0.0160521119832992,0.0270776152610778,-0.0161047130823135,standing,2026-03-04_13-52-06
1772632332565654300,5.958654296875,-0.0381552508711814,-0.0101775490127503,0.1369657537132501,0.0103057157248258,0.0045035020448267,-0.0233632307499647,standing,2026-03-04_13-52-06
1772632332575602200,5.968602294921875,-0.0581609509371221,-0.0427354182682931,0.2018821702599525,0.0015702811069786,-0.0224562101066112,-0.0318952016532421,standing,2026-03-04_13-52-06
1772632332585551400,5.97855126953125,-0.0478652554374188,-0.070647215283662,0.2002285578340291,-0.009433633647859,-0.0359483174979686,-0.0332808420062065,standing,2026-03-04_13-52-06
1772632332595500300,5.988500244140625,-0.0494117542270571,-0.0505080980964004,0.1218622926056385,-0.0205272994935512,-0.033321376889944,-0.0336222611367702,standing,2026-03-04_13-52-06
1772632332605448200,5.9984482421875,-0.0633685295175761,-0.0040647652208805,0.0320773922622203,-0.0287471525371074,-0.0237690284848213,-0.0318973250687122,standing,2026-03-04_13-52-06
1772632332615396400,6.008396240234375,-0.0742821377199143,0.0405127737827599,-0.0310252528607845,-0.0308324061334133,-0.0203404761850833,-0.0291934162378311,standing,2026-03-04_13-52-06
1772632332625345300,6.01834521484375,-0.0326045579414814,0.0669767100773751,-0.1168809970617294,-0.0189884155988693,-0.0031285798177123,-0.0142626268789172,standing,2026-03-04_13-52-06
1772632332635293200,6.028293212890625,-0.0263229934539645,0.0849327841371297,-0.2199438966512679,0.0092400275170803,0.0199098940938711,-0.0053383740596473,standing,2026-03-04_13-52-06
1772632332645242000,6.0382421875,-0.0845042565267533,0.105172292958945,-0.279752760925889,0.0358792468905448,0.0338657684624195,-0.0035019014030694,standing,2026-03-04_13-52-06
1772632332655190300,6.048190185546875,-0.0842044698625802,0.0903562704905867,-0.2176689374566078,0.0514637976884841,0.019114788621664,-0.0011322207283228,standing,2026-03-04_13-52-06
1772632332665139200,6.05813916015625,-0.0146147277425974,0.0342034445054829,-0.0887064574569463,0.0545036308467388,-0.0008885047864168,0.0019842749461531,standing,2026-03-04_13-52-06
1772632332675087000,6.068087158203125,-0.0129180798925459,0.0030132103413343,0.019125556230545,0.0445484705269336,-0.0011668051593005,-0.002417930169031,standing,2026-03-04_13-52-06
1772632332685036300,6.078036376953125,-0.0287607419949024,-0.0060204293332993,0.100846392583847,0.0249533057212829,0.003103460650891,-0.0084808394312858,standing,2026-03-04_13-52-06
1772632332694984200,6.087984130859375,-0.0528024195786565,-0.0248126619562506,0.1745563564389944,-0.0018958840519189,0.0099789435043931,-0.0155818918719887,standing,2026-03-04_13-52-06
1772632332704933000,6.09793310546875,-0.0637143472805619,-0.050900604545325,0.1936345663964748,-0.018849404528737,0.0256254244595766,-0.0214219950139522,standing,2026-03-04_13-52-06
1772632332714881300,6.10788134765625,-0.0667469929747283,-0.059054392645508,0.1792068125933408,-0.0294410623610019,0.0229164566844701,-0.0267645642161369,standing,2026-03-04_13-52-06
1772632332724830200,6.117830322265625,-0.044227045065537,-0.0162760120183229,0.1868453446477651,-0.0323475338518619,-0.0034585683606565,-0.029979208484292,standing,2026-03-04_13-52-06
1772632332734778000,6.127778076171875,0.010731602698937,0.0023961013562977,0.1492833834946155,-0.0240432657301425,-0.0278123766183853,-0.0227173008024692,standing,2026-03-04_13-52-06
1772632332744727000,6.13772705078125,0.0707175771061331,0.0121352589517831,0.0467711035251617,-0.0033914470113813,-0.0281863864511251,-0.0128155229613184,standing,2026-03-04_13-52-06
1772632332754675200,6.14767529296875,0.0338495895665138,0.0641870793588459,-0.0931640213876962,0.0230060722678899,-0.0124990362673997,-0.0102908452972769,standing,2026-03-04_13-52-06
1772632332764624400,6.157624267578125,-0.0201263307709246,0.0838993494361639,-0.1489443607985973,0.035198375582695,-0.0073366980068385,-0.0063029415905475,standing,2026-03-04_13-52-06
1772632332774572000,6.167572021484375,-0.0167565620768815,0.0577161297790706,-0.1179027413249015,0.0365571193397045,-0.0080389734357595,-0.0048754876479506,standing,2026-03-04_13-52-06
1772632332784521200,6.177521240234375,0.0190981567669659,0.0258614403568208,-0.0374070628523826,0.0261435899883508,-0.0097741018980741,-0.0047973780892789,standing,2026-03-04_13-52-06
1772632332794469400,6.187469482421875,0.0168589264728128,0.0213850255951285,0.0329758024066686,0.0138688134029507,-0.0147970896214246,-0.0025094563607126,standing,2026-03-04_13-52-06
1772632332804418300,6.197418212890625,0.0432489207483828,0.0283783916138112,0.054213820746541,0.0010651880875229,-0.0175650436431169,0.0023815974127501,standing,2026-03-04_13-52-06
1772632332814366500,6.207366455078125,0.0410674119908362,0.0266755332186818,0.0212520468652248,-0.0012834537774324,-0.0121529679745435,0.000238551525399,standing,2026-03-04_13-52-06
1772632332824315400,6.2173154296875,-0.0029009090732783,0.0152998604625463,-0.0273112007737159,-0.0027953921817243,-0.0017211163649335,4.63863834738e-05,standing,2026-03-04_13-52-06
1772632332834263300,6.22726318359375,-0.0458989238005131,-0.0021288287222385,-0.0748790076345205,-0.0031828819774091,0.0142043204978108,-0.0033547366037964,standing,2026-03-04_13-52-06
1772632332844212200,6.237212158203125,-0.0432934174772351,-0.0019239537999033,-0.0626484716147184,-0.0066628637723624,0.0243526026606559,-0.0040742349810898,standing,2026-03-04_13-52-06
1772632332854160400,6.247160400390625,-0.0301150792133063,0.0043954584799706,-0.0387175609290599,-0.0094788912683725,0.0196654386818408,-0.0033674319274723,standing,2026-03-04_13-52-06
1772632332864109300,6.257109375,-0.0056902475308626,-0.0070770987793803,0.0102682960361242,-0.0101765375584363,0.0120955277234315,0.0020082159899175,standing,2026-03-04_13-52-06
1772632332874057200,6.26705712890625,0.0387722137257456,0.0096676997944712,-0.0003396072179079,-1.79102644324e-05,0.0088675105944275,0.009860279969871,standing,2026-03-04_13-52-06
1772632332884006100,6.277006103515625,0.0536764259342104,0.0475482253775,-0.0611696312338113,0.0210170112550258,0.0097219832241535,0.018127903342247,standing,2026-03-04_13-52-06
1772632332893954300,6.286954345703125,0.0066547817140817,0.0574940114609897,-0.0724696084052324,0.0368550978600978,0.0040595699101686,0.01716117747128,standing,2026-03-04_13-52-06
1772632332903903200,6.2969033203125,-0.0211265938546508,0.0333288536280393,-0.0398965415805578,0.0415682904422283,-0.0054539386183023,0.0151594011113047,standing,2026-03-04_13-52-06
1772632332913851100,6.30685107421875,-0.0193228323683142,0.0255782395012676,0.0156061499327421,0.036755159497261,-0.0047966707497835,0.0124238012358546,standing,2026-03-04_13-52-06
1772632332923800300,6.31680029296875,-0.0285926188863813,0.0204648420102894,0.0902881736904382,0.0186501331627368,0.0003298970405012,0.0142457839101552,standing,2026-03-04_13-52-06
1772632332933748200,6.326748291015625,-0.0176296185843646,0.0451813501156866,0.1276420450508594,0.0043444307520985,0.0048953546211123,0.0181704852730035,standing,2026-03-04_13-52-06
1772632332943697200,6.336697265625,-0.0252017343390732,0.0468871311202645,0.156360190013051,-0.0090425815433263,0.0102027906104922,0.0218194834887981,standing,2026-03-04_13-52-06
1772632332953645300,6.346645263671875,-0.0416363709852099,0.0390996921144425,0.1424076525062322,-0.0125025603920221,0.0083947703242301,0.020896166563034,standing,2026-03-04_13-52-06
1772632332963594200,6.35659423828125,-0.0387915029481053,0.0459516038358211,0.1395879189103841,-0.0126200132071971,-0.0003630630671977,0.0199598129838705,standing,2026-03-04_13-52-06
1772632332973542100,6.366542236328125,-0.0545567159000784,0.0543970683589577,0.0962801075816154,-0.0097360759973526,-0.0130714010447263,0.020169137045741,standing,2026-03-04_13-52-06
1772632332983491000,6.376490966796875,-0.044450551623106,0.0534274926744401,0.0845662889122962,-0.004930826369673,-0.0221146922558546,0.0172088183462619,standing,2026-03-04_13-52-06
1772632332993439200,6.386439208984375,-0.0456518171716481,0.0344106575153768,0.0561807369053363,-0.001784301828593,-0.0218678172677755,0.015100659802556,standing,2026-03-04_13-52-06
1772632333003388200,6.39638818359375,-0.0485766185771673,0.0360014338381588,0.0361047480821609,0.0041303853504359,-0.0137437973171472,0.0124954264611005,standing,2026-03-04_13-52-06
1772632333013336000,6.406336181640625,-0.0553769462417811,0.0231463361792266,-0.0037345103532075,0.0074420263990759,-0.0032860969658941,0.0100996466353535,standing,2026-03-04_13-52-06
1772632333023285200,6.41628515625,-0.0342553938884288,0.0301717047713696,-0.0059124389141798,0.0068346480838954,-0.0080099161714315,0.013419616036117,standing,2026-03-04_13-52-06
1772632333033233200,6.426233154296875,0.0238110106330364,0.0425496864378452,0.0229424841701984,0.0047568497247993,-0.0137524902820587,0.0217784792184829,standing,2026-03-04_13-52-06
1772632333043182000,6.43618212890625,0.0506971178624778,0.0563277441605925,0.0569786092847585,-0.0017402400262653,-0.011672668159008,0.0274010393768548,standing,2026-03-04_13-52-06
1772632333053130200,6.446130126953125,0.0170141900997608,0.0323747677735984,0.0401835418283939,-0.0088625978678464,0.0017877458594739,0.0246473308652639,standing,2026-03-04_13-52-06
1772632333063079400,6.456079345703125,-0.0484733773984015,0.0247851894274353,0.0242950678229331,-0.0161550901830196,0.0206185318529605,0.0201893709599971,standing,2026-03-04_13-52-06
1772632333073027000,6.466027099609375,-0.0359913508355617,-0.0169936587683856,0.055135027244687,-0.0223655812442302,0.0238944888114929,0.0217465199530124,standing,2026-03-04_13-52-06
1772632333082976300,6.475976318359375,-0.0036355069581419,-0.0230726864211261,0.0941243908524513,-0.0227392651140689,0.015320599079132,0.0176711790263652,standing,2026-03-04_13-52-06
1772632333092924400,6.48592431640625,-0.003660860595107,-0.0374069167219102,0.1190028115212917,-0.0236535277217626,-0.0078885834664106,0.0141297075897455,standing,2026-03-04_13-52-06
1772632333102873300,6.495873291015625,0.008232479359582,-0.0466755341961979,0.1330453653991222,-0.0277126990258693,-0.0394089296460151,0.0102329580113291,standing,2026-03-04_13-52-06
1772632333112821200,6.5058212890625,0.0155283354561775,-0.060739423123002,0.1229763913273811,-0.0331404879689216,-0.0628053322434425,0.0042696073651313,standing,2026-03-04_13-52-06
1772632333122770400,6.5157705078125,-0.0109350893817842,-0.090358462447673,0.025455343773961,-0.0301140490919351,-0.0613125525414943,-0.0060494234785437,standing,2026-03-04_13-52-06
1772632333132718300,6.52571826171875,-0.0628004473060369,-0.0511940345339477,-0.1227735622316598,-0.0243967752903699,-0.0461138896644115,-0.0062289205379784,standing,2026-03-04_13-52-06
1772632333142667300,6.535667236328125,-0.0514164451129734,0.0085648531191051,-0.2579635384440422,-0.012809183448553,-0.0174905993044376,0.0057427156716585,standing,2026-03-04_13-52-06
1772632333152615400,6.545615478515625,-0.0037952275644987,0.0941609234705567,-0.3474100006133317,0.0079637393355369,0.0191774014383554,0.0274927522987127,standing,2026-03-04_13-52-06
1772632333162564400,6.555564453125,0.0214862209472805,0.1565048591807484,-0.3675023560494184,0.0248207505792379,0.0427631512284278,0.0422112457454204,standing,2026-03-04_13-52-06
1772632333172512300,6.56551220703125,0.0011461743604391,0.1442762228570878,-0.2819756976723671,0.0375333502888679,0.0488394200801849,0.0484028309583663,standing,2026-03-04_13-52-06
1772632333182461200,6.575461181640625,-0.0222853354357182,0.0886053351700306,-0.1615764633566141,0.0409777164459228,0.0439489185810089,0.0520567409694194,standing,2026-03-04_13-52-06
1772632333192409300,6.585409423828125,-0.0495955863613635,0.0086789810180664,-0.031842998984456,0.0417106188833713,0.0209780894219875,0.0396834276616573,standing,2026-03-04_13-52-06
1772632333202358300,6.595358154296875,-0.1063079459253698,-0.055449353890866,0.1157920327812433,0.0332089066505432,-0.0082334512844681,0.0189794246107339,standing,2026-03-04_13-52-06
1772632333212306200,6.60530615234375,-0.1147150511994957,-0.0890868350766599,0.1468289760798215,0.0233357716351747,-0.0130753442645072,0.0101672913879156,standing,2026-03-04_13-52-06
