time,seconds_elapsed,acc_x,acc_y,acc_z,gyr_x,gyr_y,gyr_z,activity,session
1772632703722882000,0.071882080078125,-0.0825286090722307,-0.0161653181854635,-0.5104454306066036,-0.001491006463766,0.0527389608323574,-0.0246177352964878,standing,2026-03-04_13-58-23
1772632703732831000,0.0818310546875,-0.1974027963561937,0.0145450235072523,-0.4451005595147609,-0.0343530848622322,0.0863677635788917,-0.0386677756905555,standing,2026-03-04_13-58-23
1772632703742780000,0.09177978515625,-0.1901996600443497,0.1032226201958954,-0.3155015351772308,-0.0652560517191886,0.0583824478089809,-0.0496833398938179,standing,2026-03-04_13-58-23
1772632703752728800,0.101728759765625,-0.1400235703812912,0.1419959299001842,-0.1877349869638681,-0.0900511518120765,0.0061107221990823,-0.057887740433216,standing,2026-03-04_13-58-23
1772632703762678000,0.111677978515625,-0.1131089677097275,0.1606143403261899,-0.1693751544088125,-0.0987748876214027,-0.0220904201269149,-0.0563328750431537,standing,2026-03-04_13-58-23
1772632703772627000,0.121626953125,-0.048588272482343,0.2861013993002474,-0.2677262230455875,-0.0854356437921524,-0.0124167557805776,-0.0378848910331726,standing,2026-03-04_13-58-23
1772632703782575900,0.131575927734375,0.0942345732286572,0.472428784488514,-0.4101590099930763,-0.05195027962327,0.0187293197959661,0.0075142695568501,standing,2026-03-04_13-58-23
1772632703792523800,0.141523681640625,0.1916391913281753,0.6116776076376438,-0.4581260453045367,-0.0016463608480989,0.0702998340129852,0.07022425532341,standing,2026-03-04_13-58-23
1772632703802472700,0.15147265625,0.2437424131289124,0.7168306844394654,-0.4505535642236471,0.0710595697164535,0.1361331641674041,0.1342546641826629,standing,2026-03-04_13-58-23
1772632703812422100,0.161422119140625,0.2740872094448656,0.785030944962427,-0.3696574882566928,0.1501173824071884,0.1729612201452255,0.184792935848236,standing,2026-03-04_13-58-23
1772632703822371000,0.17137109375,0.3658509355805814,0.7384827634729445,-0.1810971563845873,0.2195402979850769,0.1654977202415466,0.2220973372459411,standing,2026-03-04_13-58-23
1772632703832320000,0.181320068359375,0.4002021179936826,0.5867478221077471,0.123297293844819,0.2682114243507385,0.1156718358397483,0.2333233654499054,standing,2026-03-04_13-58-23
1772632703842269000,0.19126904296875,0.3437999934226274,0.4270838413089513,0.4243821811348199,0.2942185401916504,0.0541369840502738,0.2209682911634445,standing,2026-03-04_13-58-23
1772632703852217900,0.2012177734375,0.2734664471980184,0.2849098514281213,0.6072060151815414,0.2961972653865814,-0.0006098865997046,0.2061270326375961,standing,2026-03-04_13-58-23
1772632703862166800,0.211166748046875,0.2619690477583557,0.2013070007205009,0.752382547879219,0.2652523815631866,-0.0276995617896318,0.1954496204853058,standing,2026-03-04_13-58-23
1772632703872115000,0.221114990234375,0.2340766130305826,0.1213910218320786,0.859390970224142,0.205724611878395,-0.0273983590304851,0.1825567185878753,standing,2026-03-04_13-58-23
1772632703882064000,0.23106396484375,0.2414182810302823,0.0102716570369899,0.910163710606098,0.1279831081628799,-0.0092601086944341,0.1619000881910324,standing,2026-03-04_13-58-23
1772632703892012800,0.2410126953125,0.2000892224285751,-0.1337548288427293,0.841438549426198,0.0507708825170993,0.0439160279929637,0.1140710413455963,standing,2026-03-04_13-58-23
1772632703901962000,0.2509619140625,-0.0033007220458239,-0.3177852622002363,0.557744941920042,-0.0151105476543307,0.1238898262381553,0.0498323887586593,standing,2026-03-04_13-58-23
1772632703911911000,0.260910888671875,-0.2580766434296965,-0.3900853592574596,0.1421054546892642,-0.0561767593026161,0.2138977497816085,-0.0041384338401257,standing,2026-03-04_13-58-23
1772632703921860000,0.270860107421875,-0.4106975738491862,-0.3747330379553139,-0.2342506544232368,-0.0755816027522087,0.3504042327404022,-0.0515527874231338,standing,2026-03-04_13-58-23
1772632703931809000,0.28080908203125,-0.4959790983587503,-0.3863552328184246,-0.46847091370821,-0.0891746431589126,0.4160487353801727,-0.0686976909637451,standing,2026-03-04_13-58-23
1772632703941757000,0.2907568359375,-0.505829607374221,-0.2998231967911124,-0.4293874420762061,-0.0980619192123413,0.4145058095455169,-0.0891530960798263,standing,2026-03-04_13-58-23
1772632703951705900,0.300705810546875,-0.4934538176648319,-0.3439734502933919,-0.2363175238251686,-0.1152707338333129,0.3746175169944763,-0.1124171391129493,standing,2026-03-04_13-58-23
1772632703961654800,0.31065478515625,-0.4859497256450354,-0.3731823013819754,-0.0515577532798051,-0.1460159420967102,0.3104433417320251,-0.1396243125200271,standing,2026-03-04_13-58-23
1772632703971604000,0.32060400390625,-0.5776886826656759,-0.3120532944194972,0.1128349365413188,-0.1689212471246719,0.1925787627696991,-0.130335733294487,standing,2026-03-04_13-58-23
1772632703981553000,0.330552978515625,-0.5442284577429294,-0.1893406685948371,0.1174596737325191,-0.1344799250364303,0.0930489599704742,-0.1191382259130477,standing,2026-03-04_13-58-23
1772632703991501800,0.340501708984375,-0.5473756697274744,-0.1349804251149296,-0.1018026703953742,-0.0502438731491565,0.0144273908808827,-0.1352617889642715,standing,2026-03-04_13-58-23
1772632704001451000,0.350450927734375,-0.6181521374139934,-0.0279200533870607,-0.3251595903605223,0.0590303651988506,-0.0370954684913158,-0.1592905074357986,standing,2026-03-04_13-58-23
1772632704011400000,0.36039990234375,-0.6187229961045086,0.065667673305422,-0.4247913464576006,0.1708423793315887,-0.0482160300016403,-0.1782751083374023,standing,2026-03-04_13-58-23
1772632704021348000,0.37034814453125,-0.5779387119039893,0.1694638556055724,-0.3947252940177917,0.2677580714225769,-0.0313313081860542,-0.184984341263771,standing,2026-03-04_13-58-23
1772632704031297000,0.380297119140625,-0.5372566459689289,0.2990400835894048,-0.1780038665443658,0.3247353434562683,-0.0244536958634853,-0.1876019686460495,standing,2026-03-04_13-58-23
1772632704041246000,0.390245849609375,-0.4409131177622825,0.3471159861028194,0.203852593550086,0.3271272182464599,-0.0556835234165191,-0.1891321539878845,standing,2026-03-04_13-58-23
1772632704051195000,0.40019482421875,-0.345852249777317,0.3058386576883494,0.6204127027571201,0.2900935411453247,-0.0916103720664978,-0.2015113234519958,standing,2026-03-04_13-58-23
1772632704061143800,0.410143798828125,-0.2059736773572862,0.2582062611587345,0.9297592224359512,0.2181221544742584,-0.1320177167654037,-0.2207609266042709,standing,2026-03-04_13-58-23
1772632704071092700,0.4200927734375,-0.09531338144131,0.2733741658046841,1.1661083104431629,0.1318927258253097,-0.1733281463384628,-0.2312977164983749,standing,2026-03-04_13-58-23
1772632704081042000,0.4300419921875,0.0592125058166682,0.3229080120414495,1.2028320672065018,0.058797962963581,-0.1932451128959655,-0.2305962741374969,standing,2026-03-04_13-58-23
1772632704090989800,0.43998974609375,0.1729382537178695,0.3595857377059757,1.070450134152174,0.0059842858463525,-0.1879448890686035,-0.2127696126699447,standing,2026-03-04_13-58-23
1772632704100939000,0.44993896484375,0.242232593087852,0.4194806728288531,0.9088052817344664,-0.0302779152989387,-0.1779645681381225,-0.1797458082437515,standing,2026-03-04_13-58-23
1772632704110888000,0.459887939453125,0.3102998018156737,0.4467721459887921,0.7542576941013336,-0.0425513572990894,-0.2058569192886352,-0.1416271775960922,standing,2026-03-04_13-58-23
1772632704120836900,0.4698369140625,0.3733490362510085,0.439844830943644,0.6566115588635206,-0.0387579165399074,-0.2644701898097992,-0.1068018153309822,standing,2026-03-04_13-58-23
1772632704130786000,0.4797861328125,0.3909398571949452,0.4073123883903026,0.6013157880991697,-0.0354004688560962,-0.3682173490524292,-0.0723309218883514,standing,2026-03-04_13-58-23
1772632704140735000,0.48973486328125,0.4566023428685963,0.3729239427067339,0.582376109829545,-0.0383646227419376,-0.4991698861122131,-0.055416814982891,standing,2026-03-04_13-58-23
1772632704150684000,0.499683837890625,0.4592101142141968,0.2505881873704493,0.4449199422508478,-0.0463362634181976,-0.5894281268119812,-0.0740344449877739,standing,2026-03-04_13-58-23
1772632704160632800,0.5096328125,0.1992464149288833,0.1066973105691373,0.1886445030242204,-0.0592292919754982,-0.597345769405365,-0.1307101100683212,standing,2026-03-04_13-58-23
1772632704170580700,0.519580810546875,-0.2189469580357894,0.0442472841359674,-0.1085667577028274,-0.0849817991256713,-0.5257237553596497,-0.2000529766082763,standing,2026-03-04_13-58-23
1772632704180530000,0.529530029296875,-0.5439435763869435,0.001000555344671,-0.4118108688533305,-0.1028560474514961,-0.3926295936107635,-0.2513229846954345,standing,2026-03-04_13-58-23
1772632704190479000,0.53947900390625,-0.6554498216077685,0.0081979195028543,-0.698286216032505,-0.1161801069974899,-0.2558480203151703,-0.2738102078437805,standing,2026-03-04_13-58-23
1772632704200428000,0.549427978515625,-0.5900972786661237,0.0421696010790765,-0.8345692481786012,-0.1215759590268135,-0.1480010747909546,-0.2697769999504089,standing,2026-03-04_13-58-23
1772632704210377000,0.559376953125,-0.4212427871305495,0.0644132893301546,-0.8382225099891424,-0.1185205206274986,-0.0758917406201362,-0.2461409270763397,standing,2026-03-04_13-58-23
1772632704220326000,0.569325927734375,-0.1992782348392531,0.098413466348499,-0.8016109814286232,-0.1148628816008567,-0.0480968356132507,-0.2131653279066085,standing,2026-03-04_13-58-23
1772632704230274800,0.57927490234375,-0.0621597747823223,0.1339144033186137,-0.7234031216323376,-0.1043974533677101,-0.0454565770924091,-0.1808523833751678,standing,2026-03-04_13-58-23
1772632704240224000,0.58922412109375,0.051095396465063,0.135259534317255,-0.6781617118924855,-0.0798244923353195,-0.0614668503403663,-0.1564518809318542,standing,2026-03-04_13-58-23
1772632704250172000,0.599171875,0.0860860823580995,0.1240047114618122,-0.6492430759221315,-0.0425045564770698,-0.0862158760428428,-0.1376611441373825,standing,2026-03-04_13-58-23
1772632704260120800,0.609120849609375,0.0701650212572887,0.1277951897859573,-0.662416445749998,0.0096396273002028,-0.0988772064447403,-0.1229094788432121,standing,2026-03-04_13-58-23
1772632704270069800,0.61906982421875,0.0617572218634188,0.1551427770473062,-0.6752543000131845,0.072983980178833,-0.1007712483406066,-0.1061054617166519,standing,2026-03-04_13-58-23
1772632704280018700,0.629018798828125,0.0638014410421252,0.1993818778768181,-0.6193026956886053,0.1328283846378326,-0.0928269177675247,-0.093836709856987,standing,2026-03-04_13-58-23
1772632704289968000,0.638968017578125,0.0944761999648064,0.2119331702835857,-0.5111187998235225,0.1797737777233123,-0.0826738774776458,-0.0786239355802536,standing,2026-03-04_13-58-23
1772632704299917000,0.6489169921875,0.1404309821384027,0.1817090046726167,-0.3691296649903058,0.2113112509250641,-0.0699439570307731,-0.0632891356945037,standing,2026-03-04_13-58-23
1772632704309866000,0.658865966796875,0.1560010013118386,0.1584716292090714,-0.1563812328010797,0.2167582064867019,-0.0559162944555282,-0.043542593717575,standing,2026-03-04_13-58-23
1772632704319814000,0.66881396484375,0.154079750925675,0.1361345635861158,0.0933031375974416,0.201087087392807,-0.0453926883637905,-0.0229243040084838,standing,2026-03-04_13-58-23
1772632704329762800,0.6787626953125,0.1513445172755047,0.1029005486346781,0.3464414478421211,0.1635290533304214,-0.0550530366599559,-0.0112830949947237,standing,2026-03-04_13-58-23
1772632704339712000,0.6887119140625,0.0948610345639288,0.0288834185265004,0.5663707314461469,0.1207488253712654,-0.0876915156841278,-0.0064586345106363,standing,2026-03-04_13-58-23
1772632704349661000,0.698660888671875,0.0509819626858457,-0.0744940999701619,0.6802835263520479,0.0802272334694862,-0.1234146207571029,-0.0145751498639583,standing,2026-03-04_13-58-23
1772632704359609900,0.70860986328125,-0.0139933444412425,-0.135888918261975,0.6788052704930305,0.051118116825819,-0.1625434011220932,-0.0316744819283485,standing,2026-03-04_13-58-23
1772632704369558800,0.718558837890625,-0.0746952850980684,-0.1589746102951467,0.5924328089416027,0.0367844514548778,-0.1885566264390945,-0.0517509877681732,standing,2026-03-04_13-58-23
1772632704379508000,0.728508056640625,-0.1127758267652243,-0.2089477247320115,0.3835276081770658,0.0441797003149986,-0.1770666688680648,-0.073820412158966,standing,2026-03-04_13-58-23
1772632704389457000,0.738456787109375,-0.2287237442279234,-0.2200308442823588,0.1675023462742567,0.0554219707846641,-0.1431116312742233,-0.0900126844644546,standing,2026-03-04_13-58-23
1772632704399405000,0.748405029296875,-0.2730922070581466,-0.1717766625925898,0.0771492906540632,0.054846279323101,-0.126382976770401,-0.0901987627148628,standing,2026-03-04_13-58-23
1772632704409354000,0.75835400390625,-0.2227912489064037,-0.1906719171985983,0.0797001441806554,0.0540052540600299,-0.1212968826293945,-0.0820042192935943,standing,2026-03-04_13-58-23
1772632704419303000,0.768302978515625,-0.1234516989552415,-0.230829009411484,0.0455523753851652,0.0539411753416061,-0.1037484034895896,-0.0800841227173805,standing,2026-03-04_13-58-23
1772632704429251800,0.778251953125,-0.1172743620271794,-0.2416504092857241,0.0017833762854337,0.0499717332422733,-0.0774294510483741,-0.0876131430268287,standing,2026-03-04_13-58-23
1772632704439200800,0.78820068359375,-0.1452597357354126,-0.1798641074582934,0.0174766199797391,0.037590704858303,-0.0579649209976196,-0.1014298722147941,standing,2026-03-04_13-58-23
1772632704449150000,0.79814990234375,-0.1303151184513233,-0.1998421888649463,0.0472439817339181,0.0224410444498062,-0.0383552685379982,-0.1168407872319221,standing,2026-03-04_13-58-23
1772632704459099000,0.808098876953125,-0.1103070620315149,-0.2117110519655048,0.055955695977807,0.0031663947738707,-0.0268982127308845,-0.1288478076457977,standing,2026-03-04_13-58-23
1772632704469048000,0.818048095703125,-0.0536022647194564,-0.1208916940078139,0.0962321767866611,-0.0209304206073284,-0.0273869037628173,-0.1315677016973495,standing,2026-03-04_13-58-23
1772632704478996000,0.827995849609375,0.0189968152843415,-0.0466876630254089,0.1348942081362009,-0.0372132547199726,-0.0464676693081855,-0.1293980330228805,standing,2026-03-04_13-58-23
1772632704488945000,0.83794482421875,0.0837668090976774,0.0270765152350068,0.0538619385689497,-0.039867628365755,-0.0564084500074386,-0.1210269182920456,standing,2026-03-04_13-58-23
1772632704498894000,0.84789404296875,0.1141385847521014,0.1414152804680168,-0.0595054974138736,-0.0336930453777313,-0.0550355911254882,-0.1060905307531356,standing,2026-03-04_13-58-23
1772632704508843000,0.857843017578125,0.0960714880659244,0.264732009665668,-0.1726297722905874,-0.0130410306155681,-0.048537477850914,-0.0942301452159881,standing,2026-03-04_13-58-23
1772632704518792000,0.8677919921875,0.0880065838255919,0.3547835981212556,-0.2299754613220691,0.0099927838891744,-0.0402608998119831,-0.085442379117012,standing,2026-03-04_13-58-23
1772632704528740900,0.877740966796875,0.0841990995677188,0.4211636574797332,-0.2237000343143939,0.0219338648021221,-0.0324357338249683,-0.0717129781842231,standing,2026-03-04_13-58-23
1772632704538689800,0.887689697265625,0.1270388184607029,0.4688853397279977,-0.1295370650172233,0.0245192684233188,-0.0328072309494018,-0.0600493848323822,standing,2026-03-04_13-58-23
1772632704548638000,0.897637939453125,0.1731652856730856,0.4549418623104691,-0.0290501533955335,0.0182749535888433,-0.0417410694062709,-0.0513408482074737,standing,2026-03-04_13-58-23
1772632704558587000,0.9075869140625,0.2216645646977238,0.4494488178521394,0.0251531459569931,0.0064935744740068,-0.0368448458611965,-0.0373478829860687,standing,2026-03-04_13-58-23
1772632704568536000,0.9175361328125,0.2704982450421899,0.4652069434762,0.0722118342518806,-0.0078656570985913,-0.0300982594490051,-0.013426037505269,standing,2026-03-04_13-58-23
1772632704578485000,0.927485107421875,0.3118806412663311,0.4698246664047241,0.1223451076865196,-0.0266083870083093,-0.0316608697175979,0.0121245244517922,standing,2026-03-04_13-58-23
1772632704588434000,0.937433837890625,0.3609456278823316,0.408230233887583,0.1277975278735161,-0.0376344099640846,-0.0239861756563186,0.0332095734775066,standing,2026-03-04_13-58-23
1772632704598382800,0.9473828125,0.3520223532469942,0.3187681357577443,0.061336219972372,-0.0418495535850524,0.0018881480209529,0.0454054698348045,standing,2026-03-04_13-58-23
1772632704608332000,0.95733203125,0.2731221455386839,0.2791092023253441,0.0352981078743934,-0.0478973239660263,0.0237055607140064,0.055787805467844,standing,2026-03-04_13-58-23
1772632704618281000,0.967281005859375,0.2038861487598158,0.2141767114266753,0.0474812976211309,-0.051341213285923,0.026721466332674,0.0671546980738639,standing,2026-03-04_13-58-23
1772632704628228900,0.977228759765625,0.2258257029651664,0.1326440911218523,0.0377525152891874,-0.0402688533067703,0.0250181090086698,0.0803205668926239,standing,2026-03-04_13-58-23
1772632704638177800,0.987177734375,0.2164157773240469,0.0548342907324433,-0.0255009364813566,-0.0165789704769849,0.0208497289568185,0.094534657895565,standing,2026-03-04_13-58-23
1772632704648126700,0.997126708984375,0.1897788590827025,0.0401449633836746,-0.0097118311971426,0.0034695719368755,-0.0032502810936421,0.1146569699048996,standing,2026-03-04_13-58-23
1772632704658076000,1.007075927734375,0.2658067627577111,0.0042861528865993,0.0406873996973037,0.026661317795515,-0.0265284199267625,0.1362393796443939,standing,2026-03-04_13-58-23
1772632704668024800,1.01702490234375,0.2323630688446573,-0.095787501759082,0.0748532886713743,0.0396202616393566,-0.0405409075319767,0.1377656310796737,standing,2026-03-04_13-58-23
1772632704677973800,1.026973876953125,0.0800339061796665,-0.2119049671024084,0.1342360364884138,0.040294125676155,-0.0670415014028549,0.1168852150440216,standing,2026-03-04_13-58-23
1772632704687923000,1.0369228515625,-0.0808088360749185,-0.2971219750083982,0.1662923859626054,0.0366490595042705,-0.0828638672828674,0.0859083905816078,standing,2026-03-04_13-58-23
1772632704697870800,1.046870849609375,-0.1571416775132529,-0.3937589332036674,0.1100064351171255,0.0258777663111686,-0.0595553591847419,0.0553612522780895,standing,2026-03-04_13-58-23
1772632704707820000,1.056820068359375,-0.2284364699854515,-0.4059698877401649,0.0160112236022949,0.0064702476374804,-0.0225499346852302,0.0342716798186302,standing,2026-03-04_13-58-23
1772632704717769000,1.06676904296875,-0.2917108914787881,-0.3455633498333394,-0.0157663089305162,-0.0188718624413013,-0.0016901926137506,0.0205279067158699,standing,2026-03-04_13-58-23
1772632704727718000,1.0767177734375,-0.286281121515017,-0.3002114654563367,0.015046762484312,-0.0424280539155006,0.0005655046552419,0.0167006775736808,standing,2026-03-04_13-58-23
1772632704737666800,1.086666748046875,-0.2142577407736331,-0.257638398142904,0.0446194784492254,-0.0522324182093143,-0.004904777277261,0.0200865324586629,standing,2026-03-04_13-58-23
1772632704747615700,1.09661572265625,-0.1858294273371808,-0.154702193672955,0.0267746096789836,-0.0458288490772247,-0.0112353768199682,0.0170649103820323,standing,2026-03-04_13-58-23
1772632704757564700,1.106564697265625,-0.2013488853671587,-0.0601804740659892,-0.0505032757908105,-0.0255526304244995,-0.0214495304971933,0.01663438975811,standing,2026-03-04_13-58-23
1772632704767513900,1.116513916015625,-0.2179710256757214,0.0337163916409015,-0.1022521677285432,0.0052630752325057,-0.0182587970048189,0.0101152379065752,standing,2026-03-04_13-58-23
1772632704777461800,1.126461669921875,-0.2239354139728471,0.1262520519971847,-0.1604009898364543,0.032795637845993,-0.0205680113285779,0.0045622964389622,standing,2026-03-04_13-58-23
1772632704787410700,1.13641064453125,-0.2262728987433947,0.2105637816265225,-0.1065641857087612,0.0415457189083099,-0.0429148636758327,-0.0010369996307417,standing,2026-03-04_13-58-23
1772632704797359900,1.14635986328125,-0.1683107948466204,0.2500214933983981,0.0535673395365476,0.0301127210259437,-0.0728109925985336,-0.000399496871978,standing,2026-03-04_13-58-23
1772632704807308800,1.156308837890625,-0.1074781039495952,0.2465403732843697,0.1541372532665729,0.0048843305557966,-0.0989821404218673,-0.0076081412844359,standing,2026-03-04_13-58-23
1772632704817258000,1.166258056640625,-0.0986133637016173,0.2727034269362688,0.1817588351637125,-0.0216469224542379,-0.0963613167405128,-0.0091773169115185,standing,2026-03-04_13-58-23
1772632704827207000,1.17620703125,-0.0969255658783018,0.2909641830310225,0.0931698666065931,-0.048294510692358,-0.0641357377171516,-0.0055937678553164,standing,2026-03-04_13-58-23
1772632704837155800,1.18615576171875,-0.067702375737112,0.3339053530044854,-0.0335007030636072,-0.0614030249416828,-0.0049253883771598,0.0015883604064583,standing,2026-03-04_13-58-23
1772632704847104800,1.196104736328125,-0.0838476831810083,0.4028019252285361,-0.2443061844915151,-0.0535245947539806,0.0909851640462875,0.0088593233376741,standing,2026-03-04_13-58-23
1772632704857053000,1.206052978515625,-0.1172032969518099,0.4532343277402222,-0.4308873252451419,-0.034939669072628,0.1607310771942138,0.0260989423841238,standing,2026-03-04_13-58-23
1772632704867001900,1.216001953125,-0.0353128853184171,0.3290966375485062,-0.469431283172965,-0.007814573124051,0.1746761798858642,0.035564087331295,standing,2026-03-04_13-58-23
1772632704876950800,1.22595068359375,0.0189888329072855,0.2140640448324382,-0.3677273969769478,0.0214972905814647,0.141663372516632,0.0378592535853385,standing,2026-03-04_13-58-23
1772632704886900000,1.23589990234375,-0.0060441572687588,0.1366771460302174,-0.2055769331246614,0.0433173701167106,0.0939003825187683,0.0335758253931999,standing,2026-03-04_13-58-23
1772632704896849000,1.245848876953125,0.0094447594924829,0.0314908245459198,-0.101816114398837,0.0604143664240837,0.0349345207214355,0.0299931019544601,standing,2026-03-04_13-58-23
1772632704906797800,1.2557978515625,0.0305017221770249,-0.0376698054417967,-0.0498415970116853,0.082334317266941,-0.0161896497011184,0.0280644390732049,standing,2026-03-04_13-58-23
1772632704916746800,1.265746826171875,0.0851206896583549,-0.1515573197759687,-0.0935275940030813,0.0976584553718566,-0.0492605045437812,0.0231682751327753,standing,2026-03-04_13-58-23
1772632704926696000,1.275696044921875,0.0292102210617624,-0.131619862640649,-0.1191694002598524,0.1110027581453323,-0.0483289323747158,0.02277173101902,standing,2026-03-04_13-58-23
1772632704936643800,1.285643798828125,-0.0479903979207389,-0.1172726267278194,-0.1265600950330495,0.1161486729979515,-0.0303708463907241,0.0264820605516433,standing,2026-03-04_13-58-23
1772632704946592800,1.2955927734375,-0.1235044703220948,-0.155777275558561,-0.0675502721816301,0.1114543154835701,-0.0138616431504488,0.0231658909469842,standing,2026-03-04_13-58-23
1772632704956541700,1.305541748046875,-0.173082959418185,-0.2196912370644509,-0.009675590839982,0.1005162298679351,0.0088705644011497,0.0176175031810998,standing,2026-03-04_13-58-23
1772632704966490600,1.31549072265625,-0.2099611578245647,-0.2522356623165309,0.0697556732714176,0.0840618908405304,0.0365256257355213,0.0107097961008548,standing,2026-03-04_13-58-23
1772632704976440000,1.325440185546875,-0.2806196799535304,-0.2302807278789579,0.1851706894338131,0.0634785220026969,0.0488775186240673,0.0003485884517431,standing,2026-03-04_13-58-23
1772632704986389000,1.335388916015625,-0.3053641537780873,-0.2465716452054679,0.2676455590248108,0.0458649061620235,0.034499641507864,-0.0158444959670305,standing,2026-03-04_13-58-23
1772632704996338000,1.345337890625,-0.2807696828834712,-0.2808032928921282,0.3033540012657642,0.0384528562426567,0.0240367334336042,-0.0266998931765556,standing,2026-03-04_13-58-23
1772632705006285800,1.355285888671875,-0.2637419574487022,-0.2636274094246327,0.276280116379261,0.0347806215286254,0.0136948805302381,-0.0361573100090026,standing,2026-03-04_13-58-23
1772632705016234800,1.36523486328125,-0.2713399382970295,-0.1896488577611744,0.2939192334443331,0.0292997919023036,-0.0311133358627557,-0.0537454038858413,standing,2026-03-04_13-58-23
1772632705026184000,1.375183837890625,-0.2349465094665996,-0.139796154833585,0.3227665577441453,0.0301512070000171,-0.0775641873478889,-0.066042810678482,standing,2026-03-04_13-58-23
1772632705036132900,1.3851328125,-0.185089587021619,-0.1106847727701067,0.2637818693339824,0.0333266779780387,-0.0864388868212699,-0.0719833299517631,standing,2026-03-04_13-58-23
1772632705046081800,1.395081787109375,-0.1694496078845113,0.0273690684407949,0.2100771671533584,0.0231246389448642,-0.0871395617723465,-0.068028800189495,standing,2026-03-04_13-58-23
1772632705056030700,1.40503076171875,-0.1090456729267258,0.1181027939416468,0.2567781280517578,-0.0044752736575901,-0.1168595179915428,-0.0701101720333099,standing,2026-03-04_13-58-23
1772632705065980000,1.41497998046875,-0.0526925294633954,0.1764561987109482,0.3341086204916239,-0.0240385886281728,-0.1225709319114685,-0.0724098086357116,standing,2026-03-04_13-58-23
1772632705075928800,1.4249287109375,-0.0339714989131316,0.1887615535326302,0.1668932744652032,-0.0289585664868354,-0.0727669149637222,-0.0679040849208831,standing,2026-03-04_13-58-23
1772632705085877000,1.434876953125,-0.0549377693732269,0.3114084206447005,-0.0738087480545044,-0.0328712835907936,-0.0201111584901809,-0.0544407404959201,standing,2026-03-04_13-58-23
1772632705095826000,1.444825927734375,-0.029134351947112,0.418150154877454,-0.0868839182049036,-0.0410579480230808,0.0026851058937609,-0.0349474363029003,standing,2026-03-04_13-58-23
1772632705105774800,1.45477490234375,0.0543456760984379,0.4067899719513952,0.0112584761172533,-0.0567695312201976,-0.0114501537755131,-0.0179183855652809,standing,2026-03-04_13-58-23
1772632705115723800,1.464723876953125,0.1373439759084954,0.3202317785695195,0.1591775855213403,-0.0723580494523048,-0.0405940450727939,-0.0064075021073222,standing,2026-03-04_13-58-23
1772632705125672700,1.474672607421875,0.1242821401637047,0.2450041036278009,0.2828279305875301,-0.086807832121849,-0.0813822150230407,-0.0101926531642675,standing,2026-03-04_13-58-23
1772632705135622000,1.484621826171875,0.1134543379481416,0.1782312455594539,0.3087918084055185,-0.0936988070607185,-0.1120812743902206,-0.0112803289666771,standing,2026-03-04_13-58-23
1772632705145570800,1.49457080078125,0.1436044062764384,0.1467969735063612,0.2273737543910741,-0.0942833721637725,-0.1043269485235214,-0.0100590027868747,standing,2026-03-04_13-58-23
1772632705155518700,1.504518798828125,0.0975854180265217,0.1468994109675288,0.0454991838932037,-0.0925912857055664,-0.0865761935710907,-0.0126642072573304,standing,2026-03-04_13-58-23
1772632705165467600,1.514467529296875,0.0096014570246916,0.1341688164710998,-0.1004962639719247,-0.0936291217803955,-0.0755485743284225,-0.0150160444900393,standing,2026-03-04_13-58-23
1772632705175416800,1.524416748046875,0.0081967276261886,0.0902297215014696,-0.2131786403000354,-0.0872731134295463,-0.0605332776904106,-0.0089219622313976,standing,2026-03-04_13-58-23
1772632705185366000,1.534365966796875,0.0526538779534399,0.0750175393223762,-0.3266138808220625,-0.0729197412729263,-0.0377952083945274,0.0026321625337004,standing,2026-03-04_13-58-23
1772632705195315000,1.54431494140625,0.0409314147533616,0.1490780701808631,-0.456234532469511,-0.046579286456108,0.0032245086040347,0.0132435653358697,standing,2026-03-04_13-58-23
1772632705205264000,1.554263916015625,-0.0221016174658434,0.1509042626947164,-0.5697159502208232,-0.0119893513619899,0.0400264635682106,0.015565576031804,standing,2026-03-04_13-58-23
1772632705215212800,1.564212890625,-0.0683357280374737,0.1002148166820406,-0.6301029066443443,0.0204649567604064,0.0570867024362087,0.0155471907928586,standing,2026-03-04_13-58-23
1772632705225161700,1.57416162109375,-0.0532493322290945,0.0429018608763814,-0.5796446390390396,0.0523416623473167,0.0671883374452591,0.011782013811171,standing,2026-03-04_13-58-23
1772632705235110000,1.58410986328125,-0.0533196392526384,-0.0010315350048243,-0.4315858289033174,0.0789656043052673,0.0680624023079872,0.007949249818921,standing,2026-03-04_13-58-23
1772632705245058800,1.594058837890625,-0.0617322700852528,-0.0452586531355977,-0.2757581383317709,0.0936241745948791,0.0563831031322479,0.0050570573657751,standing,2026-03-04_13-58-23
1772632705255007700,1.6040078125,-0.0472249482398852,-0.1080190606921911,-0.087865914979577,0.0947221666574478,0.0363394767045974,0.0038161205593496,standing,2026-03-04_13-58-23
1772632705264957000,1.61395703125,-0.0207154923031106,-0.1589313556753099,0.0981517466723918,0.0828415378928184,0.0175018720328807,0.0015838586259633,standing,2026-03-04_13-58-23
1772632705274905900,1.62390576171875,-0.0206070178268011,-0.1925607996851205,0.2518891869664192,0.0534428805112838,-0.0174391977488994,-0.0083110043779015,standing,2026-03-04_13-58-23
1772632705284854800,1.633854736328125,-0.0468892956778872,-0.2336164481729269,0.3831774795651436,0.0289537832140922,-0.0468753837049007,-0.0278596710413694,standing,2026-03-04_13-58-23
1772632705294804000,1.643803955078125,-0.0640709878316614,-0.2621837864875793,0.3162181590139866,0.0320495516061782,-0.0286437887698411,-0.0459886379539966,standing,2026-03-04_13-58-23
1772632705304753000,1.6537529296875,-0.1090711544278543,-0.2121856837399303,0.0167974055439233,0.0510133877396583,0.0299175269901752,-0.0531802363693714,standing,2026-03-04_13-58-23
1772632705314700800,1.66370068359375,-0.1902639939848333,-0.0958355786845088,-0.1920008277148008,0.0725928768515586,0.0715489983558654,-0.0547344274818897,standing,2026-03-04_13-58-23
1772632705324649700,1.673649658203125,-0.1630620257392525,-0.0608691869825124,-0.1820078414887189,0.085950493812561,0.060875579714775,-0.0563317909836769,standing,2026-03-04_13-58-23
1772632705334598700,1.6835986328125,-0.0282833154751919,-0.0710617874339222,-0.0079810618817806,0.089462861418724,0.0134663768112659,-0.0557117536664009,standing,2026-03-04_13-58-23
1772632705344547800,1.6935478515625,0.0734817628561519,-0.0392398312374949,0.1722808127224445,0.0800584405660629,-0.0337368212640285,-0.0489268153905868,standing,2026-03-04_13-58-23
1772632705354497000,1.7034970703125,0.1310925964966882,0.0155082425162196,0.27314883261621,0.0658762753009796,-0.0567566268146038,-0.0400132313370704,standing,2026-03-04_13-58-23
1772632705364446000,1.713446044921875,0.1348746357860509,0.0496932745821774,0.2301385429292917,0.0517918840050697,-0.0549312941730022,-0.0354594886302948,standing,2026-03-04_13-58-23
1772632705374395000,1.723394775390625,0.0807368028851691,0.1272000003717839,0.1342348674446344,0.0341927334666252,-0.0365062318742275,-0.0305309761315584,standing,2026-03-04_13-58-23
1772632705384342800,1.7333427734375,0.046875705543952,0.1983528270900249,0.0876806215405464,0.0113004669547081,-0.0149729773402214,-0.0175153091549873,standing,2026-03-04_13-58-23
1772632705394292000,1.7432919921875,0.0823163545610383,0.2238537635713815,0.061640171355009,-0.0104915983974933,-0.0010441001504659,0.0001463002990931,standing,2026-03-04_13-58-23
1772632705404241000,1.753240966796875,0.1424318918983451,0.2558333945475518,0.0858656810730695,-0.0284634102135896,0.0072439238429069,0.0171537790447473,standing,2026-03-04_13-58-23
1772632705414189800,1.76318994140625,0.173227829515282,0.2750985053792595,0.1338362235158681,-0.0444605126976966,0.0089748324826359,0.0278555229306221,standing,2026-03-04_13-58-23
1772632705424138800,1.773138671875,0.1225018691508099,0.2578124395355582,0.1653665032893419,-0.0513410568237304,0.0045518539845943,0.0324393548071384,standing,2026-03-04_13-58-23
1772632705434087700,1.783087646484375,0.0909871979384217,0.2197683939538895,0.1818523586660623,-0.0513865500688552,-0.0107482746243476,0.0313741341233253,standing,2026-03-04_13-58-23
1772632705444036900,1.793036865234375,0.0484888672284781,0.1658361666277051,0.1342202543973922,-0.0394137799739837,-0.0272918324917554,0.0329360775649547,standing,2026-03-04_13-58-23
1772632705453986000,1.802986083984375,0.0674709690008778,0.1646381890147924,0.0392465532392263,-0.024238558486104,-0.0382640697062015,0.0358255915343761,standing,2026-03-04_13-58-23
1772632705463934000,1.812933837890625,0.0569711200980469,0.1494679462812841,-0.0225707282483577,-0.0100436434149742,-0.0490274988114833,0.0389955528080463,standing,2026-03-04_13-58-23
1772632705473883000,1.8228828125,0.0461328147547785,0.084206807950139,-0.095945176538825,0.0022415933199226,-0.0523317940533161,0.0328686460852623,standing,2026-03-04_13-58-23
1772632705483831800,1.832831787109375,-0.0028175690382253,0.022490064227581,-0.2184656407922506,0.0199225861579179,-0.0171746052801609,0.0293474122881889,standing,2026-03-04_13-58-23
1772632705493780700,1.84278076171875,-0.0510881264740601,0.0037822950176894,-0.3398930491119623,0.030461024492979,0.0363506712019443,0.0312209893018007,standing,2026-03-04_13-58-23
1772632705503730000,1.85272998046875,-0.0611658592409919,-0.0006974807448685,-0.3682984748631716,0.0403719767928123,0.0769055485725402,0.0419852212071418,standing,2026-03-04_13-58-23
1772632705513678800,1.862678955078125,-0.0405348486172501,-0.0506760020092129,-0.3004769845247269,0.0452587008476257,0.0867856070399284,0.0418207198381423,standing,2026-03-04_13-58-23
1772632705523627800,1.872627685546875,-0.0211830002170056,-0.1349663965895771,-0.1647176839917898,0.0384306199848651,0.0691746547818183,0.0312349200248718,standing,2026-03-04_13-58-23
1772632705533576700,1.88257666015625,-0.0429539015908725,-0.2069194337747991,-0.001577624580264,0.0279709249734878,0.0399211719632148,0.0173791665583848,standing,2026-03-04_13-58-23
1772632705543524900,1.89252490234375,-0.0708541816983837,-0.2206998295851051,0.093811671641469,0.0182557143270969,0.0311785470694303,0.0126264886930584,standing,2026-03-04_13-58-23
1772632705553474000,1.90247412109375,-0.0848671715550124,-0.1929807786628603,0.1095721353530883,0.010743698105216,0.0407395772635936,0.0128666805103421,standing,2026-03-04_13-58-23
1772632705563423000,1.912423095703125,-0.0701920645278412,-0.1152133561104536,0.0673556263923645,0.0034407773055136,0.0737883448600769,0.0207749381661415,standing,2026-03-04_13-58-23
1772632705573372000,1.922371826171875,-0.0284542607284616,-0.0699893358968198,0.0195078335464,-0.0011467030271887,0.1132078990340232,0.0338812209665775,standing,2026-03-04_13-58-23
1772632705583320800,1.93232080078125,-0.0039472123889718,0.0010173603489995,0.0022913258075714,0.0048153158277273,0.1195499524474144,0.0465938188135623,standing,2026-03-04_13-58-23
1772632705593269800,1.942269775390625,0.0461165851391851,0.0853426801122725,0.0735574036419391,0.0114188250154256,0.080996036529541,0.0579480119049549,standing,2026-03-04_13-58-23
1772632705603218700,1.95221875,0.103169620500179,0.0978001567557454,0.1741471911162138,0.0124172437936067,0.0032839321065694,0.0518296658992767,standing,2026-03-04_13-58-23
1772632705613166800,1.962166748046875,0.0385456566945649,0.0517426083274185,0.2505757662802934,0.0184740610420703,-0.056342139840126,0.0305933188647031,standing,2026-03-04_13-58-23
1772632705623115800,1.97211572265625,-0.066737549292948,-0.0053001522347331,0.1674333726912736,0.0263415724039077,-0.0830999836325645,0.0072179557755589,standing,2026-03-04_13-58-23
1772632705633064700,1.982064697265625,-0.1192729702321812,0.021700229024142,0.0529430701583623,0.0318433605134487,-0.0863841623067855,-0.0008064245339483,standing,2026-03-04_13-58-23
1772632705643014000,1.992013916015625,-0.0896071417568717,0.0883485839299857,-0.0496720856636762,0.0371156223118305,-0.0518634729087352,0.0123700974509119,standing,2026-03-04_13-58-23
1772632705652962800,2.001962890625,-0.0117661699110642,0.1874417031057179,-0.151352590984106,0.0363300554454326,-0.0139519134536385,0.0374878980219364,standing,2026-03-04_13-58-23
1772632705662912000,2.011912109375,0.0448193210034165,0.237073895150423,-0.1605792690128087,0.0352506749331951,0.0110202813521027,0.0574522837996482,standing,2026-03-04_13-58-23
1772632705672861000,2.02186083984375,0.0851174473884981,0.2178952935583889,-0.1307774204671382,0.0353910401463508,0.0293954107910394,0.0737019628286361,standing,2026-03-04_13-58-23
1772632705682809900,2.031809814453125,0.0884976004792377,0.1633092784985899,-0.0527618683725595,0.0319228060543537,0.0233665481209754,0.0777680724859237,standing,2026-03-04_13-58-23
1772632705692757800,2.0417578125,0.0739119435674976,0.1065428506597876,0.0170049108147621,0.0212409868836402,-0.0072769597172737,0.0755395516753196,standing,2026-03-04_13-58-23
1772632705702706700,2.051706787109375,0.0554437461339868,0.0405075130857527,0.0195534262537956,0.0188084542751312,-0.018229741603136,0.0685990899801254,standing,2026-03-04_13-58-23
1772632705712656000,2.06165576171875,-0.0037769886549096,0.0127000532276928,-0.0312865341454744,0.0189783331006765,-0.0073759220540523,0.0639665946364402,standing,2026-03-04_13-58-23
1772632705722604800,2.071604736328125,-0.0247213486772961,-0.0029421909317374,-0.1129734682291746,0.0193189512938261,0.0047318735159933,0.0612040981650352,standing,2026-03-04_13-58-23
1772632705732553700,2.0815537109375,0.0089107713467907,0.0056637248501181,-0.1631722081154585,0.0296126659959554,0.0159098226577043,0.0557855628430843,standing,2026-03-04_13-58-23
1772632705742502700,2.091502685546875,0.0099028328577522,-0.0028689795650541,-0.2173316683262586,0.0437471270561218,0.0302903596311807,0.0552832894027233,standing,2026-03-04_13-58-23
1772632705752451800,2.101451904296875,0.0176416286825668,0.0267773861579596,-0.21466215685606,0.049360167235136,0.0316101089119911,0.0613167211413383,standing,2026-03-04_13-58-23
1772632705762400800,2.11140087890625,0.0319612002703361,0.0352038537196815,-0.122230541396141,0.0502938739955425,0.0154708195477724,0.059128139168024,standing,2026-03-04_13-58-23
1772632705772349000,2.121348876953125,0.0522463017995469,-0.0095402740225195,-0.0626981559753418,0.0685628876090049,0.0182327833026647,0.055896658450365,standing,2026-03-04_13-58-23
1772632705782297900,2.1312978515625,0.022998488673754,-0.016126666675508,-0.1503162336736917,0.0918381214141845,0.0308178178966045,0.0483332835137844,standing,2026-03-04_13-58-23
1772632705792246800,2.141246826171875,-0.0147959751941729,0.0534637330316007,-0.1946989807575941,0.1048410907387733,0.0278710126876831,0.0433953180909156,standing,2026-03-04_13-58-23
1772632705802195700,2.15119580078125,-0.0031916447813156,0.090320322394371,-0.0962596493154764,0.1032003164291381,0.0189840421080589,0.0463687367737293,standing,2026-03-04_13-58-23
1772632705812144600,2.16114453125,0.0627958076635375,0.0487812743037939,0.0415086529523134,0.0880796238780021,0.0092498064041137,0.0545268841087818,standing,2026-03-04_13-58-23
1772632705822093800,2.17109375,0.0627778062159661,0.0207886671371758,0.1637204896479845,0.0665144100785255,0.0140725262463092,0.0470708310604095,standing,2026-03-04_13-58-23
1772632705832042800,2.181042724609375,-0.0042732112066354,0.0121204997740685,0.2228594918370246,0.037948191165924,0.0294283162802457,0.0376066751778125,standing,2026-03-04_13-58-23
1772632705841990700,2.19099072265625,-0.1112256107816938,-0.0175327340811491,0.2284364151865243,0.0067985281348228,0.0409587398171424,0.0242301486432552,standing,2026-03-04_13-58-23
1772632705851939800,2.20093994140625,-0.1213668372388929,-0.0431675260752439,0.261869313710928,-0.0181753169745206,0.0321548394858837,0.0221014097332954,standing,2026-03-04_13-58-23
1772632705861888800,2.210888671875,-0.0367641527058091,-0.0294121185757219,0.2361591183930635,-0.0224960297346115,0.0150799797847867,0.0352110862731933,standing,2026-03-04_13-58-23
1772632705871838000,2.220837890625,0.0447005260624922,0.0207934894427657,0.0904144304186105,0.0031017893925309,0.0145822446793317,0.0464038774371147,standing,2026-03-04_13-58-23
1772632705881787000,2.230786865234375,0.0339583563037682,0.1107858950570225,-0.1002951884418725,0.0419935286045074,0.0185215938836336,0.0556357242166996,standing,2026-03-04_13-58-23
1772632705891735800,2.24073583984375,-0.0122580359480809,0.1428589034050703,-0.1805167261481285,0.0695826560258865,0.0081324633210897,0.0564751252532005,standing,2026-03-04_13-58-23
1772632705901684700,2.250684814453125,-0.0416996820123866,0.1186579436063766,-0.1335538994431495,0.0821591690182685,-0.0117501635104417,0.0514689125120639,standing,2026-03-04_13-58-23
1772632705911633700,2.260633544921875,-0.0875721470642369,0.0667057841815054,-0.0445516739100217,0.090986855328083,-0.0103899473324418,0.0425369255244731,standing,2026-03-04_13-58-23
1772632705921581800,2.270581787109375,-0.1462195572108961,0.0437936951495707,-0.0115869774192571,0.0870855972170829,-0.0009855264797806,0.0314837396144866,standing,2026-03-04_13-58-23
1772632705931530800,2.28053076171875,-0.2119385040458291,0.0370991659469902,0.0224555774360895,0.0687242597341537,-0.0029450573492795,0.0258587300777435,standing,2026-03-04_13-58-23
1772632705941479700,2.290479736328125,-0.2019733556747436,0.0284328982800245,0.1072375549256801,0.0499777421355247,-0.0085843009874224,0.0262315720319747,standing,2026-03-04_13-58-23
1772632705951428900,2.300428955078125,-0.1010255028772633,0.0056232467092573,0.1348053608089685,0.0382215790450573,-0.0109637342393398,0.0326984636485576,standing,2026-03-04_13-58-23
1772632705961377800,2.310377685546875,-0.0460769472485408,0.0476648374944925,0.0911339768648147,0.0330582447350025,-0.0012160327751189,0.030490968376398,standing,2026-03-04_13-58-23
1772632705971326700,2.32032666015625,-0.0835977635405492,0.0811231627210974,0.0477817418724298,0.0340116545557975,0.0087883984670043,0.026058405637741,standing,2026-03-04_13-58-23
1772632705981276000,2.33027587890625,-0.0846612737193703,0.0779784349545836,0.0032382512688636,0.0307730976492166,0.0105089405551552,0.0227946881204843,standing,2026-03-04_13-58-23
1772632705991224800,2.340224853515625,-0.0815001336741726,0.0500059937931597,0.0129407301157712,0.0266321022063493,0.0040206713601946,0.0159473773092031,standing,2026-03-04_13-58-23
1772632706001172700,2.3501728515625,-0.0901916636465583,0.0255779472403228,0.0219359374761581,0.0256368778645992,-0.001850533648394,0.0112271904945373,standing,2026-03-04_13-58-23
1772632706011121700,2.36012158203125,-0.0778743809250649,0.0408029889009892,0.0210889652580022,0.0228788685053586,-0.0090503748506307,0.0122013492509722,standing,2026-03-04_13-58-23
1772632706021070600,2.370070556640625,-0.0470862247557844,0.0725904583059251,0.0524269373297691,0.0271170232445001,-0.0086679449304938,0.0152341565117239,standing,2026-03-04_13-58-23
1772632706031019800,2.380019775390625,-0.0233010152842849,0.0678863722681999,0.0047615153133869,0.038424015045166,0.0070790741592645,0.0159870497882366,standing,2026-03-04_13-58-23
1772632706040969000,2.389968994140625,-0.0327091508271172,0.0945220118679106,-0.0738256991893053,0.0499291345477104,0.0280405469238758,0.0175114423036575,standing,2026-03-04_13-58-23
1772632706050918000,2.39991796875,-0.0246439177932217,0.134334528426826,-0.0376046312510967,0.0493582598865032,0.0113764777779579,0.0227264147251844,standing,2026-03-04_13-58-23
1772632706060866800,2.40986669921875,0.0081354121932759,0.0973810545608401,0.1078717611759901,0.0366563126444816,-0.0279749240726232,0.0235338844358921,standing,2026-03-04_13-58-23
1772632706070814700,2.419814697265625,0.0469934958378784,0.0307069806918501,0.1883124945908784,0.0313030704855918,-0.0377880036830902,0.0203627068549394,standing,2026-03-04_13-58-23
1772632706080764000,2.429763916015625,-0.0080174483694136,0.0105988431647419,0.067528060349822,0.028803963214159,-0.0224098470062017,0.0076996404677629,standing,2026-03-04_13-58-23
1772632706090712800,2.439712890625,-0.1496851509622298,0.0434491194956004,-0.0728039549261331,0.0233068596571683,-0.0034434900153428,-0.0069828433915972,standing,2026-03-04_13-58-23
1772632706100661800,2.449661865234375,-0.2217052072353661,0.0508057658687233,-0.1249117433041334,0.0172897148877382,0.0212741065770387,-0.0088933957740664,standing,2026-03-04_13-58-23
1772632706110610700,2.459610595703125,-0.1504752966929227,0.0333519422426819,-0.1322562608480453,0.0175267644226551,0.037586648017168,0.0040156487375497,standing,2026-03-04_13-58-23
1772632706120559600,2.4695595703125,-0.0510774406832642,0.0641053924247622,-0.0822287858754396,0.0263338387012481,0.0309521816670894,0.0168411657214164,standing,2026-03-04_13-58-23
1772632706130508800,2.4795087890625,0.0098789405255112,0.0932664588488638,-0.0495879145115613,0.0414743945002555,0.0181064251810312,0.0306373629719018,standing,2026-03-04_13-58-23
1772632706140458000,2.4894580078125,0.0145868076892103,0.1138711477212607,-0.0525625464081764,0.0610462352633476,0.0101491659879684,0.0358574241399765,standing,2026-03-04_13-58-23
1772632706150406000,2.499406005859375,-0.0270133046725299,0.1173472993992269,-0.0275824189305305,0.0763109326362609,0.0004256719257682,0.0333636105060577,standing,2026-03-04_13-58-23
1772632706160354800,2.509354736328125,-0.0627005488618277,0.0813163472056388,0.0656897390067577,0.0742195472121238,-0.0245001856237649,0.0198467355221509,standing,2026-03-04_13-58-23
1772632706170303700,2.5193037109375,-0.1065324023310095,0.047815790272504,0.1663058299660682,0.0637599304318428,-0.0417716838419437,0.0016601118259131,standing,2026-03-04_13-58-23
1772632706180252700,2.529252685546875,-0.1248771286484785,-0.0149919635571539,0.1602531057983637,0.0525930300354957,-0.0230041239410638,-0.0054934052750468,standing,2026-03-04_13-58-23
1772632706190201900,2.539201904296875,-0.0906905530794058,-0.0138293495185673,0.1139952124923467,0.0358905419707298,0.0050257630646228,-0.0007591902976855,standing,2026-03-04_13-58-23
1772632706200150800,2.54915087890625,-0.0788962713187094,0.0308405439436435,0.1273234806209802,0.010682656429708,0.0201506540179252,-0.004932097159326,standing,2026-03-04_13-58-23
1772632706210099700,2.559099609375,-0.0448583104400895,0.0240776256799697,0.234794844302535,-0.014802973717451,0.0243298169225454,-0.0046264789998531,standing,2026-03-04_13-58-23
1772632706220049000,2.569048828125,-0.0239429481833241,-0.0478993769027292,0.2893663924455643,-0.0322051346302032,0.0224056839942932,-0.0024227129761129,standing,2026-03-04_13-58-23
1772632706229996800,2.578996826171875,-0.0126777409311849,-0.0541043690226972,0.2940571806102991,-0.0399009734392166,-0.0084836361929774,0.0005374355241656,standing,2026-03-04_13-58-23
1772632706239946000,2.588946044921875,0.0594421955198515,-0.0363677829325199,0.2020177793383598,-0.0201997067779302,-0.0378572382032871,0.0021965850610285,standing,2026-03-04_13-58-23
1772632706249895000,2.59889501953125,0.0829873491577804,0.038701632707566,0.0291822553426027,0.0117334527894854,-0.0478667430579662,0.0044293627142906,standing,2026-03-04_13-58-23
1772632706259843800,2.60884375,0.0541987693078815,0.105445410811901,-0.1305833591997623,0.0377959460020065,-0.0468656606972217,0.0024085561744868,standing,2026-03-04_13-58-23
1772632706269792800,2.618792724609375,0.055410556250438,0.1318881581880152,-0.1881710402935743,0.0491400882601738,-0.0429872758686542,-0.0015468798810616,standing,2026-03-04_13-58-23
1772632706279741700,2.62874169921875,0.0441262150395661,0.1213011515915393,-0.1352653795361519,0.0498759187757968,-0.0177913755178451,-0.0061442945152521,standing,2026-03-04_13-58-23
1772632706289690600,2.638690673828125,0.0311332341467495,0.0883140971384942,-0.1358937405675649,0.0392456352710723,0.0171876177191734,-0.0029016616754233,standing,2026-03-04_13-58-23
1772632706299639800,2.648639892578125,0.0652191075540147,0.0985771324776113,-0.1002788218289613,0.0230357721447944,0.0466762669384479,0.009223710745573,standing,2026-03-04_13-58-23
1772632706309587700,2.658587646484375,0.1301364008835517,0.1148532906264066,-0.0308697700381278,0.0047871298156678,0.0517591834068298,0.021071720868349,standing,2026-03-04_13-58-23
1772632706319536600,2.66853662109375,0.174193386611808,0.1071430085100233,0.0883569133669137,-0.0064498120918869,0.0389706827700138,0.0351795516908168,standing,2026-03-04_13-58-23
1772632706329485800,2.67848583984375,0.2008370085885748,0.0958151204183697,0.1068897644013166,-0.0097158271819353,0.0196819379925727,0.0433856360614299,standing,2026-03-04_13-58-23
1772632706339434800,2.688434814453125,0.1504682002318557,0.0948648339562118,0.0916138693362474,-0.003876578528434,0.0100058736279606,0.0411994457244873,standing,2026-03-04_13-58-23
1772632706349384000,2.698384033203125,0.0615503376470878,0.065019584660232,0.0305424377799034,0.0087485648691654,0.0088600683957338,0.0286791697144508,standing,2026-03-04_13-58-23
1772632706359332900,2.708332763671875,-0.0313512425452936,0.0343462139770388,-0.0400403339654207,0.0203516911715269,0.0117764957249164,0.0238559190183877,standing,2026-03-04_13-58-23
1772632706369281800,2.71828173828125,-0.0359428355187177,0.0441672046370804,-0.0669353551536798,0.0268663801252841,0.0112956594675779,0.0269677527248859,standing,2026-03-04_13-58-23
1772632706379229700,2.728229736328125,-0.0120037232602946,0.0707777097955346,-0.0466331563591957,0.0305268950760364,0.0154475281015038,0.0326456129550933,standing,2026-03-04_13-58-23
1772632706389179000,2.738178955078125,-0.0047815808538813,0.069640084067732,-0.0444651646703481,0.0283574797213077,0.0295841041952371,0.0336101949214935,standing,2026-03-04_13-58-23
1772632706399127800,2.7481279296875,-0.0289675440128426,0.0557752248443663,-0.0415384635686874,0.0256884600967168,0.0407371558248996,0.0325289480388164,standing,2026-03-04_13-58-23
1772632706409076700,2.75807666015625,-0.0604618482906371,0.0362935486525297,0.0444043743938207,0.0127959232777357,0.0368398986756801,0.0265947263687849,standing,2026-03-04_13-58-23
1772632706419026000,2.76802587890625,-0.0607598905222956,0.0152051679164171,0.1475298178255558,-0.0022157821804285,0.0288442894816398,0.027244271710515,standing,2026-03-04_13-58-23
1772632706428974800,2.777974853515625,-0.0320414441660046,-0.0173502171210944,0.2081318783044815,-0.0174458809196949,0.0265163816511631,0.0267848297953605,standing,2026-03-04_13-58-23
1772632706438923800,2.787923828125,-0.0481440906451083,-0.0211018247395753,0.2177957787066698,-0.0297494176775217,0.0205604881048202,0.0238236598670482,standing,2026-03-04_13-58-23
1772632706448872700,2.797872802734375,-0.0570284397758543,-0.0348722836777567,0.1996539728164672,-0.0345762334764003,0.0094307670369744,0.0228945445269346,standing,2026-03-04_13-58-23
1772632706458820900,2.80782080078125,-0.0489931452224962,-0.0468508907631039,0.1734445958048105,-0.0274485480040311,0.0027025572489947,0.0220497883856296,standing,2026-03-04_13-58-23
1772632706468769800,2.817769775390625,-0.0859065884721931,-0.041203532525897,0.0713058253228664,-0.0111599881201982,0.0063058212399482,0.0111868968233466,standing,2026-03-04_13-58-23
1772632706478718700,2.82771875,-0.1222034889924339,-0.0395410061411559,-0.0668313102573156,0.0127197783440351,0.0246613919734954,0.0024570547975599,standing,2026-03-04_13-58-23
1772632706488667600,2.837667724609375,-0.106189991234662,-0.022282120565325,-0.1240080724626779,0.0348070561885833,0.0368141904473304,0.0006283451803028,standing,2026-03-04_13-58-23
1772632706498616600,2.847616455078125,-0.0495267589088529,0.0093804072856903,-0.0885164878427982,0.0405365824699401,0.023878151550889,-0.0010020419722422,standing,2026-03-04_13-58-23
1772632706508566000,2.85756591796875,0.0266057924507185,0.0087955931350588,0.0645978521168231,0.0196649935096502,-0.0081117320805788,-0.0047143469564616,standing,2026-03-04_13-58-23
1772632706518515000,2.867514892578125,0.0649482912559993,-0.0124202133730053,0.2378483866542577,-0.0155385341495275,-0.032561682164669,-0.0059915990568697,standing,2026-03-04_13-58-23
1772632706528464000,2.8774638671875,0.0812899158564396,-0.0404478918530046,0.3169271840661763,-0.0558344684541225,-0.0457986630499362,-0.0067939264699816,standing,2026-03-04_13-58-23
1772632706538411800,2.887411865234375,0.053496950314613,-0.0241597510054707,0.2620475928872823,-0.0758241564035415,-0.0262036547064781,-0.0060216095298528,standing,2026-03-04_13-58-23
1772632706548360700,2.897360595703125,0.0154837747952435,0.055099663670361,0.0161930099099874,-0.0750463455915451,0.0249829869717359,0.0050702346488833,standing,2026-03-04_13-58-23
1772632706558310000,2.907309814453125,0.007155333381053,0.1473509541273117,-0.2127303120106458,-0.0535842031240463,0.0604493655264377,0.0190438404679298,standing,2026-03-04_13-58-23
1772632706568258800,2.9172587890625,0.0417870132359676,0.2186854210227727,-0.3564432018965482,-0.018204890191555,0.0750342905521392,0.0269620902836322,standing,2026-03-04_13-58-23
1772632706578207700,2.927207763671875,0.0644966567646712,0.218221456772834,-0.3833312088221311,0.0159277785569429,0.0737258791923523,0.0353529118001461,standing,2026-03-04_13-58-23
1772632706588156700,2.93715673828125,0.0957765237073414,0.2138696913041174,-0.300765738338232,0.0419761389493942,0.0583515837788581,0.0402524396777153,standing,2026-03-04_13-58-23
1772632706598105900,2.94710595703125,0.0984532686359249,0.1994835846856236,-0.126917237907648,0.0534913763403892,0.0357229672372341,0.0412599146366119,standing,2026-03-04_13-58-23
1772632706608054800,2.9570546875,0.0959921757520176,0.1624493006683885,0.0689151307940483,0.0486215576529502,0.0169612485915422,0.0414458289742469,standing,2026-03-04_13-58-23
1772632706618003000,2.9670029296875,0.0706017687067389,0.1147884086966514,0.2279062538325786,0.023359078913927,0.0024531469680368,0.0385400541126728,standing,2026-03-04_13-58-23
1772632706627951900,2.976951904296875,0.0298349288313649,0.0715283820323646,0.3676104925990104,-0.0175290890038013,-0.0142895933240652,0.0352794378995895,standing,2026-03-04_13-58-23
1772632706637900800,2.98690087890625,0.0140710493199527,0.0289604292854666,0.4620218836992978,-0.0621338412165641,-0.0224665626883506,0.0382461994886398,standing,2026-03-04_13-58-23
1772632706647849700,2.996849609375,0.0130301071659661,-0.0118435825288295,0.4382844497591256,-0.0931199640035629,-0.0262600891292095,0.0420554876327514,standing,2026-03-04_13-58-23
1772632706657798700,3.006798583984375,-0.008314604685083,-0.0365505921535193,0.25595336766541,-0.0984742492437362,-0.0095668621361255,0.0420991629362106,standing,2026-03-04_13-58-23
1772632706667747000,3.0167470703125,-0.083745181787759,0.0004404372438788,-0.0052548517882823,-0.0810335576534271,0.0241585988551378,0.0368715450167655,standing,2026-03-04_13-58-23
1772632706677696000,3.026696044921875,-0.1251967159916646,0.0107888127788901,-0.2159527811884879,-0.047246303409338,0.0529196746647357,0.0337087735533714,standing,2026-03-04_13-58-23
1772632706687644000,3.036643798828125,-0.1296510833183303,-0.018719021256268,-0.3126595897495746,-0.0109640210866928,0.0498884543776512,0.0284896790981292,standing,2026-03-04_13-58-23
1772632706697593000,3.046593017578125,-0.1083623759708367,-0.0380807243302464,-0.2667939106315374,0.0125775225460529,0.026643319055438,0.0237678941339254,standing,2026-03-04_13-58-23
1772632706707542000,3.0565419921875,-0.0657782027414999,-0.055896074745059,-0.1665975063890218,0.025684529915452,0.0009118437301367,0.0209377370774745,standing,2026-03-04_13-58-23
1772632706717491200,3.0664912109375,-0.0293664345367811,-0.0884413767799735,-0.0504524223864078,0.0230264291167259,-0.0168088302016258,0.0190287828445434,standing,2026-03-04_13-58-23
1772632706727440100,3.076440185546875,-0.058119705611281,-0.1017610232107341,-0.0209808287084102,0.016448313370347,-0.0226117186248302,0.0066823968663811,standing,2026-03-04_13-58-23
1772632706737389000,3.08638916015625,-0.1167763493771664,-0.0979845734119415,-0.0416787488222122,0.0088053066283464,-0.0029810266569256,-0.0001443498767912,standing,2026-03-04_13-58-23
1772632706747338000,3.096337890625,-0.094713808112964,-0.0898342924430966,-0.0610597411185502,-0.000157865229994,0.0166680589318275,0.0027398278471082,standing,2026-03-04_13-58-23
1772632706757287000,3.106286865234375,-0.0513632536210119,-0.042980771331489,-0.0547562570601701,-0.0041131926700472,0.0255840551108121,0.0115210684016346,standing,2026-03-04_13-58-23
1772632706767235000,3.116235107421875,0.0002509973526932,-0.0165524908721447,-0.0415776265352964,-0.0033802571706473,0.0428056232631206,0.0189212039113044,standing,2026-03-04_13-58-23
1772632706777184000,3.12618408203125,0.0173242241633124,0.0100999537318944,-0.0280091199100017,-0.0007937955670058,0.0463662706315517,0.023897586390376,standing,2026-03-04_13-58-23
1772632706787133000,3.1361328125,-0.0349016741690225,0.0338584304600954,0.0328659122914075,-0.002676161006093,0.028900995850563,0.0202910937368869,standing,2026-03-04_13-58-23
1772632706797081900,3.146081787109375,-0.0473906419293023,0.0021261983737349,0.0940402197003364,0.0020717228762805,0.011963291093707,0.0156846232712268,standing,2026-03-04_13-58-23
1772632706807031000,3.156031005859375,-0.0509138476193882,-0.0245138251401484,0.1054968487381935,0.0022657630033791,0.0079623106867074,0.0096483463421463,standing,2026-03-04_13-58-23
1772632706816980200,3.165980224609375,-0.0825963953451253,-0.0038578444719314,0.1279097560763359,-0.003493056166917,0.0013643284328281,0.0061388332396745,standing,2026-03-04_13-58-23
1772632706826929200,3.17592919921875,-0.0450682816626504,0.0161781046018004,0.1720475884884595,-0.0145068950951099,-0.0060708280652761,0.0108681293204426,standing,2026-03-04_13-58-23
1772632706836878000,3.185878173828125,0.0239478252878412,0.0210116622380912,0.1932318308144807,-0.0306666903197765,-0.0060484576970338,0.0163228157907724,standing,2026-03-04_13-58-23
1772632706846826000,3.195825927734375,0.0378821878171525,0.0594774403631687,0.2349222700744867,-0.0489239916205406,-0.0141649739816784,0.0182283073663711,standing,2026-03-04_13-58-23
1772632706856775200,3.205775146484375,-0.0159035071778111,0.084152739675343,0.261665900093317,-0.0621471218764781,-0.0254059098660945,0.0157835260033607,standing,2026-03-04_13-58-23
1772632706866724000,3.21572412109375,-0.0051496561144478,0.0841723211586475,0.2090460705399513,-0.0593318417668342,-0.0130911758169531,0.0158496294170618,standing,2026-03-04_13-58-23
1772632706876673000,3.225673095703125,0.0183040289808996,0.1113026124075055,0.0367974065214395,-0.0432546064257621,0.0039168363437056,0.021056642755866,standing,2026-03-04_13-58-23
1772632706886622000,3.2356220703125,0.0102736115320585,0.1856029433712363,-0.1109071833491325,-0.02950419485569,0.0131261814385652,0.0278560705482959,standing,2026-03-04_13-58-23
1772632706896571100,3.245571044921875,0.017076642610412,0.2277858423233032,-0.1481979263454675,-0.0236513651907444,0.0053862361237406,0.0356295742094516,standing,2026-03-04_13-58-23
1772632706906520000,3.25552001953125,0.0548015209740027,0.1883392364673316,-0.0969511387109756,-0.0201175231486558,-0.0022240024991333,0.0458990894258022,standing,2026-03-04_13-58-23
1772632706916469000,3.265468994140625,0.0552774861889891,0.1303014735184609,-0.0819897164225578,-0.016885245218873,0.0067465892061591,0.0483787581324577,standing,2026-03-04_13-58-23
1772632706926417200,3.275417236328125,0.0027756752584129,0.0926079949401319,-0.0862497119545936,-0.0138041311874985,0.0161849446594715,0.0462636277079582,standing,2026-03-04_13-58-23
1772632706936366000,3.285365966796875,-0.0441338686230592,0.0271679929107427,-0.1033148285239934,-0.006385363638401,0.0258037503808736,0.0456103533506393,standing,2026-03-04_13-58-23
1772632706946315000,3.29531494140625,-0.0114749136132188,-0.0302025383010506,-0.1066255605071783,0.0034476958680897,0.0231565758585929,0.0479996167123317,standing,2026-03-04_13-58-23
1772632706956264000,3.305263916015625,0.0135580582965165,-0.0619321400389075,-0.0588847351670265,0.0096808243542909,0.0072263441979885,0.0442488230764865,standing,2026-03-04_13-58-23
1772632706966212900,3.315212890625,-0.018787994839251,-0.0946437385514378,-0.024741058024764,0.0075862263329327,-0.0143746882677078,0.033107865601778,standing,2026-03-04_13-58-23
1772632706976162000,3.325162109375,-0.0480794827099889,-0.1448817875348031,0.0660106415241956,-0.0083914082497358,-0.0363894440233707,0.0199574436992406,standing,2026-03-04_13-58-23
1772632706986111200,3.335111328125,-0.0985599073481746,-0.189488260371983,0.1062263320565223,-0.0283160042017698,-0.037926223129034,0.0023986611049622,standing,2026-03-04_13-58-23
1772632706996060200,3.34506005859375,-0.1601667609554715,-0.2090595145434141,0.0420943438857793,-0.0430345013737678,-0.007905475795269,-0.0108934426680207,standing,2026-03-04_13-58-23
1772632707006008000,3.355008056640625,-0.2065606651986949,-0.1830379151888191,-0.0768488464027643,-0.0472385585308074,0.0264551751315593,-0.0152053507044911,standing,2026-03-04_13-58-23
1772632707015957000,3.36495703125,-0.1848191908487118,-0.1159833175696432,-0.1676169125646352,-0.0370785966515541,0.048559945076704,-0.0098547935485839,standing,2026-03-04_13-58-23
1772632707025906200,3.37490625,-0.1313925566907972,-0.031738661827147,-0.199167650604248,-0.0122184371575713,0.0594125874340534,-1.59277115017e-05,standing,2026-03-04_13-58-23
1772632707035855000,3.384855224609375,-0.0600679718685336,0.0467360322117805,-0.220249601599574,0.0145950680598616,0.0470142401754856,0.0073173530399799,standing,2026-03-04_13-58-23
1772632707045804000,3.394803955078125,-0.0406837464354932,0.1003415118016302,-0.1504617796242237,0.0398523062467575,0.0282325595617294,0.0082652550190687,standing,2026-03-04_13-58-23
1772632707055753000,3.4047529296875,-0.0639656186278909,0.090756667985022,-0.0595522591650485,0.0512541010975837,0.0144112864509224,0.0067198225297033,standing,2026-03-04_13-58-23
1772632707065702000,3.414701904296875,-0.0610004304130561,0.0711382136709988,0.0544926376879215,0.0491047576069831,0.0029218865092843,0.0044642249122262,standing,2026-03-04_13-58-23
1772632707075651000,3.424651123046875,-0.0661300849190913,0.0635119565762579,0.1929828244894743,0.0292053502053022,-0.0129239214584231,0.0036367804277688,standing,2026-03-04_13-58-23
1772632707085599000,3.434598876953125,-0.0322705402141436,0.0296485576801002,0.326873993062973,-0.0045768544077873,-0.0292672235518693,0.0031531343702226,standing,2026-03-04_13-58-23
1772632707095548200,3.444548095703125,0.0074516129138879,-0.0090877079494297,0.3870668882191181,-0.0317035466432571,-0.0187085885554552,0.0066456040367484,standing,2026-03-04_13-58-23
1772632707105497000,3.4544970703125,0.0176994689501822,-0.0236073778197169,0.3164268333286046,-0.0526988431811332,-0.006965379230678,0.0106725692749023,standing,2026-03-04_13-58-23
1772632707115446000,3.464446044921875,-0.0432065611776895,-0.0120126554854214,0.2338093403965234,-0.0617101788520813,-0.0116626629605889,0.0067910123616456,standing,2026-03-04_13-58-23
1772632707125395000,3.47439501953125,-0.0336041269054636,-0.0665662295803427,0.0962912134975194,-0.0558364242315292,0.0027513024397194,0.0079194223508238,standing,2026-03-04_13-58-23
1772632707135344000,3.48434423828125,-0.0263005441601388,-0.0664556088127195,-0.0705623134791851,-0.0334709286689758,0.022139647975564,0.0064669344574213,standing,2026-03-04_13-58-23
1772632707145293000,3.49429296875,-0.0592298588102683,-0.0343995515994727,-0.1891828476846218,-0.0133690740913152,0.0238102618604898,-1.24785583466e-05,standing,2026-03-04_13-58-23
1772632707155242000,3.504241943359375,-0.0615780659042298,-0.0260271523125469,-0.1362549750953912,-0.0041404217481613,0.0003731122706085,-0.008155626244843,standing,2026-03-04_13-58-23
1772632707165190000,3.51418994140625,-0.0306179872341454,-0.0901454042188823,-0.0224719440490007,-0.0017266469076275,-0.023703871294856,-0.0158992856740951,standing,2026-03-04_13-58-23
1772632707175139000,3.52413916015625,0.0179539917005226,-0.0973953753471374,-0.0095505031555891,0.000193225685507,-0.0257313344627618,-0.0192117281258106,standing,2026-03-04_13-58-23
1772632707185088300,3.534088134765625,0.020515293555893,-0.0271235692471265,-0.0598164630591869,-0.0013377815485,-0.0106639703735709,-0.0196782704442739,standing,2026-03-04_13-58-23
1772632707195037200,3.544037109375,0.0091690295573323,0.038996231739968,-0.1173994679778814,-0.0042012128978967,0.0097856447100639,-0.0077995071187615,standing,2026-03-04_13-58-23
1772632707204986000,3.553986083984375,0.0609141586354002,0.0866698370628058,-0.1199181728005409,-0.0074006472714245,0.0300887804478406,0.0047219609841704,standing,2026-03-04_13-58-23
1772632707214935000,3.56393505859375,0.0929263401743024,0.1312837625540792,-0.1048883614510297,-0.0099421013146638,0.0375168696045875,0.0139287738129496,standing,2026-03-04_13-58-23
1772632707224884000,3.573884033203125,0.0629247495391406,0.1513879545584321,-0.0664998863458633,-0.007553931325674,0.0378091596066951,0.0175474658608436,standing,2026-03-04_13-58-23
1772632707234833000,3.5838330078125,0.029555636965949,0.138857997200638,-0.0185749366104602,-0.0043195225298404,0.0272673014551401,0.0209842752665281,standing,2026-03-04_13-58-23
1772632707244781000,3.593781005859375,0.0234336834869347,0.1043346730910241,0.0258621710091829,0.0005996306426823,0.0041349669918417,0.0195814911276102,standing,2026-03-04_13-58-23
1772632707254730000,3.60372998046875,0.0275942372324876,0.1110353397734463,0.035295185264945,0.0157527513802051,0.0007189298048615,0.0263485834002494,standing,2026-03-04_13-58-23
1772632707264679000,3.613678955078125,0.0366536324028857,0.1177564647220075,-0.0268383225649595,0.021613486111164,0.0057180440053343,0.0325684212148189,standing,2026-03-04_13-58-23
1772632707274628000,3.623628173828125,0.0111471612298861,0.1247327334754168,-0.003218962046504,0.0161257777363061,0.0004737472627311,0.033741008490324,standing,2026-03-04_13-58-23
1772632707284577000,3.633576904296875,-0.0168338468304835,0.0583563273787498,0.084587331700325,0.0058128926903009,0.0005894780624657,0.0353379286825656,standing,2026-03-04_13-58-23
1772632707294526200,3.643526123046875,-0.0245811730216257,-0.0180228556856513,0.1129354743063449,-0.01274268142879,0.0053064692765474,0.0345365814864635,standing,2026-03-04_13-58-23
1772632707304475100,3.65347509765625,-0.0824006170446984,-0.0448955189116299,0.1366559571117162,-0.0309329014271497,0.0042963651940226,0.0287836100906133,standing,2026-03-04_13-58-23
1772632707314424000,3.663424072265625,-0.1306432544271461,-0.0675078943446278,0.1272276190310716,-0.0378877483308315,0.0030590605456382,0.0211035870015621,standing,2026-03-04_13-58-23
1772632707324372000,3.6733720703125,-0.1155256003974005,-0.1372008776433765,0.0790337892264127,-0.029137460514903,0.0047152386978268,0.0144661022350192,standing,2026-03-04_13-58-23
1772632707334321000,3.68332080078125,-0.1166218894678167,-0.127998165012151,-0.0343558585882186,-0.01090625859797,0.0139374984428286,0.0103674968704581,standing,2026-03-04_13-58-23
1772632707344270000,3.69327001953125,-0.1438105598404072,-0.0784393304646015,-0.148221307221055,0.0066871922463178,0.0263783484697341,0.0049292831681668,standing,2026-03-04_13-58-23
1772632707354219000,3.703218994140625,-0.1279630571661517,-0.0716195674471557,-0.1217746143221855,0.0125000737607479,0.0187803488224744,-0.0048743453808128,standing,2026-03-04_13-58-23
1772632707364168200,3.713168212890625,-0.1165418647678568,-0.1191349134683609,-0.028769582888484,0.0098777087405323,0.0062736244872212,-0.0131535232067108,standing,2026-03-04_13-58-23
1772632707374117000,3.7231171875,-0.1006012404500506,-0.1363726101256906,0.0824520732372999,3.70619818568e-05,0.0008061549160629,-0.0228700675070285,standing,2026-03-04_13-58-23
1772632707384066000,3.733066162109375,-0.0627580146701075,-0.1436788414858281,0.1308452250063419,-0.009220715612173,0.0060506924055516,-0.0292825400829315,standing,2026-03-04_13-58-23
1772632707394015000,3.743014892578125,-0.0232131726040504,-0.1182546235024929,0.1308551618784666,-0.0125747006386518,0.0099431686103343,-0.0261621139943599,standing,2026-03-04_13-58-23
1772632707403963100,3.752963134765625,0.0458402524158358,-0.0557327008768916,0.1055494557082653,-0.0085212662816047,0.010154471732676,-0.020094146952033,standing,2026-03-04_13-58-23
1772632707413912000,3.762912109375,0.1202791150674223,-0.0020481647014617,0.0780856947213411,-0.0031933467835187,-6.8191438913e-06,-0.0126159908249974,standing,2026-03-04_13-58-23
1772632707423861000,3.772861083984375,0.1417286024671979,0.0308751768656075,0.0786082572907209,-0.0049641211517155,-0.0228825584053993,-0.0067053968086838,standing,2026-03-04_13-58-23
1772632707433810000,3.782809814453125,0.1243514060076326,0.0569411998838186,0.0849573340564966,-0.013994101434946,-0.0402026921510696,-0.0104221049696207,standing,2026-03-04_13-58-23
1772632707443758800,3.7927587890625,0.0779009675378911,0.0823784234791994,0.0624427199095487,-0.0274623744189739,-0.0329256132245063,-0.0141855580732226,standing,2026-03-04_13-58-23
1772632707453708000,3.8027080078125,0.0493976709027774,0.0669683806404471,0.0137917939871549,-0.0407968237996101,-0.0111819673329591,-0.0160686783492565,standing,2026-03-04_13-58-23
1772632707463657200,3.8126572265625,0.0533178400211967,0.109403939179331,-0.0230219791471958,-0.0520373955368995,0.018089659512043,-0.0041647674515843,standing,2026-03-04_13-58-23
1772632707473605000,3.822605224609375,0.0785303880152292,0.16125760666579,-0.0824327840149402,-0.0484205558896064,0.045756708830595,0.0167138837277889,standing,2026-03-04_13-58-23
1772632707483554000,3.832553955078125,0.137065524293296,0.1752276798292994,-0.1429477507323026,-0.0303370784968137,0.0513573177158832,0.0363600924611091,standing,2026-03-04_13-58-23
1772632707493503000,3.8425029296875,0.1626432340716011,0.2005892078399658,-0.2007540430128574,0.0050605926662683,0.0461889207363128,0.0479845218360424,standing,2026-03-04_13-58-23
1772632707503452200,3.8524521484375,0.123047429003287,0.1872206077009439,-0.2140618528753519,0.0371218733489513,0.0298465508967638,0.0482834689319133,standing,2026-03-04_13-58-23
1772632707513401000,3.862401123046875,0.062184616962634,0.14304595040977,-0.163275668489933,0.0571025051176548,0.0113237323239445,0.039534717798233,standing,2026-03-04_13-58-23
1772632707523350000,3.87235009765625,0.0207377224012278,0.0601795972831547,-0.0721001905709505,0.0638354644179344,-0.0019246937008574,0.031885277479887,standing,2026-03-04_13-58-23
1772632707533299000,3.882298828125,-0.0068289327045902,-0.0051245034068822,0.0306418065011501,0.0505580082535743,0.0024466186296194,0.023858243599534,standing,2026-03-04_13-58-23
1772632707543248000,3.892247802734375,-0.0099083036173135,-0.0382272931940853,0.1416793382316827,0.0210417509078979,0.0085268784314394,0.0242234468460083,standing,2026-03-04_13-58-23
1772632707553197000,3.902197021484375,-0.0013610957527533,-0.077439651902765,0.2474649407833814,-0.0177133679389953,0.008552711457014,0.0294552277773618,standing,2026-03-04_13-58-23
1772632707563145200,3.912145263671875,0.0233968951405026,-0.1127491579540073,0.3161626294344663,-0.0536139421164989,0.0032358758617192,0.0302108246833086,standing,2026-03-04_13-58-23
1772632707573094100,3.92209423828125,-0.0036598924807272,-0.1334475164592266,0.3082563863545656,-0.0738523751497268,-0.002053428441286,0.0259082224220037,standing,2026-03-04_13-58-23
1772632707583043000,3.93204296875,-0.058697779493872,-0.1642144106447696,0.1725531999230384,-0.072489745914936,0.0141024822369217,0.0135681955143809,standing,2026-03-04_13-58-23
1772632707592992000,3.941991943359375,-0.1310713984450325,-0.1256802434585988,-0.0409504345476627,-0.0470491051673889,0.0363452062010765,0.0004499969072639,standing,2026-03-04_13-58-23
1772632707602941000,3.95194091796875,-0.1577022888043895,-0.0906001622490584,-0.1777057603806257,-0.0189639553427696,0.0391999930143356,-0.0127780614420771,standing,2026-03-04_13-58-23
1772632707612890000,3.96189013671875,-0.1225655820367857,-0.0739729987055063,-0.2222095034956931,0.0176411904394626,0.0330603420734405,-0.018235944211483,standing,2026-03-04_13-58-23
1772632707622839000,3.971839111328125,-0.043773017687723,-0.018030746731162,-0.2221849535763263,0.0440654009580612,0.0246925391256809,-0.0173377469182014,standing,2026-03-04_13-58-23
1772632707632788000,3.9817880859375,0.0084536112969741,0.060200493940711,-0.1532861893951893,0.0523054897785186,0.0128816878423094,-0.0109861074015498,standing,2026-03-04_13-58-23
1772632707642735900,3.99173583984375,0.0624253851822577,0.1123410155445337,0.0077437459945678,0.0356294587254524,-0.0163184162229299,-0.0115184606984257,standing,2026-03-04_13-58-23
1772632707652685000,4.00168505859375,0.0968565922953188,0.0941403190739452,0.1506318754941225,0.0096159689128398,-0.0268831755965948,-0.0065292948856949,standing,2026-03-04_13-58-23
1772632707662634200,4.01163427734375,0.13107086872207,0.0842974088430404,0.1689110440284013,-0.007457329891622,0.004972506314516,0.0014878597576171,standing,2026-03-04_13-58-23
1772632707672583400,4.02158349609375,0.0954986931466497,0.1343332132525742,0.0639051936775445,-0.0221521202474832,0.0472296848893165,0.0076203206554055,standing,2026-03-04_13-58-23
1772632707682532400,4.031532470703125,0.0607248831409961,0.1715780712805688,0.0223310742735862,-0.0326512344181537,0.0570961534976959,0.0141041772440075,standing,2026-03-04_13-58-23
1772632707692481500,4.0414814453125,0.1068275493526831,0.1301987437963485,0.058059390258789,-0.0311587993055582,0.0471178218722343,0.0258998498320579,standing,2026-03-04_13-58-23
1772632707702430500,4.051430419921875,0.1509707885922864,0.1054730294711887,0.0829886643320322,-0.0257094167172908,0.026732787489891,0.0323304757475853,standing,2026-03-04_13-58-23
1772632707712379400,4.06137939453125,0.1226172208924777,0.1062615495003759,0.1014899511843919,-0.0237583853304386,-0.0127413840964436,0.0281146895140409,standing,2026-03-04_13-58-23
1772632707722327600,4.07132763671875,0.0404086740874685,0.0649785219974815,0.1022165118932724,-0.0187095869332551,-0.0375097133219242,0.0181713569909334,standing,2026-03-04_13-58-23
1772632707732276500,4.0812763671875,-0.0022839827513322,-0.0069654550984501,0.0052303018689155,-0.006402853410691,-0.0213997177779674,0.0192771013826131,standing,2026-03-04_13-58-23
1772632707742225400,4.091225341796875,-0.0282087341353297,0.0146963416114449,-0.1173322479605674,0.0079625090584158,0.0180465038865804,0.0205434504896402,standing,2026-03-04_13-58-23
1772632707752174300,4.10117431640625,-0.0909766491449438,0.0572423747874796,-0.1757604715317487,0.0109782721847295,0.0320342257618904,0.0162344574928283,standing,2026-03-04_13-58-23
1772632707762123300,4.111123291015625,-0.109268074372597,0.0003359539560973,-0.0663385583043098,-0.0018787565641105,0.0064260708168148,0.0069812200963497,standing,2026-03-04_13-58-23
1772632707772072200,4.121072265625,-0.0835577694568783,-0.0682911536768078,0.0660872138917446,-0.0126714836806058,-0.0084985494613647,-0.0001792211551219,standing,2026-03-04_13-58-23
1772632707782021600,4.131021728515625,-0.0659848860284313,-0.0958991454400122,0.0667564914554357,-0.0116442367434501,0.0011691211257129,-0.0054757865145802,standing,2026-03-04_13-58-23
1772632707791970600,4.140970458984375,-0.1048585691009648,-0.0473778372466564,0.01154430732131,-0.0067573362030088,0.0063561592251062,-0.0089703863486647,standing,2026-03-04_13-58-23
1772632707801918500,4.15091845703125,-0.0990580113297328,-0.0246115864261984,-0.0292716871917247,0.0034198251087218,0.0008677903097122,-0.0127720199525356,standing,2026-03-04_13-58-23
1772632707811867400,4.160867431640625,-0.0363788888484239,-0.0456150653578341,-0.0662584788054227,0.016159588471055,0.0029288108926266,-0.0134977316483855,standing,2026-03-04_13-58-23
1772632707821816300,4.17081640625,-0.0230874273325316,-0.0140871236719191,-0.0851753607213497,0.0256342943757772,0.0032256215345114,-0.016499001532793,standing,2026-03-04_13-58-23
1772632707831765500,4.180765625,-0.031202180330269,0.025213790103048,-0.0177262108266353,0.0190994311124086,-0.0167478192597627,-0.0197259541600942,standing,2026-03-04_13-58-23
1772632707841714400,4.19071435546875,-0.0197368930619209,0.0223168996177613,0.0813058258116245,0.0078110788017511,-0.0210840068757534,-0.0186482053250074,standing,2026-03-04_13-58-23
1772632707851663400,4.200663330078125,0.00444271342149,-0.0140317402228713,0.1033972461104393,-0.0002939854748547,-0.0033974219113588,-0.0241202022880315,standing,2026-03-04_13-58-23
1772632707861612300,4.2106123046875,-0.0243817962583154,0.0176785722926259,0.0832505301386117,-0.0085930097848176,0.0171563420444726,-0.0299416724592447,standing,2026-03-04_13-58-23
1772632707871561500,4.2205615234375,-0.0535080105647444,0.0284241304516792,0.0540080690413713,-0.0107698775827884,0.034278068691492,-0.0332357361912727,standing,2026-03-04_13-58-23
1772632707881509600,4.230509521484375,0.0215579162103123,0.020162498062849,0.0604161825180053,-0.0158795285969972,0.0260996408760547,-0.0283701121807098,standing,2026-03-04_13-58-23
1772632707891458600,4.24045849609375,0.124024731336534,0.0401379491209983,0.1194891337335109,-0.0201333947479724,-0.0127244535833597,-0.0226997099816799,standing,2026-03-04_13-58-23
1772632707901407500,4.250407470703125,0.1546504452194087,0.0674018036216497,0.176090141877532,-0.0289135128259658,-0.0419810265302658,-0.0255397912114858,standing,2026-03-04_13-58-23
1772632707911356400,4.2603564453125,0.1272556943480856,0.0637418198093772,0.1266062722623348,-0.0349895134568214,-0.0493473298847675,-0.0255808029323816,standing,2026-03-04_13-58-23
1772632707921305300,4.270305419921875,0.0766451953231357,0.089225512894988,0.0293348155558109,-0.0410298220813274,-0.0369335226714611,-0.0270588435232639,standing,2026-03-04_13-58-23
1772632707931254300,4.280254150390625,0.0336362208104692,0.1341466046392917,-0.0709545276671648,-0.038377046585083,-0.0056927800178527,-0.0236025918275117,standing,2026-03-04_13-58-23
1772632707941203500,4.290203369140625,0.0015732954650186,0.1701072680756449,-0.2018529441654682,-0.0261968336999416,0.0301367230713367,-0.0109268985688686,standing,2026-03-04_13-58-23
1772632707951152400,4.30015234375,0.0643603170339018,0.2181299790970981,-0.2796592374235391,-0.0053749112412333,0.051117904484272,0.0116215534508228,standing,2026-03-04_13-58-23
1772632707961100300,4.310100341796875,0.1174915667081251,0.2474868603542447,-0.2392640986710786,0.01228310726583,0.038337517529726,0.0325830802321434,standing,2026-03-04_13-58-23
1772632707971049200,4.32004931640625,0.1344358516431413,0.2177488708250224,-0.1182844341188669,0.0263448636978864,0.0074640251696109,0.0419361032545566,standing,2026-03-04_13-58-23
1772632707980998400,4.329998291015625,0.0822694101467728,0.1572809581197798,0.0100730657249689,0.0318275429308414,-0.0134989004582166,0.0345132462680339,standing,2026-03-04_13-58-23
1772632707990947600,4.339947509765625,-0.0300014079720713,0.0701109164498746,0.1142512330800294,0.0232263300567865,-0.0194420106709003,0.0165829807519912,standing,2026-03-04_13-58-23
1772632708000896500,4.349896484375,-0.1165173696474172,0.0081407824881374,0.1894879681110381,0.0055169006809592,-0.015043418854475,0.001678513130173,standing,2026-03-04_13-58-23
1772632708010845400,4.359845458984375,-0.1009400256840512,-0.0519872307382524,0.2671662510752677,-0.0221831686794757,-0.0044419071637094,-0.0044536814093589,standing,2026-03-04_13-58-23
1772632708020794400,4.36979443359375,-0.0326328889868222,-0.0422119789160788,0.3512491403847932,-0.0588047392666339,-0.0317462347447872,0.0062051713466644,standing,2026-03-04_13-58-23
1772632708030743300,4.379743408203125,0.074998049170617,-0.0130731243237853,0.4168652296334504,-0.0771286264061927,-0.0598694831132888,0.0186112411320209,standing,2026-03-04_13-58-23
1772632708040691500,4.38969140625,0.129763603782095,-0.025006869354099,0.2796720969051122,-0.0707188993692398,-0.0518132746219635,0.0186913069337606,standing,2026-03-04_13-58-23
1772632708050640400,4.399640380859375,0.0604294255920685,0.01111526825428,0.041498131558299,-0.0528171323239803,-0.0453130304813385,0.0160153619945049,standing,2026-03-04_13-58-23
1772632708060589300,4.40958935546875,0.0219001537767238,0.0488774281546473,-0.1340098265171051,-0.0326310321688652,-0.0449516363441944,0.0297901704907417,standing,2026-03-04_13-58-23
1772632708070538500,4.41953857421875,0.1323137449226342,0.110929541311413,-0.1919143184751272,-0.012202457524836,-0.0379778817296028,0.0342200733721256,standing,2026-03-04_13-58-23
1772632708080487400,4.4294873046875,0.1269816997122951,0.0469487981796264,-0.2299742922782897,0.0047700479626655,-0.0084306364879012,0.018513998016715,standing,2026-03-04_13-58-23
1772632708090436400,4.439436279296875,-0.0189498891363851,-0.056333443249017,-0.2572054135531187,0.0113139674067497,0.0119284307584166,-0.002352402312681,standing,2026-03-04_13-58-23
1772632708100385500,4.449385498046875,-0.0387590802495367,-0.0399620080322027,-0.1468991187065839,0.002502339426428,0.0024711336009204,-0.0044234469532966,standing,2026-03-04_13-58-23
1772632708110334500,4.45933447265625,0.0565362723447382,-0.0711835141174495,-0.0485439584165811,-0.01020466722548,-0.0083546163514256,0.001610211096704,standing,2026-03-04_13-58-23
1772632708120282400,4.469282470703125,0.1167273956689052,-0.056631841673702,-0.0032417584002017,-0.0205088350921869,-0.0119301695376634,0.0038878878112882,standing,2026-03-04_13-58-23
1772632708130231300,4.479231201171875,0.0653460766682401,-0.0105374683663249,-0.0343090968370437,-0.0228870380669832,0.0009150553960353,0.0051683355122804,standing,2026-03-04_13-58-23
1772632708140180200,4.48918017578125,0.0271374881746247,0.0087932550475001,-0.0684989512085914,-0.0239365957677364,0.0132646514102816,0.0041653728112578,standing,2026-03-04_13-58-23
1772632708150129400,4.49912939453125,0.0152835851811803,0.0089241879507899,-0.094056001791358,-0.0190824531018733,0.0265112146735191,0.00476751383394,standing,2026-03-04_13-58-23
1772632708160078600,4.50907861328125,0.034447829454299,0.0250061387017369,-0.1092950719773769,-0.0097317770123481,0.033093761652708,0.0169909484684467,standing,2026-03-04_13-58-23
1772632708170027500,4.519027587890625,0.0664828256132081,0.0425498325683176,-0.1039689085185527,0.0078440206125378,0.0237721651792526,0.0179600734263658,standing,2026-03-04_13-58-23
1772632708179976400,4.5289765625,0.0409363146907649,0.0551170531965792,-0.0577034164279699,0.0222742892801761,0.004977561533451,0.0142045374959707,standing,2026-03-04_13-58-23
1772632708189925400,4.53892529296875,0.018463274663221,0.0116113812081515,-0.0219283386915922,0.0316179879009723,-0.0124986339360475,0.0078137498348951,standing,2026-03-04_13-58-23
1772632708199873500,4.54887353515625,-0.0017933314238674,0.0047308279141783,0.0235118084907531,0.0337488688528537,-0.0252882037311792,-5.6873075664e-05,standing,2026-03-04_13-58-23
1772632708209822500,4.558822509765625,-0.0271243912310339,0.0058605625964701,0.0337000250279903,0.0264856293797492,-0.0189589336514472,0.0006110477261245,standing,2026-03-04_13-58-23
1772632708219771400,4.568771484375,-0.0171438808940351,-0.0002691723302006,0.0487836123913526,0.0178018622100353,0.001696809194982,0.0001929313875734,standing,2026-03-04_13-58-23
1772632708229720300,4.57872021484375,-0.0350337761160917,0.0038613516032695,0.0726835434168577,0.0032950907479971,0.0235831998288631,-0.0023844758979976,standing,2026-03-04_13-58-23
1772632708239669200,4.588669189453125,-0.0941129744092933,-0.0218060274861752,0.0830348415613174,-0.0133995041251182,0.0314171686768531,-0.0128083806484937,standing,2026-03-04_13-58-23
1772632708249618400,4.598618408203125,-0.1276049827097915,-0.0358883288525044,0.1354144326180219,-0.0327495038509368,0.0260450411587953,-0.0193038303405046,standing,2026-03-04_13-58-23
1772632708259567600,4.608567626953125,-0.1177623099409043,-0.0731513070590794,0.1897305446952581,-0.0426481366157531,0.009283235296607,-0.0263594128191471,standing,2026-03-04_13-58-23
1772632708269516500,4.6185166015625,-0.0904361855926923,-0.0515175673998892,0.1959820063054561,-0.0453443229198455,-0.0094742076471447,-0.0285613145679235,standing,2026-03-04_13-58-23
1772632708279464400,4.62846435546875,-0.0501011064643971,-0.0006022036768496,0.1517734467446804,-0.0362418815493583,-0.0227395463734865,-0.0249642953276634,standing,2026-03-04_13-58-23
1772632708289413400,4.638413330078125,-0.002255158515647,0.0577042932108044,0.1002267993807792,-0.0237900074571371,-0.0348326936364173,-0.0187889579683542,standing,2026-03-04_13-58-23
1772632708299362300,4.6483623046875,0.0427392541931942,0.1054199841096997,0.0967033014297485,-0.0124619361013174,-0.0626842901110649,-0.0126391286030411,standing,2026-03-04_13-58-23
1772632708309311500,4.6583115234375,0.1226892814816907,0.1446545546501874,0.1049088197171688,-0.0021866615861654,-0.0908394902944564,-0.0122130224481225,standing,2026-03-04_13-58-23
1772632708319260400,4.668260498046875,0.1236340880511328,0.133141665380448,0.0243242939174175,0.0149837546050548,-0.0760496407747268,-0.0157340448349714,standing,2026-03-04_13-58-23
1772632708329209300,4.678209228515625,0.0305095036246813,0.1360917473576962,-0.1883054803282022,0.0328727401793003,-0.020391970872879,-0.0206363927572965,standing,2026-03-04_13-58-23
1772632708339158500,4.688158447265625,-0.056130011365097,0.2049905115388333,-0.3425707438886165,0.0369524620473384,0.0241282396018505,-0.0182388443499803,standing,2026-03-04_13-58-23
1772632708349107500,4.698107421875,0.0030256131651811,0.1959147862881421,-0.2957587238311767,0.0289227664470672,0.0460790768265724,-0.0073457174003124,standing,2026-03-04_13-58-23
1772632708359055600,4.7080556640625,0.1198435366617515,0.149529613340646,-0.1591255630731582,0.0138817159458994,0.0435245633125305,0.0048163491301238,standing,2026-03-04_13-58-23
1772632708369004500,4.718004638671875,0.200344950755313,0.0950147638209164,-0.0153331782102584,-0.0027502570301294,0.0285378880798816,0.0148114580661058,standing,2026-03-04_13-58-23
1772632708378953500,4.727953369140625,0.1882627006324008,0.0513075779110193,0.0871662422776222,-0.0169209372252225,0.0017821758519858,0.0180093832314014,standing,2026-03-04_13-58-23
1772632708388902400,4.73790234375,0.1448627540407702,-0.0017690554991364,0.147732646921277,-0.0285416413098573,-0.0201657339930534,0.0163755342364311,standing,2026-03-04_13-58-23
1772632708398851300,4.747851318359375,0.0645068128325045,-0.0416004228889942,0.0969067150473594,-0.0274026952683925,-0.0249983016401529,0.00385885941796,standing,2026-03-04_13-58-23
1772632708408800300,4.75780029296875,-0.0596356996648013,-0.0447429586984217,-0.0354062444239854,-0.0175181049853563,-0.0246920380741357,-0.0099352495744824,standing,2026-03-04_13-58-23
1772632708418749400,4.76774951171875,-0.0947817222500219,-0.0299316124051809,-0.1568494348347187,0.0018461532890796,-0.0163809992372989,-0.0094545520842075,standing,2026-03-04_13-58-23
1772632708428698600,4.77769873046875,-0.0517525999984703,0.0072010174199938,-0.2811129433631897,0.0297736581414937,0.006648420356214,0.0065579693764448,standing,2026-03-04_13-58-23
1772632708438646300,4.787646240234375,0.0044548970496281,0.0758436148829758,-0.3621843758970499,0.0572583302855491,0.0288083404302597,0.0203883722424507,standing,2026-03-04_13-58-23
1772632708448595500,4.797595458984375,-0.0003133585317991,0.0773189481325447,-0.3452390863150358,0.0816451609134674,0.0312818847596645,0.026582084596157,standing,2026-03-04_13-58-23
1772632708458544400,4.80754443359375,-0.00577147780722,0.0480478454627096,-0.2554875037193298,0.1025344505906105,0.0294433906674385,0.022048182785511,standing,2026-03-04_13-58-23
1772632708468493600,4.81749365234375,-0.0579833476142026,-0.0232252466343343,-0.145914199322462,0.1079422682523727,0.0191436130553483,0.0096256006509065,standing,2026-03-04_13-58-23
1772632708478442500,4.8274423828125,-0.1023116245645098,-0.0461382124491035,-0.0066325698822736,0.0946682840585708,0.0032110889442265,-0.0052632121369242,standing,2026-03-04_13-58-23
1772632708488391400,4.837391357421875,-0.1056419928299263,-0.061631841918081,0.1780477056860923,0.0689954087138176,-0.0112749096006155,-0.0134857213124632,standing,2026-03-04_13-58-23
1772632708498340400,4.84734033203125,-0.0531133852239698,-0.0711351449310779,0.3171317667275667,0.0351117104291915,-0.0150962620973587,-0.0151339778676629,standing,2026-03-04_13-58-23
1772632708508289300,4.857289306640625,0.0042371261131018,-0.0504153052464127,0.3745879303961992,0.0077040526084601,-0.0317727103829383,-0.0176352187991142,standing,2026-03-04_13-58-23
1772632708518237400,4.867237548828125,0.0131088897569105,-0.0106624099202454,0.3732172265648841,-0.0101428553462028,-0.0373392514884471,-0.0196506977081298,standing,2026-03-04_13-58-23
1772632708528186400,4.877186279296875,0.0150631656298413,0.0020285832181572,0.2537672557979822,-0.0127788577228784,-0.0218953266739845,-0.0238185618072748,standing,2026-03-04_13-58-23
1772632708538135600,4.887135498046875,-0.0306788323095999,0.0420768082290887,0.0762006116271019,-0.0074816942214965,-0.0034374829847365,-0.0292635187506675,standing,2026-03-04_13-58-23
1772632708548084500,4.89708447265625,-0.0703589911931194,0.0966201531909406,-0.0425666375726461,0.0031946520321071,0.0123918130993843,-0.0320177599787712,standing,2026-03-04_13-58-23
1772632708558033400,4.907033447265625,-0.0252840605939738,0.09852817876935,-0.095408000922203,0.0134177058935165,0.0244081299751997,-0.0251019522547721,standing,2026-03-04_13-58-23
1772632708567982300,4.916982421875,0.0559074363892897,0.1219039397902786,-0.0929039091467857,0.0203853342682123,0.0214032866060733,-0.0153651693835854,standing,2026-03-04_13-58-23
1772632708577931500,4.926931640625,0.0990745606057345,0.1425944072499871,-0.0141191262453794,0.0209069326519966,0.0083102462813258,-0.0110034309327602,standing,2026-03-04_13-58-23
1772632708587880400,4.93688037109375,0.0891064348262734,0.1173575285322964,0.0813870743542909,0.0123920086771249,-0.0133037026971578,-0.0063948305323719,standing,2026-03-04_13-58-23
1772632708597828400,4.946828369140625,0.1064953399899415,0.0838315448969602,0.1604699634194374,0.0042735980823636,-0.0369777642190456,-0.0041688806377351,standing,2026-03-04_13-58-23
1772632708607777300,4.95677734375,0.078199000636395,0.0657999213829636,0.1285135671883821,-0.0025488878600299,-0.0467185415327549,-0.0108169289305806,standing,2026-03-04_13-58-23
1772632708617726200,4.966726318359375,0.0521242097898386,0.0785188254415988,0.0813970112264156,-0.0053488342091441,-0.048464473336935,-0.0067994194105267,standing,2026-03-04_13-58-23
1772632708627675600,4.976675537109375,0.0755855850012972,0.0789405579850077,-0.0215180043250322,-0.0035685105249285,-0.0341619700193405,0.0029874313622713,standing,2026-03-04_13-58-23
1772632708637624600,4.98662451171875,0.0947214068975299,0.121632721633464,-0.1438578513145446,0.0052394270896911,-0.0109148398041725,0.0098532568663358,standing,2026-03-04_13-58-23
1772632708647573500,4.996573486328125,0.089322908854857,0.1414421684749424,-0.2398427753418683,0.0233302805572748,0.0161852203309535,0.0175109095871448,standing,2026-03-04_13-58-23
1772632708657522400,5.0065224609375,0.0769195918177254,0.13773995295614,-0.2918494414329529,0.0379595719277858,0.0308188740164041,0.0225489493459463,standing,2026-03-04_13-58-23
1772632708667471400,5.016471435546875,0.0498368477713316,0.1131089311771094,-0.2483382164865732,0.0518181286752224,0.0319549813866615,0.0222714468836784,standing,2026-03-04_13-58-23
1772632708677420000,5.026419921875,0.0221634808880276,0.0781346484296023,-0.1250648880392313,0.0535583980381488,0.0193383935838937,0.0168391615152359,standing,2026-03-04_13-58-23
1772632708687368200,5.0363681640625,0.0220916394945234,0.0128635732263326,-0.0101221655637025,0.0515623576939106,-0.0104975327849388,0.0107570337131619,standing,2026-03-04_13-58-23
1772632708697317000,5.046317138671875,0.0501743178310804,-0.031417759309709,0.0823439366877079,0.0467708930373191,-0.0279497504234313,0.0148653257638216,standing,2026-03-04_13-58-23
1772632708707266000,5.05626611328125,0.0828370357005856,-0.0163182437248528,0.0980868647426366,0.0471594482660293,-0.0270964726805686,0.0166616272181272,standing,2026-03-04_13-58-23
1772632708717215000,5.066215087890625,0.0630359548286534,0.0333690395079553,0.0845639508247375,0.0385045930743217,-0.0199833121150732,0.0166294164955616,standing,2026-03-04_13-58-23
1772632708727164000,5.076163818359375,0.0128290133696049,0.0276595758199691,0.0899170022904872,0.0248793270438909,-0.01261274702847,0.0113981682807207,standing,2026-03-04_13-58-23
1772632708737113000,5.086113037109375,-0.0261821419448591,0.0154174954928457,0.1067284363597631,0.0118217449635267,-0.0052486867643892,0.0057919928804039,standing,2026-03-04_13-58-23
1772632708747062300,5.096062255859375,-0.0529906721597537,-0.0020804595358669,0.0624532413035631,0.0082232821732759,0.0058660162612795,0.002091264585033,standing,2026-03-04_13-58-23
1772632708757011200,5.10601123046875,-0.089645199611783,0.031298516844213,-0.0092488898605108,0.0138334259390831,0.0103588905185461,0.000262260204181,standing,2026-03-04_13-58-23
1772632708766959000,5.115958984375,-0.0650763563487678,0.0656697191320359,-0.0609510200470685,0.028878154233098,0.0097413035109639,0.0032513921614736,standing,2026-03-04_13-58-23
1772632708776908000,5.125907958984375,-0.0186763328920118,0.1021526528768241,-0.0831610982894897,0.0473290719091892,0.0052802581340074,0.0037355707027018,standing,2026-03-04_13-58-23
1772632708786857200,5.135857177734375,0.0076323032430373,0.1173120819553732,-0.0679027388811111,0.0560024566948413,-0.0004764311015605,0.0046157455071806,standing,2026-03-04_13-58-23
1772632708796806100,5.14580615234375,-0.0071647222639061,0.1131973401129245,-0.0010147300004959,0.0502528473734855,-0.009262342005968,0.0013355431146919,standing,2026-03-04_13-58-23
1772632708806755000,5.155755126953125,0.0090627196386456,0.0869527456574141,0.1483943257004022,0.0313856787979602,-0.0150182312354445,0.0024122588802129,standing,2026-03-04_13-58-23
1772632708816704000,5.1657041015625,-0.0012319894803687,0.0797314161017537,0.2262239998340606,0.0040370807982981,-0.0157155767083168,0.0011867429129779,standing,2026-03-04_13-58-23
1772632708826653000,5.17565283203125,-0.0227352894266135,0.0654284577220678,0.2745785731583833,-0.0204371027648448,-0.0065178172662854,0.0001976448111236,standing,2026-03-04_13-58-23
1772632708836601900,5.185601806640625,-0.0251109690493904,0.0412288130976259,0.2340425646305084,-0.0326687209308147,0.0128919510170817,0.0018356267828494,standing,2026-03-04_13-58-23
1772632708846550000,5.195550048828125,-0.0315108078880235,0.050023091058433,0.1417903973907232,-0.0326519422233104,0.0264056287705898,0.00104999425821,standing,2026-03-04_13-58-23
1772632708856499200,5.205499267578125,-0.0291817986848764,0.0411829281292855,0.0756646050542593,-0.0252184234559535,0.0135298930108547,1.15830916911e-05,standing,2026-03-04_13-58-23
1772632708866448100,5.2154482421875,-0.0024334194256924,0.0184491182737052,0.0350000017106533,-0.0131798684597015,-0.0107714524492621,-0.0012076121056452,standing,2026-03-04_13-58-23
1772632708876397000,5.22539697265625,0.0214279696877114,-0.0020474340490996,0.0010831190615892,-0.0033255438320338,-0.0384480655193328,-0.0068848235532641,standing,2026-03-04_13-58-23
1772632708886346000,5.235345947265625,0.0246213589015416,-0.0024419863246381,-0.0278472073465585,0.002305444329977,-0.0532006472349166,-0.0070358244702219,standing,2026-03-04_13-58-23
1772632708896295200,5.245295166015625,0.0302340659504756,-0.010530600234121,-0.092306527775526,0.0049325441941618,-0.0448453724384307,-0.0013534087920561,standing,2026-03-04_13-58-23
1772632708906244000,5.255244140625,0.02052846356472,0.0312035320371389,-0.1544230844706297,0.0037612856831401,-0.0202872976660728,0.0082933595404028,standing,2026-03-04_13-58-23
1772632708916193000,5.265193115234375,0.0183902094270102,0.0568606819935142,-0.213009713473916,0.0062919026240706,0.0110860522836446,0.0182954594492912,standing,2026-03-04_13-58-23
1772632708926141000,5.275140869140625,0.0144736205051653,0.0583067891485989,-0.2254582761585712,0.0107108857482671,0.0304094143211841,0.0284010916948318,standing,2026-03-04_13-58-23
1772632708936090000,5.285090087890625,0.0282668027318082,0.0577981089740991,-0.1826677667021751,0.019370986148715,0.0417141616344451,0.0345174930989742,standing,2026-03-04_13-58-23
1772632708946039300,5.295039306640625,0.0420245117862708,0.0351921632818877,-0.1161065055578947,0.0302859507501125,0.0339579693973064,0.0337390527129173,standing,2026-03-04_13-58-23
1772632708955988200,5.30498828125,0.0162080796149559,0.0061107379652559,-0.0542184969216585,0.0421444848179817,0.0185317154973745,0.023838872089982,standing,2026-03-04_13-58-23
1772632708965937200,5.314937255859375,-0.0208399954656139,-0.0242306242845952,-0.0078968907296657,0.0507150702178478,0.0063173933885991,0.0144224669784307,standing,2026-03-04_13-58-23
1772632708977752300,5.32675244140625,0.0103341826128773,-0.0170224464714527,0.0641167906016111,0.0453371591866016,-0.0042285663075745,0.0079701226204633,standing,2026-03-04_13-58-23
1772632708987701200,5.336701171875,0.0248197858167812,-0.006798720229417,0.1094014549612999,0.0321433283388614,-0.0147621678188443,0.0107691045850515,standing,2026-03-04_13-58-23
1772632708997650200,5.346650146484375,0.0589536904837004,0.0299861190713942,0.2070586961150169,0.0135207651183009,-0.0238411724567413,0.0187509749084711,standing,2026-03-04_13-58-23
1772632709007598000,5.35659814453125,0.0954531004392541,0.0714148386552929,0.2559866854131221,-0.0054691713303327,-0.0184842236340045,0.0220998991280794,standing,2026-03-04_13-58-23
1772632709017547000,5.366547119140625,0.0502384873747825,0.1011348541364073,0.2036871738553047,-0.0159696508198976,-0.0036029871553182,0.0234947130084037,standing,2026-03-04_13-58-23
1772632709027496200,5.37649609375,-0.000140047791507,0.1154759525693953,0.1247007309019565,-0.0202743839472532,0.0134220691397786,0.0217466130852699,standing,2026-03-04_13-58-23
1772632709037445000,5.386445068359375,-0.0293571004528552,0.121284054326266,0.0647726241618394,-0.0255981348454952,0.0231322105973958,0.0186657682061195,standing,2026-03-04_13-58-23
1772632709047394000,5.39639404296875,-0.0544450356865301,0.1204787292927503,0.0482931985259056,-0.0272615477442741,0.0195537209510803,0.0189832169562578,standing,2026-03-04_13-58-23
1772632709057343000,5.406343017578125,-0.0136886624062433,0.0974498820133507,0.0421352604180574,-0.0280056595802307,0.0121454587206244,0.0212938729673624,standing,2026-03-04_13-58-23
1772632709067292000,5.4162919921875,0.0213707596077583,0.0879870571412146,0.0533025511205196,-0.0232950616627931,0.0059189889580011,0.0227205269038677,standing,2026-03-04_13-58-23
1772632709077241000,5.426240966796875,0.0092953228181228,0.0777289902381598,0.0280576352268457,-0.0176523514091968,-0.0128056816756725,0.0270191505551338,standing,2026-03-04_13-58-23
1772632709087189200,5.436189208984375,0.0355973465492948,0.0624231384262442,-0.0082236384660005,-0.006063338369131,-0.0210910439491271,0.0299076177179813,standing,2026-03-04_13-58-23
1772632709097138200,5.44613818359375,0.045693720084615,0.0684052815757691,-0.0859931068450212,0.0070757414214313,-0.0150655135512351,0.0364549681544303,standing,2026-03-04_13-58-23
1772632709107087000,5.456087158203125,0.0213815367300994,0.0689691990688443,-0.1428530581861734,0.0151174226775765,-0.0086499592289328,0.0392318479716777,standing,2026-03-04_13-58-23
1772632709117036000,5.4660361328125,-0.0175809206044301,0.0470538659892976,-0.1296153909504413,0.0173269342631101,-0.0038705246988683,0.0373641848564147,standing,2026-03-04_13-58-23
1772632709126985000,5.47598486328125,-0.0172645298653282,-0.0329793095380067,-0.1032137062370777,0.011895683594048,0.006433512084186,0.0338432192802429,standing,2026-03-04_13-58-23
1772632709136934100,5.48593408203125,-0.0353911199200898,-0.0643880087584257,-0.0698351682484149,0.0049081947654485,0.0123882154002785,0.0310042761266231,standing,2026-03-04_13-58-23
1772632709146883000,5.495883056640625,-0.0421914658510126,-0.1061477138623595,-0.0254635270804166,0.0024474337697029,0.0211143270134925,0.0303483419120311,standing,2026-03-04_13-58-23
1772632709156832000,5.50583203125,-0.0145953471886925,-0.1451123814202845,-0.0230219791471958,0.0045569888316094,0.0287430826574563,0.031412735581398,standing,2026-03-04_13-58-23
1772632709166781200,5.51578125,-0.0193271249509416,-0.1315821609787643,-0.067078563016653,0.0161635763943195,0.0288301687687635,0.0263197068125009,standing,2026-03-04_13-58-23
1772632709176729000,5.52572900390625,-0.077121854657866,-0.1216819676026701,-0.0750976188212633,0.0272693559527397,0.0246101170778274,0.0211895164102315,standing,2026-03-04_13-58-23
1772632709186678300,5.53567822265625,-0.0843150175649672,-0.1476541748575866,-0.0687900431096553,0.037389900535345,0.0198643654584884,0.0151140494272112,standing,2026-03-04_13-58-23
1772632709196627200,5.545627197265625,-0.1080985374028794,-0.1455012346073985,-0.0521054502904415,0.038482554256916,0.0110501013696193,0.0036946386098861,standing,2026-03-04_13-58-23
1772632709206576000,5.555576171875,-0.1490060643905773,-0.1107972932338714,0.0231429751783609,0.0316760465502738,-0.0050186133012175,-0.0086094317957758,standing,2026-03-04_13-58-23
1772632709216525000,5.565525146484375,-0.1423315733290277,-0.1052205160148441,0.1098112048059701,0.0197404958307743,-0.0112846139818429,-0.0123303141444921,standing,2026-03-04_13-58-23
1772632709226474000,5.575473876953125,-0.0812662792525254,-0.0874932822749018,0.1450304022252559,0.0086998287588357,0.0005267714150249,-0.0081046763807535,standing,2026-03-04_13-58-23
1772632709236423000,5.5854228515625,-0.047130602753628,-0.0027348317913711,0.0865402193337678,0.0033270486164838,0.0127625092864036,-0.002565837232396,standing,2026-03-04_13-58-23
1772632709246372000,5.5953720703125,0.008952646860294,0.0852998638838529,0.0818371562093496,0.0009797383099794,0.0196590311825275,0.0100237242877483,standing,2026-03-04_13-58-23
1772632709256320000,5.605320068359375,0.0432241698996163,0.1268299980156123,0.055426119145751,0.0044679059647023,0.0210554748773574,0.0192452371120452,standing,2026-03-04_13-58-23
1772632709266269200,5.615269287109375,0.0541546379052102,0.1743342381209135,0.0606675269305706,0.0072961831465363,0.0135711934417486,0.0239563696086406,standing,2026-03-04_13-58-23
1772632709276218000,5.625218017578125,0.0678102930909954,0.181225312808901,0.1099164187461137,0.003832071321085,-0.0076226610690355,0.0247311294078826,standing,2026-03-04_13-58-23
1772632709286167000,5.6351669921875,0.0795862902763299,0.1882886753238737,0.1796416968792676,-0.0021898685954511,-0.0366529785096645,0.0276017524302005,standing,2026-03-04_13-58-23
1772632709296116200,5.6451162109375,0.0822833656068891,0.1662687128260731,0.2128887174427509,-0.0100795486941933,-0.0486509799957275,0.0332170352339744,standing,2026-03-04_13-58-23
1772632709306065200,5.655065185546875,0.0844456399410031,0.1665649192936718,0.1782961274892091,-0.0161715298891067,-0.0307015422731637,0.0439058989286422,standing,2026-03-04_13-58-23
1772632709316014000,5.66501416015625,0.0550689945374615,0.1921864134147763,0.0855892022192478,-0.0235375873744487,-0.0141753545030951,0.0500612892210483,standing,2026-03-04_13-58-23
1772632709326583000,5.6755830078125,0.0458969327728264,0.1428374222256243,-0.06639408788383,-0.025521108880639,0.0069251377135515,0.0573988296091556,standing,2026-03-04_13-58-23
1772632709336532200,5.6855322265625,0.0339073476357385,0.115797147347778,-0.0957873556286096,-0.0173605289310216,0.0197954960167408,0.0635791420936584,standing,2026-03-04_13-58-23
1772632709346481200,5.695481201171875,0.0421657651541754,0.0946193347625434,-0.0752197838962078,-0.0087092500180006,0.0111218467354774,0.0651368275284767,standing,2026-03-04_13-58-23
1772632709356430000,5.70543017578125,0.070054911946319,0.0475308358512818,-0.0465484006851911,-0.0002732789143919,-0.0133569696918129,0.0679759085178375,standing,2026-03-04_13-58-23
1772632709366379000,5.71537890625,0.022939232767187,-0.0149072078831493,-0.0460591558635234,0.0010095657780766,-0.0374990589916706,0.0650349780917167,standing,2026-03-04_13-58-23
1772632709376328000,5.725327880859375,-0.066166033015307,-0.0493782172836363,-0.1065706154495477,-0.0021242168731987,-0.0405682064592838,0.0599473938345909,standing,2026-03-04_13-58-23
1772632709386277000,5.735277099609375,-0.1272609002461656,-0.0641096302084624,-0.1697077473640441,-0.0077671888284385,-0.0257298722863197,0.0529280975461006,standing,2026-03-04_13-58-23
1772632709396226000,5.74522607421875,-0.1373984825747087,-0.0713734837315976,-0.1903548140734434,-0.0075662233866751,0.0026737626176327,0.051694318652153,standing,2026-03-04_13-58-23
1772632709406174200,5.75517431640625,-0.1128633041192777,-0.046770519003272,-0.2325222231954336,-0.0010686428286135,0.0314287096261978,0.0573319643735885,standing,2026-03-04_13-58-23
1772632709416123100,5.765123046875,-0.0978605451734736,-0.0258652397491037,-0.2173117945820093,0.017622385174036,0.0507389865815639,0.0613317564129829,standing,2026-03-04_13-58-23
1772632709426072000,5.775072021484375,-0.083106098432932,-0.0264162977606058,-0.1508569164216518,0.0429301410913467,0.0554477237164974,0.0619176551699638,standing,2026-03-04_13-58-23
1772632709436021000,5.78502099609375,-0.0805517560413107,-0.0697523122705519,-0.0050438393861055,0.0618834495544433,0.0391479507088661,0.0591033436357975,standing,2026-03-04_13-58-23
1772632709445970200,5.79497021484375,-0.1077168811415322,-0.1161529750481247,0.1615250254303216,0.0677085816860199,0.0089234728366136,0.0517146661877632,standing,2026-03-04_13-58-23
1772632709455919000,5.804919189453125,-0.1629698539437726,-0.1487954538471996,0.2887888848185539,0.0630035325884819,-0.0260026752948761,0.0341773368418216,standing,2026-03-04_13-58-23
1772632709465868000,5.814867919921875,-0.1992921537667512,-0.1795078413665294,0.349619493356347,0.0375809967517852,-0.0438676923513412,0.0053219869732856,standing,2026-03-04_13-58-23
1772632709475817200,5.824817138671875,-0.1805753062012605,-0.1506435659319162,0.3373351813226938,0.0060741202905774,-0.0302900839596986,-0.0098116574808955,standing,2026-03-04_13-58-23
1772632709485766100,5.83476611328125,-0.108719464046508,-0.0632882308229804,0.3134662299573421,-0.0270968824625015,-0.008209815248847,-0.0084971208125352,standing,2026-03-04_13-58-23
1772632709495714300,5.84471435546875,-0.0283085595143027,0.0225000010997056,0.3076648502022028,-0.0616438761353492,-0.0082149542868137,-0.0050567928701639,standing,2026-03-04_13-58-23
1772632709505663200,5.854663330078125,0.0456587949017062,0.0455094130262732,0.2218091060012579,-0.0782915651798248,-0.0114110149443149,0.0035484130494296,standing,2026-03-04_13-58-23
1772632709515612200,5.864612060546875,0.0496080257178284,0.0810888220600783,0.0809884304255247,-0.0735873430967331,-0.0050097820349037,0.0062901116907596,standing,2026-03-04_13-58-23
1772632709525561000,5.87456103515625,-0.0070707238375209,0.147754128100723,-0.069963763064146,-0.0509400814771652,0.0104458723217248,0.0091506130993366,standing,2026-03-04_13-58-23
1772632709535510000,5.884510009765625,0.0106540439506992,0.1796378974869847,-0.1218704759120941,-0.0234365109354257,0.0182075127959251,0.0112559897825121,standing,2026-03-04_13-58-23
1772632709545459000,5.894458984375,0.0632424371861852,0.1415573192872107,-0.0842991624087095,0.0020414181053638,-0.000517705688253,0.0174606218934059,standing,2026-03-04_13-58-23
1772632709555408100,5.904408203125,0.0923007921544834,0.114350894062221,0.0125286421835422,0.014891380444169,-0.0291806831955909,0.0183544568717479,standing,2026-03-04_13-58-23
1772632709565357300,5.914357421875,0.0632109552025329,0.0836943283833563,0.0971995605140924,0.0105437701568007,-0.0553688779473304,0.0186833590269088,standing,2026-03-04_13-58-23
1772632709575305000,5.924304931640625,0.0839039525460451,0.0528610909633338,0.1469219150602817,-0.0052703060209751,-0.0643691718578338,0.0227213911712169,standing,2026-03-04_13-58-23
1772632709585254100,5.934254150390625,0.0689554536712821,0.0456856463760137,0.106754739844799,-0.0287719033658504,-0.0586705431342124,0.0262215826660394,standing,2026-03-04_13-58-23
1772632709595203000,5.944203125,0.0299104874187614,0.0579537379272282,-0.021072598645091,-0.0440077111124992,-0.0375664308667182,0.0340287946164608,standing,2026-03-04_13-58-23
1772632709605152300,5.95415234375,-0.0037609325692523,0.0541574143841862,-0.1408393802762031,-0.0479585081338882,-0.0064186314120888,0.0385748110711574,standing,2026-03-04_13-58-23
1772632709615101200,5.96410107421875,-0.0093271244621835,0.0406017672404646,-0.2324386365652084,-0.0381438992917537,0.0214579217135906,0.04211400821805,standing,2026-03-04_13-58-23
1772632709625050000,5.974050048828125,-0.008843816190958,0.0279579742446541,-0.2552250533908605,-0.0143253877758979,0.0343540124595165,0.0439020544290542,standing,2026-03-04_13-58-23
1772632709634999000,5.9839990234375,-0.0207660808460321,0.0092728552579879,-0.1564449456870555,0.0065527935512363,0.0241739992052316,0.0426594801247119,standing,2026-03-04_13-58-23
1772632709644948000,5.993947998046875,-0.043943186622858,-0.0183906660847365,-0.0083989950329065,0.0196832437068223,-0.0055378228425979,0.0324816778302192,standing,2026-03-04_13-58-23
1772632709654897000,6.00389697265625,-0.045123957372643,-0.0427776499748229,0.099300332185626,0.0224147886037826,-0.0304841008037328,0.0229895152151584,standing,2026-03-04_13-58-23
1772632709664845000,6.013844970703125,-0.0576920547837391,-0.0352134983308613,0.1647095006853342,0.0139757627621293,-0.0387835726141929,0.0165792852640151,standing,2026-03-04_13-58-23
1772632709674794200,6.023794189453125,-0.0607050002635922,-0.0105155487954616,0.1803670885443687,-0.002027234993875,-0.0366878546774387,0.0155078396201133,standing,2026-03-04_13-58-23
1772632709684743200,6.0337431640625,-0.0903482789803761,0.0062890171416103,0.158462130728364,-0.0204733535647392,-0.0205357819795608,0.0128681138157844,standing,2026-03-04_13-58-23
1772632709694692000,6.043692138671875,-0.1073568065243307,0.022918080381304,0.1483802971750497,-0.0402902029454708,-0.0045813219621777,0.0081607773900032,standing,2026-03-04_13-58-23
1772632709704641000,6.05364111328125,-0.1039553640503901,0.0363425023607909,0.1261596975386142,-0.0543413050472736,0.0076582999899983,0.009938970208168,standing,2026-03-04_13-58-23
1772632709714590000,6.06358984375,-0.074886305024987,0.0576842733360826,0.0945341406971216,-0.0650116056203842,0.0170598234981298,0.0148925529792904,standing,2026-03-04_13-58-23
1772632709724539400,6.073539306640625,-0.056885907766316,0.0375895798124372,0.0996644893229007,-0.0666992515325546,0.0123407021164894,0.0104096541181206,standing,2026-03-04_13-58-23
1772632709734488300,6.08348828125,-0.0549390297485515,-0.024882804583013,0.0958931540906429,-0.0754902809858322,0.0204299688339233,-0.007148178294301,standing,2026-03-04_13-58-23
1772632709744437200,6.093437255859375,-0.0308787205295637,-0.003714928869903,0.1268055942267179,-0.0813263356685638,0.0212132055312395,-3.27443704009e-05,standing,2026-03-04_13-58-23
1772632709754385200,6.10338525390625,-0.0153926807119976,-0.0062846332274377,0.1449608441203832,-0.091228999197483,0.0188255310058593,-0.0055612521246075,standing,2026-03-04_13-58-23
1772632709764334000,6.113333984375,0.0310362583119887,0.0039127895295619,0.1641799238532781,-0.0962639674544334,-0.0197120085358619,-0.0074797933921217,standing,2026-03-04_13-58-23
1772632709774283300,6.123283203125,0.0884644014625344,-0.0002636193722486,0.0249216752886772,-0.0865899324417114,-0.0559615790843963,-0.0042116232216358,standing,2026-03-04_13-58-23
1772632709784232200,6.133232177734375,0.0749412044168449,0.0336718218468129,-0.1946434511780738,-0.0622031018137931,-0.0602103881537914,0.0010672947391867,standing,2026-03-04_13-58-23
1772632709794181000,6.14318115234375,-0.0017582783767953,0.1082144371338188,-0.4105278433054685,-0.0321537964046001,0.0088463528081774,-0.0087601142004132,standing,2026-03-04_13-58-23
1772632709804130000,6.153130126953125,-0.0295000617206562,0.1589225878469645,-0.3899550108760595,-0.0225429814308881,0.0851800069212913,-0.0041163605637848,standing,2026-03-04_13-58-23
1772632709814079200,6.163079345703125,0.0861468635014724,0.1401949448928237,-0.2090945858567953,-0.0268239900469779,0.1364326179027557,0.009617137722671,standing,2026-03-04_13-58-23
1772632709824028200,6.173028076171875,0.0275880540868733,-0.0333330914117395,0.0382891063839197,-0.0674004480242729,0.1979409754276275,-0.0099496394395828,standing,2026-03-04_13-58-23
1772632709833976300,6.182976318359375,0.0010822422787547,-0.0475758440367877,0.3573299216032028,-0.1365471929311752,0.1820427477359771,-0.0065618935041129,standing,2026-03-04_13-58-23
1772632709843925200,6.19292529296875,0.0898192592707462,-0.174008659428358,0.4430062175840139,-0.1910580992698669,0.1635697335004806,0.0032928674481809,standing,2026-03-04_13-58-23
1772632709853874200,6.202874267578125,0.095127266018372,-0.2016759801633656,0.3209311590105295,-0.2209256589412689,0.1213002130389213,-0.0011891097528859,standing,2026-03-04_13-58-23
1772632709863823000,6.212822998046875,0.0351480501455254,-0.1171162671223282,0.0610860446035861,-0.2097004354000091,0.0744711905717849,0.002589383162558,standing,2026-03-04_13-58-23
1772632709873772000,6.22277197265625,0.1136060305116698,-0.0079797467075288,-0.2585562436401843,-0.1431858092546463,0.0214983858168125,0.0274194478988647,standing,2026-03-04_13-58-23
1772632709883721200,6.23272119140625,0.075060428616032,0.0240706114172935,-0.5628688608050346,-0.0396090894937515,-0.0111793987452983,0.0354986786842346,standing,2026-03-04_13-58-23
1772632709893670100,6.242670166015625,-0.0842623009970411,0.0140296943962573,-0.6618319238603114,0.0701376348733902,-0.0327087193727493,0.0223975498229265,standing,2026-03-04_13-58-23
1772632709903619300,6.252619384765625,-0.1641079180629923,-0.0237843418218195,-0.5711614728540182,0.1525017470121383,-0.0457952246069908,0.0060968743637204,standing,2026-03-04_13-58-23
1772632709913568300,6.262568359375,-0.1704068355441093,-0.0642348640233278,-0.3344716085851192,0.1881272792816162,-0.0529043152928352,-0.0117048984393477,standing,2026-03-04_13-58-23
1772632709923516200,6.27251611328125,-0.1234257425300777,-0.0469080277778208,-0.0569563974529504,0.1737624406814575,-0.0552566871047019,-0.0198818687349557,standing,2026-03-04_13-58-23
1772632709933465300,6.28246533203125,-0.0287918312529101,-0.0595868920870125,0.1142027177631855,0.1227699294686317,-0.0406308844685554,-0.0163516178727149,standing,2026-03-04_13-58-23
1772632709943414300,6.292414306640625,-0.0246962507686577,-0.0251782803982496,0.147644968637824,0.0607417114078998,0.0054732244461774,-0.0066212257370352,standing,2026-03-04_13-58-23
1772632709953363200,6.30236328125,-0.0525389828694984,0.0026297639816999,0.1136725564092397,0.0102317640557885,0.0574845261871814,0.0003326248843222,standing,2026-03-04_13-58-23
1772632709963312000,6.31231201171875,-0.0661079461525194,0.0348984410323202,0.0813157626837492,-0.0188691299408674,0.0887319222092628,-0.0006679248763248,standing,2026-03-04_13-58-23
1772632709973261000,6.322260986328125,-0.0429328222702257,0.0333009427078068,0.0762573102504014,-0.0256083160638809,0.0906835794448852,-0.003434072015807,standing,2026-03-04_13-58-23
1772632709983210000,6.3322099609375,0.0243278193150646,0.0455143814623355,0.1012543888628482,-0.0129050388932228,0.0704709887504577,-0.00604237196967,standing,2026-03-04_13-58-23
1772632709993159200,6.3421591796875,0.0683794530147686,0.0439629142366349,0.1287298402875661,0.0082416050136089,0.0355452038347721,-0.0005393859464675,standing,2026-03-04_13-58-23
1772632710003108400,6.3521083984375,0.0779187041239812,0.0687893124572932,0.1090717846155166,0.0338521599769592,-0.0028021866455674,0.0059302309527993,standing,2026-03-04_13-58-23
1772632710013056300,6.36205615234375,0.0476766740627586,0.0898956672415137,0.0984662194490432,0.0610233917832374,-0.0329180844128131,0.000938659068197,standing,2026-03-04_13-58-23
1772632710023005200,6.372005126953125,0.037597470857948,0.0969004314370453,0.1145265428900718,0.0737514346837997,-0.0540009997785091,-0.0044172243215143,standing,2026-03-04_13-58-23
1772632710032954000,6.3819541015625,0.0371500741503201,0.100186175109446,0.1278390289276838,0.0701694563031196,-0.060527678579092,-0.0038186537567526,standing,2026-03-04_13-58-23
1772632710042903300,6.3919033203125,0.0367601067183539,0.1058797105759382,0.1497194368243217,0.0492673777043819,-0.0541014708578586,-0.0040633985772728,standing,2026-03-04_13-58-23
1772632710052852200,6.401852294921875,0.0098326810978353,0.1013422132767736,0.1493891819566488,0.0213733930140733,-0.0344557091593742,-0.0050738165155053,standing,2026-03-04_13-58-23
1772632710062801200,6.41180126953125,0.0127090037191286,0.0894927855290472,0.0901022957295179,-0.012188296765089,-0.0078661749139428,-0.0042610196396708,standing,2026-03-04_13-58-23
1772632710072750000,6.42175,0.0404391970898956,0.0933418621726334,0.0066600424110889,-0.0299653336405754,0.0129366051405668,0.0015703095123171,standing,2026-03-04_13-58-23
1772632710082699000,6.431698974609375,0.0448474602525122,0.1249951838038861,-0.0814613086342811,-0.0326524637639522,0.0397455841302871,0.012489803135395,standing,2026-03-04_13-58-23
1772632710092648200,6.441648193359375,0.0208395022752694,0.0959952992908656,-0.1201122340679168,-0.0255586635321378,0.0556359440088272,0.0235301461070776,standing,2026-03-04_13-58-23
1772632710102596400,6.451596435546875,-0.0073646835491061,0.0469577121384441,-0.1097661966204643,-0.0083826035261154,0.0440416075289249,0.0288250427693128,standing,2026-03-04_13-58-23
1772632710112545300,6.461545166015625,-0.0742420797041617,-0.0232414671167731,-0.0986959365516901,0.0199866443872451,0.015333829447627,0.0211557764559984,standing,2026-03-04_13-58-23
1772632710122494200,6.471494140625,-0.1293574706666171,-0.064130965257436,-0.0766156221687793,0.0451476573944091,-0.0141076818108558,0.0026111195329576,standing,2026-03-04_13-58-23
1772632710132443100,6.481443115234375,-0.1300445578816347,-0.0901625014841556,-0.0588952565610408,0.0626022964715957,-0.03041229583323,-0.008392022922635,standing,2026-03-04_13-58-23
1772632710142392000,6.49139208984375,-0.1139914678989909,-0.0849206553079187,0.0240805482894182,0.0640491992235183,-0.035072561353445,-0.0164504814893007,standing,2026-03-04_13-58-23
1772632710152341200,6.50134130859375,-0.0904920622320845,-0.0935496597044169,0.0772135880619287,0.0511681996285915,-0.0281499251723289,-0.0201109610497951,standing,2026-03-04_13-58-23
1772632710162290200,6.511290283203125,-0.0915266659768298,-0.0969115373529493,0.1661082615673542,0.0233842376619577,-0.0150738041847944,-0.0244228858500719,standing,2026-03-04_13-58-23
1772632710172239000,6.521239013671875,-0.0447743767499923,-0.093998134124279,0.1689502069950103,-0.0001874375157058,-0.0057957326062023,-0.0170464105904102,standing,2026-03-04_13-58-23
1772632710182187000,6.53118701171875,-0.0320639482587575,-0.0517937539927661,0.0922831468999385,-0.0120134707540273,0.0023990804329514,-0.0142231928184628,standing,2026-03-04_13-58-23
1772632710192136200,6.54113623046875,-0.0974858118432573,-0.0220871825151145,0.0219873754024505,-0.0078065623529255,-0.0001642031129449,-0.0246506985276937,standing,2026-03-04_13-58-23
1772632710202085400,6.55108544921875,-0.0722445857440121,-0.0066606269329786,-0.0240916542053222,0.0067492104135453,0.0042979232966899,-0.0314904935657978,standing,2026-03-04_13-58-23
1772632710212034300,6.561034423828125,-0.0611042378474026,0.0464700747519731,-0.024957331123948,0.0237736944109201,-0.0039553297683596,-0.0351560190320014,standing,2026-03-04_13-58-23
1772632710221983200,6.570983154296875,0.0073706018332391,0.084532240512222,0.0468926840782165,0.0288896281272172,-0.0266044493764638,-0.0412179082632064,standing,2026-03-04_13-58-23
1772632710231932200,6.58093212890625,0.0881042355137877,0.1038980352394282,0.1084334867119789,0.0248381998389959,-0.0446922592818737,-0.0376644991338253,standing,2026-03-04_13-58-23
1772632710241881000,6.590881103515625,0.121810507619474,0.1349180274032056,0.1174544130355119,0.0149701219052076,-0.0480995066463947,-0.0284060221165418,standing,2026-03-04_13-58-23
1772632710251830000,6.600830078125,0.0986894154793582,0.177162447284162,0.0774444742083549,-0.0006154305301606,-0.0399803966283798,-0.0208328012377023,standing,2026-03-04_13-58-23
1772632710261779000,6.610779052734375,0.1059158778678625,0.1857885290712118,0.0234124397695064,-0.0102131972089409,-0.0186090636998415,-0.0124992374330759,standing,2026-03-04_13-58-23
1772632710271727000,6.62072705078125,0.1485929900776594,0.1816289251737296,-0.0122691144645214,-0.0184545367956161,0.0098787378519773,-0.0022874500136822,standing,2026-03-04_13-58-23
