time,seconds_elapsed,acc_x,acc_y,acc_z,gyr_x,gyr_y,gyr_z,activity,session
1772632667746816300,0.083816162109375,-0.0614104542523622,0.0691771427311003,-0.1341869366496801,0.0078816758468747,-0.068241998553276,0.0747247412800788,standing,2026-03-04_13-57-47
1772632667756765200,0.09376513671875,-0.0420925903201103,0.028979280116409,-0.0637637393802404,0.0098295118659734,-0.0607286915183067,0.0614651255309581,standing,2026-03-04_13-57-47
1772632667766714000,0.103714111328125,-0.1226958938855677,-0.0112387485034763,-0.0225064308404922,-0.0012785657308995,-0.039336584508419,0.0454091392457485,standing,2026-03-04_13-57-47
1772632667776663000,0.1136630859375,-0.1818433716420084,-0.0139873165592551,0.023586627292633,-0.0231804028153419,-0.0214342847466468,0.0272873938083648,standing,2026-03-04_13-57-47
1772632667786612000,0.123612060546875,-0.1238681890679523,-0.0131258774243295,0.0620662878125906,-0.0471649095416069,-0.0158024989068508,0.0259863417595624,standing,2026-03-04_13-57-47
1772632667796560100,0.13356005859375,0.0031003406355157,-0.0145002345174551,0.0258650936186313,-0.0624820776283741,0.0009722204413264,0.0419346801936626,standing,2026-03-04_13-57-47
1772632667806509000,0.143509033203125,0.0601459142092615,0.0125967389836907,-0.0516676433950662,-0.0735543817281723,0.0232387781143188,0.0648548528552055,standing,2026-03-04_13-57-47
1772632667816458000,0.1534580078125,0.0733143886663019,0.054635261029005,-0.0954793125927448,-0.0759672075510025,0.0315638184547424,0.0815914869308471,standing,2026-03-04_13-57-47
1772632667826407200,0.1634072265625,0.0645380116883665,0.076929510423541,-0.1053822824478149,-0.069803886115551,0.0329645052552223,0.0944751054048538,standing,2026-03-04_13-57-47
1772632667836356000,0.173356201171875,0.0460694215292111,0.0741826959334313,-0.1406271988302469,-0.0548430532217025,0.0450009331107139,0.100238986313343,standing,2026-03-04_13-57-47
1772632667846304300,0.18330419921875,-0.0103626232560724,0.0934044060148298,-0.0956125835835933,-0.0430985428392887,0.048583947122097,0.0998248904943466,standing,2026-03-04_13-57-47
1772632667856253200,0.193253173828125,-0.0913296090347692,0.0753005940474569,-0.0394856226921081,-0.038998607546091,0.0464835129678249,0.093887910246849,standing,2026-03-04_13-57-47
1772632667866202000,0.2032021484375,-0.1971372772878036,-0.0158512107349932,0.0244289233356714,-0.0447333976626396,0.036173615604639,0.0694702044129371,standing,2026-03-04_13-57-47
1772632667876151000,0.213151123046875,-0.3095716702042147,-0.099447631701827,0.0516974540114402,-0.0461818911135196,0.0098309591412544,0.0393969975411891,standing,2026-03-04_13-57-47
1772632667886100000,0.223099853515625,-0.325682847049646,-0.1293152389600873,-0.0298339972496032,-0.0370379388332366,0.00480717420578,0.0083924904465675,standing,2026-03-04_13-57-47
1772632667896049000,0.233048828125,-0.2740827889980748,-0.1247606443956494,-0.1053892967104911,-0.0220986735075712,-0.0059831556864082,-0.0140688763931393,standing,2026-03-04_13-57-47
1772632667905997000,0.2429970703125,-0.1195859451714903,-0.0413531701296567,-0.1551461380481719,-0.001618439797312,-0.0079207401722669,-0.0166539102792739,standing,2026-03-04_13-57-47
1772632667915946000,0.252946044921875,0.0051936596529558,0.0221557177066802,-0.1588075831651687,0.0139235015958547,-0.002741158241406,-0.0121750049293041,standing,2026-03-04_13-57-47
1772632667925895200,0.262895263671875,0.012762158678472,0.0379312328569591,-0.132120651769638,0.0179377626627683,0.0007585030980408,-0.0035244263708591,standing,2026-03-04_13-57-47
1772632667935844000,0.272843994140625,-0.01584664415773,0.0235993406437337,-0.0501934791892766,0.0102926269173622,0.005127418320626,0.0030599730089306,standing,2026-03-04_13-57-47
1772632667945793000,0.28279296875,-0.0179366387069225,-0.0178569975994527,-0.0087327570319175,0.0035234431270509,0.0223904252052307,0.0107952635735273,standing,2026-03-04_13-57-47
1772632667955741200,0.2927412109375,-0.0301655307589098,-0.0315118673339486,0.0297872354984283,-0.0073467809706926,0.0447937361896038,0.0121348332613706,standing,2026-03-04_13-57-47
1772632667965690000,0.302690185546875,-0.0778714309161529,-0.0642636517263949,0.1061550203859806,-0.0258837528526783,0.0538097359240055,0.00379553809762,standing,2026-03-04_13-57-47
1772632667975639000,0.31263916015625,-0.1088984373426064,-0.1257442486055195,0.1984083566695451,-0.0489589795470237,0.0438649617135524,-0.007805457804352,standing,2026-03-04_13-57-47
1772632667985588000,0.322587890625,-0.1194393397750332,-0.1154533023461699,0.2135761151850223,-0.0738873109221458,0.026137227192521,-0.0181337296962738,standing,2026-03-04_13-57-47
1772632667995537200,0.332537109375,-0.1044883292827755,-0.0813135707266628,0.1635416259497404,-0.0842443481087684,0.0102525372058153,-0.017079384997487,standing,2026-03-04_13-57-47
1772632668005485000,0.342485107421875,-0.1044612220801413,-0.0351883638896048,0.0418874231368303,-0.0769057646393776,0.0002696786541491,-0.0125583885237574,standing,2026-03-04_13-57-47
1772632668015434000,0.35243408203125,-0.1151876371473073,0.0288614989556372,-0.0592839636176824,-0.055994089692831,-0.0123084308579564,-0.0146841229870915,standing,2026-03-04_13-57-47
1772632668025383000,0.3623828125,-0.099529062907584,0.0662665159814059,-0.1302694709450006,-0.0296495426446199,-0.0143370945006608,-0.0130706261843442,standing,2026-03-04_13-57-47
1772632668035332000,0.37233203125,-0.082680146372132,0.0715706137388944,-0.1455728385388851,0.001889209728688,-0.0210764892399311,-0.0125814033672213,standing,2026-03-04_13-57-47
1772632668045281300,0.38228125,-0.0470718035047873,0.0718937082134187,-0.1512906316637992,0.02996576577425,-0.0201423838734626,-0.0088361147791147,standing,2026-03-04_13-57-47
1772632668055230200,0.392230224609375,-0.0296842500479891,0.0825406283035874,-0.1295557697176933,0.0526433810591697,-0.0168637670576572,-0.0077620614320039,standing,2026-03-04_13-57-47
1772632668065178000,0.40217822265625,-0.0287801773477345,0.0644666269525885,-0.0485246691942214,0.0609273575246334,-0.0203531756997108,-0.009059764444828,standing,2026-03-04_13-57-47
1772632668075127000,0.412126953125,-0.06696523883529,-0.0051424774549901,0.0575344896018505,0.0511282533407211,-0.0360309369862079,-0.0229888968169689,standing,2026-03-04_13-57-47
1772632668085076000,0.422075927734375,-0.0748825147658586,-0.0550768673166632,0.130134446388483,0.0258446559309959,-0.0509840548038482,-0.0353607088327407,standing,2026-03-04_13-57-47
1772632668095025200,0.432025146484375,-0.0392648560808971,-0.069611296364665,0.1075596264868974,-0.0010647214949131,-0.0455213785171508,-0.0405056700110435,standing,2026-03-04_13-57-47
1772632668104974000,0.44197412109375,-0.0216858717052266,-0.0323047712773084,0.0247755448162555,-0.0154456179589033,-0.025857662782073,-0.0375089012086391,standing,2026-03-04_13-57-47
1772632668114922000,0.451921875,0.0062616542106494,0.000441898548603,-0.0544762710750102,-0.0211873948574066,-0.0119455754756927,-0.0260330718010664,standing,2026-03-04_13-57-47
1772632668124871000,0.461870849609375,0.0562108032500371,0.0486518027052283,-0.1016027639091014,-0.0158672519028186,0.0006920553278177,-0.0087022297084331,standing,2026-03-04_13-57-47
1772632668134820000,0.471820068359375,0.070037595485337,0.0860609113842248,-0.1435544844537973,0.0009186533279716,0.0081129530444741,0.0030351204331964,standing,2026-03-04_13-57-47
1772632668144769300,0.481769287109375,0.026205321891047,0.0660574032753705,-0.1465834768861532,0.0187101475894451,0.0152602177113294,0.0037746138405054,standing,2026-03-04_13-57-47
1772632668154718200,0.49171826171875,-0.0328173604419454,0.0589811812788248,-0.0837269154787063,0.0294450838118791,0.0245408006012439,-0.005295580253005,standing,2026-03-04_13-57-47
1772632668164666000,0.501666015625,-0.0776885851625353,0.0200815417811274,0.0091483520954847,0.0250064749270677,0.014659272506833,-0.014154671691358,standing,2026-03-04_13-57-47
1772632668174615000,0.511614990234375,-0.0334326427960768,0.0128504214838147,0.0653331806540489,0.0204836279153823,-3.15229408442e-05,-0.0178340952843427,standing,2026-03-04_13-57-47
1772632668184564200,0.521564208984375,0.0284494110234081,0.0267892227262258,0.0490355413258075,0.0173355750739574,-0.0021035959944128,-0.0089703658595681,standing,2026-03-04_13-57-47
1772632668194513200,0.53151318359375,0.0320793284909799,0.1127073646388947,0.0417769484996795,0.0149294100701808,-0.0054194978438317,-0.0003579696640372,standing,2026-03-04_13-57-47
1772632668204462000,0.541462158203125,0.0493193632358685,0.1298598672308027,0.0373614701449871,0.0189881455153226,-0.0075606778264045,0.0068670194596052,standing,2026-03-04_13-57-47
1772632668214410000,0.551409912109375,0.0418597679449245,0.1240469431683421,0.0444371076196432,0.0201066732406616,-0.0076331160962581,0.0096327122300863,standing,2026-03-04_13-57-47
1772632668224359000,0.56135888671875,-0.0079695175744593,0.1147118363291025,0.0901478884369134,0.0163983963429927,-0.0137245682999491,0.0076293116435408,standing,2026-03-04_13-57-47
1772632668234308000,0.57130810546875,-0.0183898623671382,0.1049459368571639,0.1254933425843715,0.0080147655680775,-0.0165350027382373,0.0091494433581829,standing,2026-03-04_13-57-47
1772632668244257300,0.58125732421875,-0.0439090286249294,0.0793739809662103,0.1389618959665298,0.0019118231721222,-0.0210649035871028,0.0096792727708816,standing,2026-03-04_13-57-47
1772632668254206200,0.591206298828125,-0.0398062329486012,0.0707131201267242,0.131866969269514,0.0002034055069088,-0.0267483554780483,0.0042791813611984,standing,2026-03-04_13-57-47
1772632668264155100,0.601155029296875,-0.0433814976194873,0.0589428950950503,0.1258282736271619,0.0007703630253672,-0.0330635122954845,0.0015081060118973,standing,2026-03-04_13-57-47
1772632668274103000,0.61110302734375,-0.0067774947782978,0.0724919663675129,0.113817517837882,0.0037547012325376,-0.0351554229855537,0.0015403302386403,standing,2026-03-04_13-57-47
1772632668284052200,0.62105224609375,-0.0126151514232158,0.0705330873847007,0.0953062941133976,0.0076860412955284,-0.0304530803114175,0.004380339756608,standing,2026-03-04_13-57-47
1772632668294001200,0.631001220703125,-0.0406138960696756,0.0711531189791858,0.1113701246857643,0.0039608115330338,-0.0417398251593112,0.0070115430280566,standing,2026-03-04_13-57-47
1772632668303950000,0.6409501953125,-0.0666616527788341,0.0405186190016567,0.0992559085220098,0.0012359833344817,-0.0520003177225589,0.0020356646273285,standing,2026-03-04_13-57-47
1772632668313899000,0.65089892578125,-0.0717530211010947,0.0107959731720387,0.0596773468494415,-0.0041720978915691,-0.0589263997972011,-0.004992151632905,standing,2026-03-04_13-57-47
1772632668323847200,0.66084716796875,-0.065747022151947,0.037362493058294,0.0225666365951299,-0.0067126052454113,-0.0611526705324649,-0.0069724498316645,standing,2026-03-04_13-57-47
1772632668333796000,0.670796142578125,-0.0236861786769703,0.064494537872821,-0.0179553434073925,-0.0072697382420301,-0.0608384162187576,-0.0008945831796154,standing,2026-03-04_13-57-47
1772632668343745000,0.6807451171875,0.0044286300972104,0.071286974491924,-0.1046469539105892,-0.0006874990649521,-0.0542513541877269,0.0074027040973305,standing,2026-03-04_13-57-47
1772632668353694200,0.690694091796875,-0.0150572473457083,0.0838072872385382,-0.1472264509648084,0.0125918202102184,-0.0412261001765728,0.016522167250514,standing,2026-03-04_13-57-47
1772632668363643100,0.70064306640625,-0.0171415976054035,0.0914515183813869,-0.1366086108386516,0.0241652633994817,-0.037965327501297,0.0244111083447933,standing,2026-03-04_13-57-47
1772632668373592000,0.710592041015625,0.0057634588975459,0.0535338756583631,-0.1059118592798709,0.0286926366388797,-0.0443071126937866,0.0291371550410985,standing,2026-03-04_13-57-47
1772632668383540200,0.720540283203125,-0.0303684329198673,0.0259764450386166,-0.0416296489834785,0.0359374582767486,-0.0499376952648162,0.0268839802592992,standing,2026-03-04_13-57-47
1772632668393489200,0.7304892578125,-0.0656197242441587,0.0265923849798738,-0.0245364753633737,0.0370844826102256,-0.0470020994544029,0.0194761324673891,standing,2026-03-04_13-57-47
1772632668403438000,0.74043798828125,-0.0532487385740503,0.0108773678451776,0.0008861351847648,0.038233958184719,-0.0380047373473644,0.0122477244585752,standing,2026-03-04_13-57-47
1772632668413387000,0.750386962890625,-0.0322891535830684,-0.0056013271383941,0.0240910696834325,0.0309728477150201,-0.0334696397185325,0.0044680987484753,standing,2026-03-04_13-57-47
1772632668423336000,0.7603359375,-0.0293336099794134,-0.0114116208523511,0.044413142222166,0.0235028453171253,-0.0220967475324869,0.0025186783168464,standing,2026-03-04_13-57-47
1772632668433284000,0.7702841796875,-0.0114800829786807,0.057463616322726,0.0771177264720201,0.0127279618754982,-0.0152918379753828,0.008345142006874,standing,2026-03-04_13-57-47
1772632668443233000,0.78023291015625,-0.015340996190533,0.0584727933652698,0.0818447549939155,0.0001195864751935,-0.0204357337206602,0.0170753337442874,standing,2026-03-04_13-57-47
1772632668453182200,0.79018212890625,-0.0172536614114418,0.0272353590585291,0.0283580794781446,-0.0012570014223456,-0.0180897545069456,0.0227595847100019,standing,2026-03-04_13-57-47
1772632668463131100,0.800131103515625,-0.0768725378056056,0.0173002404995262,-0.0464952091932296,0.0094264168292284,0.0053536533378064,0.020838676020503,standing,2026-03-04_13-57-47
1772632668473080000,0.810080078125,-0.1040222826736047,0.0358748848490417,-0.0527308887124061,0.0197999626398086,0.024246385321021,0.0182849708944559,standing,2026-03-04_13-57-47
1772632668483028200,0.8200283203125,-0.0501687100742012,0.0378114058695733,0.0182002580791711,0.0283105801790952,0.0275716073811054,0.024061856791377,standing,2026-03-04_13-57-47
1772632668492977200,0.82997705078125,-0.0149024951754137,0.006006108547002,0.153738024815917,0.0245049223303794,0.003293165937066,0.0193456653505563,standing,2026-03-04_13-57-47
1772632668502926000,0.839926025390625,-0.0546661493576131,-0.0581046907052397,0.2551297763228416,0.0091375662013888,-0.0461861044168472,0.0061830207705497,standing,2026-03-04_13-57-47
1772632668512875000,0.849875,-0.082631283995416,-0.0684162413612008,0.2812128966063261,-0.0117810312658548,-0.0789070278406143,-0.0047758873552083,standing,2026-03-04_13-57-47
1772632668522824000,0.859823974609375,-0.0773340178375132,-0.0243292623534798,0.1953197430044412,-0.0331721268594265,-0.0928291082382202,-0.0052980780601501,standing,2026-03-04_13-57-47
1772632668532772000,0.869772216796875,-0.0587945909318514,0.0252807178594172,0.0412257443577051,-0.038221213966608,-0.0757004544138908,-0.0025454349815845,standing,2026-03-04_13-57-47
1772632668542721000,0.879720947265625,-0.0714195696293376,0.0620851386435329,-0.118981768733263,-0.0286117848008871,-0.039786797016859,0.0081922197714447,standing,2026-03-04_13-57-47
1772632668552670000,0.889669921875,-0.1052390563185326,0.1096422779798507,-0.1765033988535404,-0.0160328764468431,0.002376637654379,0.0134242661297321,standing,2026-03-04_13-57-47
1772632668562619100,0.899619140625,-0.1161072910091839,0.0751728760145604,-0.1554354763835668,-0.0043577905744314,0.0272245984524488,0.0109615847468376,standing,2026-03-04_13-57-47
1772632668572568000,0.909568115234375,-0.083223587332759,0.0360407429352402,-0.1278419515371322,0.0046761846169829,0.0368732288479805,0.01064626686275,standing,2026-03-04_13-57-47
1772632668582517200,0.919517333984375,-0.0342785921009257,0.0257138485796749,-0.0610164864987134,0.0064061973243951,0.040623091161251,0.0098259011283516,standing,2026-03-04_13-57-47
1772632668592465200,0.929465087890625,-0.0003927804435603,0.0267209797956049,0.0226022924304008,-4.1315332055e-05,0.0315907150506973,0.0096205715090036,standing,2026-03-04_13-57-47
1772632668602414000,0.9394140625,0.0128502753533422,-0.0065123045034706,0.099240710952878,-0.0133764520287513,0.0107855731621384,0.0084643829613924,standing,2026-03-04_13-57-47
1772632668612363000,0.949363037109375,0.0019288491707295,-0.0328602132029831,0.1309843412160873,-0.0277601853013038,-0.0132278846576809,0.0064880512654781,standing,2026-03-04_13-57-47
1772632668622312200,0.959312255859375,0.0368574478792958,-0.0377184668891131,0.1083154132902622,-0.0306703057140111,-0.0292594507336616,0.0082726329565048,standing,2026-03-04_13-57-47
1772632668632261400,0.969261474609375,0.0900384549793787,0.0055433133408427,0.0094973116636276,-0.0234917569905519,-0.038549356162548,0.0142615512013435,standing,2026-03-04_13-57-47
1772632668642209300,0.979209228515625,0.0872855943409725,0.0724931354112923,-0.1109299797028303,-0.0038927318528294,-0.0327616408467292,0.0232882220298051,standing,2026-03-04_13-57-47
1772632668652158200,0.989158203125,0.028282310828194,0.109504769205302,-0.1839806028664111,0.0161840394139289,-0.0210858099162578,0.0253282021731138,standing,2026-03-04_13-57-47
1772632668662107100,0.999107177734375,-0.0173174108300358,0.0818060304187238,-0.1901595837622881,0.0367887206375598,-0.0172003917396068,0.020886780694127,standing,2026-03-04_13-57-47
1772632668672056300,1.009056396484375,-0.0230002787720412,0.0371345295213162,-0.2221013669461011,0.0516209304332733,-0.0033386391587555,0.0201171264052391,standing,2026-03-04_13-57-47
1772632668682005200,1.019005126953125,-0.0113924594941549,0.046288434574753,-0.2003711811751127,0.0571721494197845,0.0101228421553969,0.0216794777661561,standing,2026-03-04_13-57-47
1772632668691953200,1.028953125,-0.0272340804168954,0.0286003638014197,-0.0759878456592559,0.049144584685564,0.0186010152101516,0.0209566950798034,standing,2026-03-04_13-57-47
1772632668701902000,1.038902099609375,-0.0056551579511724,-0.0394981899127364,0.009216741156578,0.032260738313198,0.0215752366930246,0.0233858786523342,standing,2026-03-04_13-57-47
1772632668711851000,1.04885107421875,-0.0028054128095507,-0.0489770891368389,0.0692313571363687,0.0179124251008033,0.0144225191324949,0.0267134979367256,standing,2026-03-04_13-57-47
1772632668721800200,1.05880029296875,-0.0348225627845153,-0.0445535736061632,0.0338210210591554,0.0154638215899467,0.0089830076321959,0.027301087975502,standing,2026-03-04_13-57-47
1772632668731749400,1.068749267578125,-0.0719144222078844,-0.0490149369291961,-0.0421878673881292,0.0231494382023811,0.0178188439458608,0.0210866015404462,standing,2026-03-04_13-57-47
1772632668741698300,1.0786982421875,-0.1308475996265188,-0.0009296820655465,-0.0560807836621999,0.0282584950327873,0.0117548312991857,0.0129694156348705,standing,2026-03-04_13-57-47
1772632668751646200,1.088646240234375,-0.1377842122229747,-0.01345598616153,-0.0279798938155174,0.0323102287948131,0.0030646701343357,0.0011543007567524,standing,2026-03-04_13-57-47
1772632668761595100,1.09859521484375,-0.1399520029824227,-0.0421321916781365,-0.0066325698822736,0.0310458168387413,0.0040311282500624,-0.0022513228468596,standing,2026-03-04_13-57-47
1772632668771544300,1.10854443359375,-0.1096249615188688,0.0046514790676534,-0.006087210959196,0.030102526769042,0.014206001535058,0.0003505856730043,standing,2026-03-04_13-57-47
1772632668781493200,1.1184931640625,-0.0948478645551018,0.0352735579550266,0.0238157598733901,0.0254203211516141,0.0219729766249656,0.0062367171049118,standing,2026-03-04_13-57-47
1772632668791442200,1.128442138671875,-0.0853213450632989,0.0088866324193775,0.0778624073594808,0.0205587204545736,0.0299693830311298,0.0048561347648501,standing,2026-03-04_13-57-47
1772632668801390000,1.13839013671875,-0.1153449100682511,-0.0084434186965227,0.137519880464673,0.0130305401980876,0.0263984892517328,-0.0002150966320186,standing,2026-03-04_13-57-47
1772632668811339300,1.14833935546875,-0.1131540672267787,-0.027596447455883,0.2032972977548837,0.0088333981111645,0.0040313974022865,-0.0081401318311691,standing,2026-03-04_13-57-47
1772632668821288200,1.1582880859375,-0.0817905771212652,-0.0451375109739601,0.1940957541674375,0.0048085041344165,-0.0153032876551151,-0.0095393005758523,standing,2026-03-04_13-57-47
1772632668831237000,1.168237060546875,-0.0821025291472673,-0.0034977789878845,0.1412327635079622,0.0060383519157767,-0.0147826392203569,-0.0108264070004224,standing,2026-03-04_13-57-47
1772632668841186300,1.178186279296875,-0.0962184222559444,0.0347710152603685,0.0968868413031101,0.0048558777198195,-0.0173802878707647,-0.0143024213612079,standing,2026-03-04_13-57-47
1772632668851134200,1.18813427734375,-0.0963879336039535,0.0209025027751922,0.115343119969964,-0.0027828677557408,-0.0306702610105276,-0.0168542619794607,standing,2026-03-04_13-57-47
1772632668861083400,1.19808349609375,-0.020145875721611,0.0268884453170001,0.0761661248356103,-0.0059666065499186,-0.0332882814109325,-0.0120356092229485,standing,2026-03-04_13-57-47
1772632668871032300,1.2080322265625,-0.0341582901895046,0.0684079119242727,-0.0825379979550838,0.0058863246813416,-0.0043423837050795,-0.0069598909467458,standing,2026-03-04_13-57-47
1772632668880981200,1.217981201171875,-0.0762031871766783,0.1379677703626453,-0.1816641426175832,0.0165844485163688,0.0194034278392791,-0.0038775745779275,standing,2026-03-04_13-57-47
1772632668890930200,1.22793017578125,-0.0937687640815042,0.10268705201447,-0.1302577805072069,0.0214066319167614,0.0132443346083164,-0.0104491915553808,standing,2026-03-04_13-57-47
1772632668900878000,1.237878173828125,-0.0391801004068926,0.0389177596762776,-0.0095323829770088,0.0165981147438287,-0.0047662258148193,-0.0145018082112073,standing,2026-03-04_13-57-47
1772632668910827300,1.2478271484375,0.0028688882335089,0.0446694550707936,0.0554126751422882,0.0073580113239586,-0.0259679183363914,-0.01377609744668,standing,2026-03-04_13-57-47
1772632668920776200,1.257776123046875,0.0455392967078834,0.0718674047283828,-0.0031008886247873,0.0043159369379282,-0.0220409519970417,-0.0088258683681488,standing,2026-03-04_13-57-47
1772632668930725000,1.26772509765625,0.0432376139030791,0.1087159569151699,-0.1082218897879123,0.0079655330628156,0.0007879307959228,-0.003355469321832,standing,2026-03-04_13-57-47
1772632668940674000,1.277674072265625,0.0228811093717813,0.1376036132253706,-0.1202151099205017,0.011099599301815,0.0176891479641199,0.0031822803430259,standing,2026-03-04_13-57-47
1772632668950623200,1.287623291015625,0.0356328745204024,0.1128061488382518,-0.0516144519031047,0.0114668495953083,0.026417126879096,0.0077005992643535,standing,2026-03-04_13-57-47
1772632668960571400,1.2975712890625,-0.0104718375178985,0.0693412472516298,0.0396440281242132,0.0044989590533077,0.0245324056595563,0.008337965235114,standing,2026-03-04_13-57-47
1772632668970520300,1.307520263671875,-0.0413562023369595,0.0009385960243642,0.1235410394728183,-0.0028351200744509,0.0215414110571146,0.0020659542642533,standing,2026-03-04_13-57-47
1772632668980469200,1.31746923828125,-0.0694084490026347,-0.0469368154808878,0.1538075829207897,-0.0090670268982648,0.023501232266426,-0.0044751046225428,standing,2026-03-04_13-57-47
1772632668990418200,1.327418212890625,-0.093748616342619,-0.0682110741779208,0.1489554667145013,-0.0088547728955745,0.0241473168134689,-0.0079563884064555,standing,2026-03-04_13-57-47
1772632669000367000,1.3373671875,-0.0802081850343383,-0.0854117998257279,0.1601239264607429,-0.007683209143579,0.0108183259144425,-0.0116809466853737,standing,2026-03-04_13-57-47
1772632669010315300,1.347315185546875,-0.0537150043789297,-0.1132335804700851,0.2184831764489412,-0.0096512855961918,-0.0193153414875268,-0.0142250638455152,standing,2026-03-04_13-57-47
1772632669020264200,1.35726416015625,-0.0377301755932159,-0.1268935647711157,0.2349596794754266,-0.0172794722020626,-0.0558587051928043,-0.0236764419823884,standing,2026-03-04_13-57-47
1772632669030213000,1.367213134765625,-0.0836750208946876,-0.1039765073031187,0.1141173775672912,-0.0229983441531658,-0.0674706250429153,-0.031528502702713,standing,2026-03-04_13-57-47
1772632669040162000,1.377162109375,-0.201517063274607,-0.03634425592646,-0.0580348403394222,-0.0228120312094688,-0.0520077720284462,-0.0432091988623142,standing,2026-03-04_13-57-47
1772632669050111200,1.387111328125,-0.1989342619734816,0.0283025498986244,-0.2078448780566454,-0.0168305709958076,-0.0287674292922019,-0.0472361631691455,standing,2026-03-04_13-57-47
1772632669060059100,1.39705908203125,-0.1089746991829015,0.0991395886659622,-0.3206517575472593,-0.0011962624266743,0.0111128715798258,-0.0354731120169162,standing,2026-03-04_13-57-47
1772632669070008300,1.40700830078125,-0.0833042513535358,0.1481289527624845,-0.3463350648581981,0.0209873355925083,0.0514254085719585,-0.0239456184208393,standing,2026-03-04_13-57-47
1772632669079957200,1.416957275390625,-0.0338859577878378,0.1710086008295416,-0.2233458140492439,0.0367983095347881,0.0612539388239383,-0.0119225662201642,standing,2026-03-04_13-57-47
1772632669089906200,1.42690625,0.0183094540746882,0.1222268881343305,0.0046364276289939,0.0448604971170425,0.0315064266324043,-0.0048739770427346,standing,2026-03-04_13-57-47
1772632669099855000,1.436855224609375,0.0578558853096328,0.0716414870180189,0.1596826124340295,0.0416859202086925,-0.019389908760786,-0.0068622082471847,standing,2026-03-04_13-57-47
1772632669109803300,1.44680322265625,0.0349873066258616,0.0723474433302879,0.1729196951478719,0.0340357236564159,-0.0373489372432231,-0.0048912023194134,standing,2026-03-04_13-57-47
1772632669119752200,1.456752197265625,-0.0024255466464906,0.1006860874556005,0.1268757368534803,0.025080868974328,-0.0169918648898601,-0.0023051185999065,standing,2026-03-04_13-57-47
1772632669129701000,1.466701171875,-0.0109268330100923,0.1139345683462917,0.167951259085536,0.007827847264707,-0.0110484892502427,-0.0030068615451455,standing,2026-03-04_13-57-47
1772632669139650000,1.476650146484375,-0.0187472427037544,0.0588248216733336,0.2916355064213276,-0.0275276210159063,-0.0338760390877723,-0.0118958204984664,standing,2026-03-04_13-57-47
1772632669149599000,1.486598876953125,0.024918515217211,-0.0018225392520427,0.275362417012453,-0.0527408346533775,-0.0329844132065773,-0.0104214940220117,standing,2026-03-04_13-57-47
1772632669159548200,1.496548095703125,0.0079682571991346,0.0277731191970407,0.1050017586976289,-0.0586503259837627,0.0058314241468906,-0.0093391584232449,standing,2026-03-04_13-57-47
1772632669169496300,1.506496337890625,-0.0138348842102102,0.0799153943665325,-0.0640039778769016,-0.0520185194909572,0.0391265302896499,-0.0031206775456666,standing,2026-03-04_13-57-47
1772632669179445200,1.5164453125,0.0314321166286244,0.0986827848091721,-0.1238356385052204,-0.0403935462236404,0.0402031131088733,0.0074149565771222,standing,2026-03-04_13-57-47
1772632669189394200,1.526394287109375,0.0790816469561308,0.0602042933329939,-0.1490653568297624,-0.016539879143238,0.0289957337081432,0.0132297035306692,standing,2026-03-04_13-57-47
1772632669199343000,1.536343017578125,0.0742361979526467,0.047931525606662,-0.1629606111913919,0.0054602837190032,0.0180574674159288,0.016633965075016,standing,2026-03-04_13-57-47
1772632669209292300,1.546292236328125,0.0402095530524849,0.0272623931959271,-0.1243207916736602,0.0232371501624584,0.0059113227762281,0.0229768175631761,standing,2026-03-04_13-57-47
1772632669219240200,1.556240234375,-0.0516728492931462,-0.0293674026511609,-0.0453933854311704,0.0274316817522048,-0.0200911201536655,0.0074746804311871,standing,2026-03-04_13-57-47
1772632669229189000,1.566189208984375,-0.0916629691749811,-0.0917694982893764,0.0003781856626272,0.0205442160367965,-0.0351773984730243,-0.0068137114867568,standing,2026-03-04_13-57-47
1772632669239138000,1.576137939453125,-0.0904581964951008,-0.1021865551464259,-0.0105839378565549,0.0114643862470984,-0.0179107896983623,-0.0077751548960804,standing,2026-03-04_13-57-47
1772632669249087000,1.5860869140625,-0.1055757409269921,-0.0518231262177228,0.0199269357413053,-0.0049217771738767,-0.0084648244082927,-0.01195764914155,standing,2026-03-04_13-57-47
1772632669259036400,1.596036376953125,-0.1015463575467467,-0.0794618053801357,0.0339502003967761,-0.0189336948096752,-0.0098442044109106,-0.0130522474646568,standing,2026-03-04_13-57-47
1772632669268984000,1.605984130859375,-0.046955922040157,-0.0772200178027153,-0.1038631100565195,-0.0167584232985973,0.0209294185042381,-0.007327517028898,standing,2026-03-04_13-57-47
1772632669278933200,1.615933349609375,-0.0769245967864058,0.0168380298152565,-0.1870107643425464,-0.000831616576761,0.0584625452756881,-0.0011238110018894,standing,2026-03-04_13-57-47
1772632669288882200,1.625882080078125,-0.1184456160299479,0.0258691852718591,-0.1687263351112604,0.0154474880546331,0.0647638514637947,-0.0055236192420125,standing,2026-03-04_13-57-47
1772632669298831000,1.6358310546875,-0.0926000125630758,-0.0449792516723275,-0.0751022949963808,0.0293102823197841,0.0427822545170784,-0.0112026985734701,standing,2026-03-04_13-57-47
1772632669308780300,1.6457802734375,-0.0514028367127291,-0.0745407155908644,0.0059317281365394,0.0447094812989234,0.0273873172700405,-0.0115150874480605,standing,2026-03-04_13-57-47
1772632669318728200,1.655728271484375,-0.0414138690746389,-0.0290415316976606,0.0987824457913637,0.0487892441451549,0.0117030292749404,-0.0157522466033697,standing,2026-03-04_13-57-47
1772632669328677000,1.665677001953125,-0.0301345510987564,-0.0181515966318547,0.2085655935466289,0.0340004451572895,-0.0250395406037569,-0.0221073478460311,standing,2026-03-04_13-57-47
1772632669338626000,1.6756259765625,-0.0135536743823438,-0.0386347049511969,0.2143646352142095,0.0193610023707151,-0.0404070429503917,-0.0273037496954202,standing,2026-03-04_13-57-47
1772632669348575200,1.6855751953125,-0.0228204104267992,0.0403011768586933,0.1141284834831952,0.0075392313301563,-0.0250600464642047,-0.0260483361780643,standing,2026-03-04_13-57-47
1772632669358524200,1.695524169921875,-0.0203581667654216,0.1414315009504556,0.0613292057096958,-0.005044188350439,0.0065471474081277,-0.0162335373461246,standing,2026-03-04_13-57-47
1772632669368473300,1.705473388671875,0.0102097525156103,0.1544847515299916,0.0632768326461315,-0.0173117741942405,0.0220360942184925,-0.0045132311061024,standing,2026-03-04_13-57-47
1772632669378421000,1.7154208984375,0.0558231556393206,0.136889473606646,0.0857253958195447,-0.0274034086614847,0.0238357260823249,0.0012189853005111,standing,2026-03-04_13-57-47
1772632669388370200,1.7253701171875,0.0282366998544894,0.1427609959885478,0.0811655405580997,-0.030482554808259,0.0222884267568588,0.0039239581674337,standing,2026-03-04_13-57-47
1772632669398319400,1.7353193359375,-0.0130795175319537,0.1412111361980438,0.0658838002741336,-0.0302841253578662,0.0150402355939149,0.0010324516333639,standing,2026-03-04_13-57-47
1772632669408268300,1.745268310546875,-0.0130657082023099,0.0966400269351899,0.0297819748014211,-0.02591547742486,0.0061524678021669,-0.0038129035383462,standing,2026-03-04_13-57-47
1772632669418217200,1.75521728515625,0.0341084414320997,0.0967164531722664,-0.0267564895004034,-0.0165068581700325,-0.0017230299999937,0.0007674403022974,standing,2026-03-04_13-57-47
1772632669428165000,1.7651650390625,0.0808739919993095,0.1488853240877389,-0.050536009016633,-0.0028853211551904,-3.91132198274e-05,0.0099345734342932,standing,2026-03-04_13-57-47
1772632669438114000,1.775114013671875,0.0788393443665467,0.1653843312069773,-0.0565513237833976,0.0075962552800774,0.0020131194032728,0.0181087963283061,standing,2026-03-04_13-57-47
1772632669448063200,1.785063232421875,0.0986279493493959,0.1307154611468315,-0.0227039992392063,0.0094034764915704,-0.0035251905210316,0.0259310323745012,standing,2026-03-04_13-57-47
1772632669458012200,1.79501220703125,0.0846833942196331,0.0693934158302843,0.0173041860222816,0.0076421704143285,-0.0120220081880688,0.0318286716938018,standing,2026-03-04_13-57-47
1772632669467961000,1.804961181640625,0.0042086124046705,0.0519276095055043,-0.0089209730803966,0.0024817632511258,-0.0050602387636899,0.0298877619206905,standing,2026-03-04_13-57-47
1772632669477909000,1.814908935546875,-0.042397473284509,0.0240647661983966,-0.0270727158427238,0.0017030229791998,0.0160901863127946,0.0307887475937604,standing,2026-03-04_13-57-47
1772632669487858200,1.824858154296875,-0.0727698151945136,0.0017133797891438,0.0390507384061813,-0.006363958120346,0.0279513746500015,0.0275064017623662,standing,2026-03-04_13-57-47
1772632669497807400,1.834807373046875,-0.0542919092177413,-0.0666790423050522,0.1167038869291543,-0.0182800218462944,0.0210563167929649,0.0256274584680795,standing,2026-03-04_13-57-47
1772632669507756300,1.84475634765625,-0.0158546630674041,-0.0834191647037863,0.0846504600644111,-0.0187982730567455,0.0229831133037805,0.030222475528717,standing,2026-03-04_13-57-47
1772632669517705200,1.854705322265625,-0.0436077989223413,-0.0452121836453676,-0.0111409872174262,-0.0059447679668664,0.0271162074059247,0.0295805446803569,standing,2026-03-04_13-57-47
1772632669527653000,1.864653076171875,-0.0921457842558622,-0.059409635823965,0.0035094694256782,0.0032447353005409,0.0005415875930339,0.0175007116049528,standing,2026-03-04_13-57-47
1772632669537602300,1.874602294921875,-0.1312415308475494,-0.1354251001425087,0.0947936684161424,0.0020090756006538,-0.0392902493476867,0.0015667942352592,standing,2026-03-04_13-57-47
1772632669547551200,1.88455126953125,-0.148067778893467,-0.1441353530816733,0.1554430751681327,-0.0084792524576187,-0.0649612545967102,-0.0108430031687021,standing,2026-03-04_13-57-47
1772632669557500200,1.894500244140625,-0.1625825168603099,-0.0758669957585632,0.1506833134204149,-0.0270907059311866,-0.0797671005129814,-0.0194407124072313,standing,2026-03-04_13-57-47
1772632669567449000,1.904448974609375,-0.0863349790852516,-0.0278662043079733,0.0160953947544097,-0.0333861522376537,-0.0680145695805549,-0.0136592555791139,standing,2026-03-04_13-57-47
1772632669577397000,1.91439697265625,-0.0320024455961771,0.0590470861218869,-0.2224678621709346,-0.0231258906424045,-0.0205752849578857,0.0028251933399587,standing,2026-03-04_13-57-47
1772632669587346200,1.92434619140625,-0.0377955324470065,0.1664355938255786,-0.3427583754152059,-0.0028800084255635,0.0305672623217105,0.0152554968371987,standing,2026-03-04_13-57-47
1772632669597295400,1.93429541015625,-0.0461551818502135,0.1658010953143238,-0.2973363484114408,0.0152763407677412,0.0501353703439235,0.0215373765677213,standing,2026-03-04_13-57-47
1772632669607244300,1.944244384765625,-0.0279941232702694,0.0864440654829144,-0.1791255640506744,0.0284914784133434,0.0305579416453838,0.0201850235462188,standing,2026-03-04_13-57-47
1772632669617193200,1.954193115234375,-0.0346322826431132,0.0410901352792978,-0.0694388624072074,0.0393328703939914,0.0046079689636826,0.0136230643838644,standing,2026-03-04_13-57-47
1772632669627142100,1.96414208984375,-0.0486180648324079,0.0266397312529385,0.0523480268746614,0.0382833182811737,-0.0233544241636991,0.0007498767226934,standing,2026-03-04_13-57-47
1772632669637090300,1.97409033203125,-0.0488847346782684,-0.0116509825661778,0.137657827630639,0.02789500169456,-0.036946665495634,-0.0128390435129404,standing,2026-03-04_13-57-47
1772632669647039500,1.98403955078125,-0.0470395269366912,-0.013895108231157,0.096592242270708,0.0121607789769768,-0.0265989527106285,-0.0165211297571659,standing,2026-03-04_13-57-47
1772632669656988400,1.993988525390625,-0.0340821562133729,0.0439886331997811,0.002377835047245,0.0060132015496492,0.0014713001437485,-0.0150437597185373,standing,2026-03-04_13-57-47
1772632669666937300,2.003937255859375,-0.0067843994431197,0.0977199311263859,-0.0198082777976989,-0.0002457592636346,0.0229917727410793,-0.0062409471720457,standing,2026-03-04_13-57-47
1772632669676886300,2.01388623046875,0.0518590195150114,0.1094863567657768,0.0289928702503442,-0.0068244719877839,0.0243651624768972,0.0040370738133788,standing,2026-03-04_13-57-47
1772632669686834400,2.02383447265625,0.0882466031265445,0.0852332283884286,0.0770113434880971,-0.0130607970058918,0.0093212323263287,0.0078832115978002,standing,2026-03-04_13-57-47
1772632669696783400,2.033783447265625,0.0313300262273289,0.0657949529469013,0.003541618129611,-0.00620350940153,0.0123653560876846,0.0101405046880245,standing,2026-03-04_13-57-47
1772632669706732300,2.043732177734375,-0.0270690260482951,0.0804432176329195,-0.0802975255519151,0.008438816294074,0.0256207082420587,0.0081881415098905,standing,2026-03-04_13-57-47
1772632669716681200,2.05368115234375,-0.0020667963366955,0.0744603438310325,-0.069659811681509,0.0166628994047641,0.0226282458752393,0.0009764132555574,standing,2026-03-04_13-57-47
1772632669726630100,2.063630126953125,0.0460456570611335,0.0573084257610142,0.0100572836339473,0.0192269925028085,0.0051091751083731,0.0030294442549347,standing,2026-03-04_13-57-47
1772632669736578300,2.073578369140625,0.0823047554547898,0.049847734491527,0.045685061854124,0.0181265510618686,-0.0131708960980176,0.0114856250584125,standing,2026-03-04_13-57-47
1772632669746527200,2.08352734375,0.0493438400899991,0.0568660888209939,0.0466693967163562,0.0169694051146507,-0.0228640027344226,0.0137972487136721,standing,2026-03-04_13-57-47
1772632669756476400,2.093476318359375,0.0230066537139005,0.0551841270834207,0.0260176538318395,0.0128880646079778,-0.0215412117540836,0.0131426025182008,standing,2026-03-04_13-57-47
1772632669766425300,2.10342529296875,-0.0261312520078383,0.0347131475932896,-0.00613572627604,0.0093026515096426,-0.0103154545649886,0.0122416550293564,standing,2026-03-04_13-57-47
1772632669776374300,2.113374267578125,-0.0556560371777974,0.0138897014036774,0.0035188217759132,0.0017184778116643,-0.0059626512229442,0.0059047751128673,standing,2026-03-04_13-57-47
1772632669786322400,2.123322509765625,-0.0677638053344562,-0.0251201204702258,0.0072924950957298,-0.0034352717921137,-0.003889113664627,0.004245625808835,standing,2026-03-04_13-57-47
1772632669796271400,2.133271240234375,-0.039543106766697,-0.0421868444748222,-0.0107353290259838,-0.0026821298524737,0.0045911902561783,0.0074677839875221,standing,2026-03-04_13-57-47
1772632669806220300,2.14322021484375,-0.0479893202085047,-0.0221590787075459,0.0011252046376466,-0.0031527103856205,0.007551560178399,0.0089916447177529,standing,2026-03-04_13-57-47
1772632669816169200,2.153169189453125,-0.08044687089473,-0.0089493223920464,-0.0208937349468469,0.0055240401998162,0.0058250334113836,0.0100309932604432,standing,2026-03-04_13-57-47
1772632669826118100,2.1631181640625,-0.0963851205923594,-0.0312272051736712,-0.0349468102186918,0.0103385029360651,0.0008862009271979,0.0028130277059972,standing,2026-03-04_13-57-47
1772632669836067000,2.173067138671875,-0.1016479182250797,-0.0189262342661619,-0.0156482355087995,0.0138928517699241,-0.020670223981142,-0.0071809329092502,standing,2026-03-04_13-57-47
1772632669846015200,2.18301513671875,-0.0985972071512602,-0.0178876849986612,-0.0708072281509637,0.0253577604889869,-0.019440907984972,-0.0152519093826413,standing,2026-03-04_13-57-47
1772632669855964400,2.19296435546875,-0.098154925010167,0.0045405660390853,-0.1450520295351743,0.0364444777369499,-0.0001520330552011,-0.018668632954359,standing,2026-03-04_13-57-47
1772632669865913300,2.202913330078125,-0.0730709900981746,0.0513097698681056,-0.1656412285774946,0.0444989427924156,0.017853332683444,-0.0162438247352838,standing,2026-03-04_13-57-47
1772632669875862300,2.2128623046875,-0.0160356821901164,0.0449853891521692,-0.11167641415596,0.0479442253708839,0.0274215377867221,-0.0120994541794061,standing,2026-03-04_13-57-47
1772632669885811500,2.2228115234375,0.0009867825476452,0.062413347684592,-0.0285422038733959,0.0426567830145359,0.0296495389193296,-0.0064538195729255,standing,2026-03-04_13-57-47
1772632669895759400,2.23275927734375,-0.0078773457789793,0.062961629217118,0.0761450820475816,0.0309714376926422,0.0186604037880897,-0.0048179104924201,standing,2026-03-04_13-57-47
1772632669905708300,2.242708251953125,-0.0246045356309041,0.041745238187164,0.1234451778829097,0.0192972049117088,0.0031954275909811,-0.008501062169671,standing,2026-03-04_13-57-47
1772632669915657200,2.2526572265625,-0.0383123959279619,0.031550153517723,0.1152390750735998,0.0139396535232663,0.0012461270671337,-0.0143905719742178,standing,2026-03-04_13-57-47
1772632669925606100,2.262606201171875,-0.071877542529907,0.0530856934994459,0.0520545968860387,0.0095084197819232,0.0079184109345078,-0.0188457742333412,standing,2026-03-04_13-57-47
1772632669935555300,2.272555419921875,-0.0461491722345352,0.0902900733865797,0.0238935012847185,0.0099314711987972,0.0155872497707605,-0.0199394095689058,standing,2026-03-04_13-57-47
1772632669945503200,2.282503173828125,0.0055579629207029,0.1021095443874597,0.053794134029746,0.0085325120016932,0.0192453674972057,-0.0099959643557667,standing,2026-03-04_13-57-47
1772632669955452200,2.2924521484375,0.0335048860483802,0.1063587262645363,0.1195066693902015,0.0049467692151665,0.009626030921936,-0.0063517214730381,standing,2026-03-04_13-57-47
1772632669965401300,2.3024013671875,0.0068977784234099,0.0891730520553886,0.12305296369493,0.0021491185761988,0.0013334800023585,-0.0067248307168483,standing,2026-03-04_13-57-47
1772632669975350300,2.312350341796875,-0.0626800540630705,0.0661731386095285,0.0288607683032751,0.0073606269434094,0.0072510223835706,-0.0082516781985759,standing,2026-03-04_13-57-47
1772632669985299500,2.322299560546875,-0.1045445347157306,0.0943985316187143,-0.0190939920485019,0.0171552002429962,0.0075399745255708,-0.014351381920278,standing,2026-03-04_13-57-47
1772632669995247400,2.332247314453125,-0.0570472906067967,0.0683824852220714,-0.0195136787652969,0.0188087280839681,0.0011736878659576,-0.0125511419028043,standing,2026-03-04_13-57-47
1772632670005196300,2.3421962890625,0.0152181735284626,0.0584670942768454,-0.0378086293905973,0.023701487109065,0.0142420856282114,-0.0034958615433424,standing,2026-03-04_13-57-47
1772632670015145200,2.352145263671875,0.0037086087269708,0.0735701169930398,-0.0369318465560674,0.0253622103482484,0.0354974418878555,0.0070487698540091,standing,2026-03-04_13-57-47
1772632670025094100,2.36209423828125,-0.0160708448350429,0.0382297774121165,0.0667418784081935,0.0193163026124238,0.0348545536398887,0.0034875913988798,standing,2026-03-04_13-57-47
1772632670035043300,2.372043212890625,-0.0375129709122702,-0.047155572798103,0.1758738687783479,0.004514898173511,0.0097935423254966,-0.0055939690209925,standing,2026-03-04_13-57-47
1772632670044992300,2.3819921875,-0.0665315783920697,-0.1051902670070528,0.2623462835729122,-0.0188788417726755,-0.0210961960256099,-0.0190450623631477,standing,2026-03-04_13-57-47
1772632670054940200,2.391940185546875,-0.0937179289434105,-0.1070759346231818,0.267328163638711,-0.04615443572402,-0.0546243302524089,-0.0279768295586109,standing,2026-03-04_13-57-47
1772632670064889000,2.40188916015625,-0.0899548500828444,-0.0748550422370433,0.1221563071161508,-0.0553186386823654,-0.0580739229917526,-0.0289874989539384,standing,2026-03-04_13-57-47
1772632670074838300,2.41183837890625,-0.1047834215055219,0.0044796296320855,-0.1192693535029888,-0.0486202985048294,-0.0316911824047565,-0.0223403871059417,standing,2026-03-04_13-57-47
1772632670084787500,2.421787353515625,-0.104630258504115,0.0923247940845787,-0.3001005524277687,-0.0253517236560583,-0.020707506686449,-0.0152188288047909,standing,2026-03-04_13-57-47
1772632670094736400,2.431736328125,-0.0462175795619375,0.1240792380027473,-0.3341553822427988,0.0089977858588099,-0.0100323613733053,-0.0061543695628643,standing,2026-03-04_13-57-47
1772632670104684300,2.441684326171875,-0.0520488429986871,0.1546351197861135,-0.3789239137738943,0.0482634305953979,0.025361580774188,0.005160336382687,standing,2026-03-04_13-57-47
1772632670114633200,2.45163330078125,-0.1199154145878739,0.1227842297561466,-0.327519305229187,0.0751952528953552,0.035480797290802,4.87638171762e-05,standing,2026-03-04_13-57-47
1772632670124582400,2.46158251953125,-0.1132141816498711,0.0215516143336892,-0.116762339118123,0.0861752033233642,0.0208730902522802,-0.0108584789559245,standing,2026-03-04_13-57-47
1772632670134531300,2.47153125,-0.0806593263353221,-0.0366262877382338,0.0633376229226589,0.0802596807479858,0.0015529238153249,-0.0146397035568952,standing,2026-03-04_13-57-47
1772632670144480300,2.481480224609375,-0.0240778814082965,-0.023643472046405,0.2160293535560369,0.0586830154061317,-0.0100840246304869,-0.0139451511204242,standing,2026-03-04_13-57-47
1772632670154428200,2.49142822265625,-0.0286958052662201,-0.0413388493433594,0.3270265532761812,0.0241314694285392,-0.0329777561128139,-0.0215323586016893,standing,2026-03-04_13-57-47
1772632670164377000,2.501377197265625,-0.0025001462526619,-0.0869714503578841,0.3112468003422021,-0.0021448754705488,-0.0336760394275188,-0.0224575400352478,standing,2026-03-04_13-57-47
1772632670174326500,2.511326416015625,-0.0076711739487014,-0.0383237393058836,0.1468611247837543,-0.0166899766772985,-9.41099133342e-05,-0.0219496898353099,standing,2026-03-04_13-57-47
1772632670184275500,2.521275390625,-0.0684931607886217,0.0293839153945446,0.058253451526165,-0.0209188107401132,0.0226125344634056,-0.0230836644768714,standing,2026-03-04_13-57-47
1772632670194224400,2.531224365234375,-0.044311234483961,0.0349069165997207,0.0292459682285785,-0.023732554167509,0.0167264174669981,-0.0240350142121315,standing,2026-03-04_13-57-47
1772632670204172300,2.54117236328125,0.0350986397795379,0.0317890768401324,-0.0112988081276416,-0.0173353739082813,0.0130272852256894,-0.0188679490238428,standing,2026-03-04_13-57-47
1772632670214121200,2.551121337890625,0.0517480516875162,0.0727861270084977,-0.0440682743072509,-0.0061126281507313,0.0196770634502172,-0.0094898948445916,standing,2026-03-04_13-57-47
1772632670224070400,2.5610703125,0.0427818877585232,0.0817629219293594,0.000520224481821,0.0006874874234199,-0.0056293569505214,-0.0106241349130868,standing,2026-03-04_13-57-47
1772632670234019300,2.571019287109375,0.0634287900711409,0.0503979157201945,-0.0281476515978574,0.0152736539021134,-0.0300546698272228,-0.0086944494396448,standing,2026-03-04_13-57-47
1772632670243968300,2.58096826171875,0.100526494713407,0.0880995776049792,-0.1464572201579809,0.0388314425945282,-0.0157311260700225,-0.0014043122064322,standing,2026-03-04_13-57-47
1772632670253916200,2.590916259765625,0.0887208513084799,0.1797251373790204,-0.1807517039477825,0.0540661066770553,-0.0044643562287092,0.007197206839919,standing,2026-03-04_13-57-47
1772632670263865300,2.600865234375,0.0964222377323545,0.1530579335972666,-0.0678834496587514,0.0513776428997516,-0.02019564807415,0.0125429704785346,standing,2026-03-04_13-57-47
1772632670273814300,2.610814208984375,0.0849256420102901,0.0817288735292851,0.0177858320593833,0.040023036301136,-0.032187595963478,0.0130535401403903,standing,2026-03-04_13-57-47
1772632670283763500,2.620763427734375,0.0425388179839588,0.0928838892720639,0.0058025487989187,0.0244896169751882,-0.013658121228218,0.0181377809494733,standing,2026-03-04_13-57-47
1772632670293712400,2.63071240234375,0.0286702141672372,0.1104046406544744,-0.0077706340014934,0.0093909194692969,0.0147120002657175,0.0278325714170932,standing,2026-03-04_13-57-47
1772632670303661300,2.640661376953125,0.0478276085744611,0.1087625725358724,-0.0129331313312053,-0.0020673312246799,0.0310449004173278,0.0366316549479961,standing,2026-03-04_13-57-47
1772632670313609500,2.650609375,0.0316237667432054,0.0743675509810447,-0.0378168126970529,-0.0013414160348474,0.0497967526316642,0.0443036630749702,standing,2026-03-04_13-57-47
1772632670323558400,2.660558349609375,-0.0091550010319799,0.0736858523271977,0.0079915832757949,0.0022413344122469,0.0496920906007289,0.045759879052639,standing,2026-03-04_13-57-47
1772632670333507300,2.67050732421875,-0.0415544831217266,0.0466118213102221,0.1027390744626522,0.0016218754462897,0.0308996252715587,0.0370359942317009,standing,2026-03-04_13-57-47
1772632670343456300,2.680456298828125,-0.0628848376538604,-0.0309137553103268,0.1693155331760645,-0.0039518540725111,0.0103642577305436,0.0285453014075756,standing,2026-03-04_13-57-47
1772632670353405200,2.6904052734375,-0.0623796280780807,-0.0376231898210942,0.1994844614684581,-0.0080295149236917,0.0035990290343761,0.0270948596298694,standing,2026-03-04_13-57-47
1772632670363353300,2.700353271484375,-0.0701905392910353,-0.0245903975076973,0.2243997070163488,-0.0153782404959201,-0.0132651720196008,0.021003944799304,standing,2026-03-04_13-57-47
1772632670373302300,2.71030224609375,-0.0693297394769266,-0.037905221632868,0.2332230649411678,-0.0255407392978668,-0.0395250022411346,0.0159185137599706,standing,2026-03-04_13-57-47
1772632670383251500,2.72025146484375,-0.0246012111626565,-0.0249358499445021,0.1058423011749982,-0.0254683010280132,-0.0347675345838069,0.019369438290596,standing,2026-03-04_13-57-47
1772632670393200400,2.730200439453125,-0.0557063243266195,0.0300499780878424,-0.0869505537003278,-0.0136983189731836,-0.0058368165045976,0.0252618063241243,standing,2026-03-04_13-57-47
1772632670403149300,2.7401494140625,-0.106362781385146,0.088459935349971,-0.1835848815470933,0.0073076300323009,0.0195484347641468,0.02764986269176,standing,2026-03-04_13-57-47
1772632670413097500,2.750097412109375,-0.0973284841233864,0.0816055394105613,-0.1533048940956592,0.0181174483150243,0.0133797544986009,0.0223819073289632,standing,2026-03-04_13-57-47
1772632670423046400,2.76004638671875,-0.0458388641763478,0.0317846929259598,-0.0469406148731708,0.0167086366564035,-0.0102195814251899,0.0188849102705717,standing,2026-03-04_13-57-47
1772632670432995300,2.769995361328125,-0.0572088195777498,0.0136944710925221,-0.0130634797126054,0.0153239574283361,-0.0136983357369899,0.0146046914160251,standing,2026-03-04_13-57-47
1772632670442944300,2.7799443359375,-0.0902411744772456,0.0100087683171033,-0.0426081386268138,0.0126474807038903,0.0005732781719416,0.0075017735362052,standing,2026-03-04_13-57-47
1772632670452893200,2.78989306640625,-0.0466431662965565,0.016343962687999,-0.0403963077962398,0.0059412326663732,0.0139788324013352,0.0031337980180978,standing,2026-03-04_13-57-47
1772632670462841300,2.79984130859375,0.0407124062743969,0.037199265320599,-0.0252326409339904,0.00138243380934,0.0186015479266643,0.0115158315747976,standing,2026-03-04_13-57-47
1772632670472790300,2.809790283203125,0.0901923668994568,0.0741116765238344,-0.0241261409968137,0.003942365758121,0.0243674255907535,0.0263642724603414,standing,2026-03-04_13-57-47
1772632670482739200,2.8197392578125,0.0764493439574725,0.1044170906774699,0.0085597385525703,0.0029332940466701,0.0212462022900581,0.0333446860313415,standing,2026-03-04_13-57-47
1772632670492688400,2.8296884765625,0.0677029602590017,0.088388185288012,0.0417296022266149,-0.000140628311783,0.0124749457463622,0.0361181125044822,standing,2026-03-04_13-57-47
1772632670502637300,2.83963720703125,0.0043992396059446,0.0242237561523914,0.1036959367960691,-0.0033782334066927,0.0058561917394399,0.0329050086438655,standing,2026-03-04_13-57-47
1772632670512586200,2.849586181640625,-0.0448481726385652,-0.0032287527881562,0.1028483800560235,-0.004046780988574,0.0163570363074541,0.0239276774227619,standing,2026-03-04_13-57-47
1772632670522534400,2.859534423828125,-0.0729536838614381,-0.0071257602266967,0.0982464392185211,-0.0060851639136672,0.0245585069060325,0.0198141578584909,standing,2026-03-04_13-57-47
1772632670532483300,2.8694833984375,-0.0216916073262691,-0.0225131528422236,0.0933504838705062,-0.006104267667979,0.0267000868916511,0.0191613472998142,standing,2026-03-04_13-57-47
1772632670542432300,2.879432373046875,0.0041220666323788,-0.0147083243101835,0.0749865596622228,-0.0075200046412646,0.0214861501008272,0.024476483464241,standing,2026-03-04_13-57-47
1772632670552381200,2.889381103515625,-0.0155205540085211,-0.022410715381056,0.1261912617206573,-0.0166300516575574,-0.007114868145436,0.0204013977199792,standing,2026-03-04_13-57-47
1772632670562330400,2.899330322265625,-0.0141687192744575,-0.053115211854875,0.1392033035069704,-0.0283032208681106,-0.0426467657089233,0.0194197576493024,standing,2026-03-04_13-57-47
1772632670572278300,2.9092783203125,-0.0505944246729835,-0.0785667562365531,0.0222381352931261,-0.0325358733534812,-0.046464666724205,0.01637514680624,standing,2026-03-04_13-57-47
1772632670582227200,2.919227294921875,-0.1074496633064001,-0.0220559105940163,-0.1327881757676601,-0.0277160871773958,-0.020341457799077,0.0144507475197315,standing,2026-03-04_13-57-47
1772632670592176000,2.929176025390625,-0.1406673847101628,0.0277517841480672,-0.2521194885909557,-0.0161110088229179,0.0137287648394703,0.0128145031630992,standing,2026-03-04_13-57-47
1772632670602125300,2.939125244140625,-0.1363213731287978,0.0397141707509756,-0.296677592241764,0.0007902104407548,0.0438568405807018,0.0145988203585147,standing,2026-03-04_13-57-47
1772632670612074500,2.949074462890625,-0.1234593160061165,0.0368603887550532,-0.251952899852395,0.0183227155357599,0.0611398257315158,0.0145671004429459,standing,2026-03-04_13-57-47
1772632670622022400,2.9590224609375,-0.0877356944623403,0.0311665610276162,-0.1052519340664148,0.025435484945774,0.0556888654828071,0.0167639404535293,standing,2026-03-04_13-57-47
1772632670631971300,2.968971435546875,-0.0405623302792198,0.0100071608819067,0.0636930122315883,0.0292317196726799,0.0315184146165847,0.0168715473264455,standing,2026-03-04_13-57-47
1772632670641920300,2.978920166015625,-0.0332457236555404,-0.0122200146257877,0.1736024167150258,0.0249442979693412,0.0067209210246801,0.0133143616840243,standing,2026-03-04_13-57-47
1772632670651869400,2.988869384765625,-0.0566549668209627,-0.0105364454530179,0.2210153252750635,0.0133627355098724,-0.0140619892627,0.0049433456733822,standing,2026-03-04_13-57-47
1772632670661818600,2.998818603515625,-0.0500068340433761,0.0048942017823457,0.2297404835224151,0.0040640421211719,-0.0197289306670427,0.0017595365643501,standing,2026-03-04_13-57-47
1772632670671766500,3.0087666015625,-0.0619258564285933,0.023559593155235,0.193298466309905,-0.0045493659563362,-0.0215591862797737,0.0014854418113827,standing,2026-03-04_13-57-47
1772632670681715500,3.018715576171875,-0.0910826668026857,0.0147293670982122,0.1435100607901811,-0.0102778244763612,-0.0209671668708324,-0.00723268231377,standing,2026-03-04_13-57-47
1772632670691664400,3.028664306640625,-0.1075638277379795,0.0209358205229043,0.1212321780085563,-0.0198143627494573,-0.0124017745256423,-0.0125527661293745,standing,2026-03-04_13-57-47
1772632670701613300,3.03861328125,-0.095404183263611,0.0231447287440299,0.0924888986051082,-0.0288081225007772,-0.0057334853336215,-0.0193257182836532,standing,2026-03-04_13-57-47
1772632670711562500,3.0485625,-0.0747774834888055,0.0307619257494807,0.079755089238286,-0.0409400686621665,0.0055983969941735,-0.020049650222063,standing,2026-03-04_13-57-47
1772632670721511400,3.058511474609375,-0.0317033713180571,0.0543793865717947,0.0030535423517227,-0.0442056357860565,0.0139356888830661,-0.0104614719748497,standing,2026-03-04_13-57-47
1772632670731459300,3.068459228515625,0.0167826828988268,0.0865720757767558,-0.0443494293361902,-0.0392750799655914,0.0239863265305757,-0.0046918871812522,standing,2026-03-04_13-57-47
1772632670741408300,3.078408203125,0.0060805254900828,0.0978160849772393,-0.1109358249217271,-0.0264066886156797,0.0341524109244346,-0.0042652487754821,standing,2026-03-04_13-57-47
1772632670751357400,3.088357421875,-0.0225526628687046,0.0791926330499351,-0.0954237830132246,-0.0167744476348161,0.0311359874904155,-0.0066109024919569,standing,2026-03-04_13-57-47
1772632670761306600,3.098306640625,-0.016127726121433,0.0530544215783476,-0.0071124623537063,-0.0157834850251674,0.0175227057188749,-0.0105539783835411,standing,2026-03-04_13-57-47
1772632670771255600,3.108255615234375,-0.0126682150510139,0.0116183954708278,0.0769774412184953,-0.0266163498163223,0.0063424836844205,-0.0103859212249517,standing,2026-03-04_13-57-47
1772632670781203500,3.118203369140625,0.0025092976734973,-0.0034353812761604,0.109395609742403,-0.0414062142372131,-0.0056864819489419,-0.010829072445631,standing,2026-03-04_13-57-47
1772632670791152400,3.12815234375,0.0489419264919124,0.016229250267148,0.0905360109716653,-0.045888528227806,-0.0085633601993322,0.0003894390538334,standing,2026-03-04_13-57-47
1772632670801101600,3.1381015625,0.0485767281750217,0.03001724486202,-0.0118207861751317,-0.0421915277838707,0.0015116443391889,0.0075972843915224,standing,2026-03-04_13-57-47
1772632670811050500,3.148050537109375,-0.0253645967505872,0.0420597109638154,-0.0975835913956165,-0.0280232410877943,0.00996904540807,0.0081070140004158,standing,2026-03-04_13-57-47
1772632670820999400,3.15799951171875,-0.059747197215259,-0.0163376790776848,-0.1471007787585258,-0.0120091214776039,0.0057900128886103,-0.0014883559197187,standing,2026-03-04_13-57-47
1772632670830947300,3.167947265625,-0.0493677506885491,-0.0641688130497932,-0.1395481714218854,0.0011498634703457,0.0094104455783963,-0.0062166592106223,standing,2026-03-04_13-57-47
1772632670840896300,3.177896240234375,-0.0513265200735069,-0.0591093377031385,-0.0820487531334161,0.0075800660997629,0.0158973727375268,-0.0084158973768353,standing,2026-03-04_13-57-47
1772632670850845400,3.187845458984375,-0.0399268819198943,-0.0547216241382062,-0.004548749345541,0.0037640237715095,0.0166270844638347,-0.0088496394455432,standing,2026-03-04_13-57-47
1772632670860794600,3.197794677734375,-0.0311697028327733,-0.0733843851625919,0.0795271257013082,-0.0070087295025587,0.0043469835072755,-0.0116981565952301,standing,2026-03-04_13-57-47
1772632670870743600,3.20774365234375,-0.0406735538350418,-0.0781077604226768,0.0757943689137697,-0.012370491400361,-0.0009010466746985,-0.0118135437369346,standing,2026-03-04_13-57-47
1772632670880692500,3.2176923828125,-0.0582530131347477,-0.0292719794526696,0.004656885895133,-0.0142341703176498,-0.0005705484654754,-0.0099003287032246,standing,2026-03-04_13-57-47
1772632670890640400,3.227640380859375,-0.0622104089910164,0.0137923785090446,-0.0956055693209171,-0.0034404401667416,0.0085672922432422,-0.0049764364957809,standing,2026-03-04_13-57-47
1772632670900589600,3.237589599609375,-0.0651260041767731,0.0479325485199689,-0.1521066242218017,0.0115302531048655,0.012323148548603,-0.006190838292241,standing,2026-03-04_13-57-47
1772632670910538500,3.24753857421875,-0.0823501107001677,0.0197751061804592,-0.1115256075084209,0.0196806453168392,0.0025377592537552,-0.0124936178326606,standing,2026-03-04_13-57-47
1772632670920487400,3.2574873046875,-0.0807649421342648,-0.008247019341588,-0.053548050314188,0.0250490475445985,0.0022743723820894,-0.0174865126609802,standing,2026-03-04_13-57-47
1772632670930436400,3.267436279296875,-0.1192098601344041,-0.0133871587090194,0.0192085583388805,0.0222199708223342,0.0056283576413989,-0.0246426928788423,standing,2026-03-04_13-57-47
1772632670940384500,3.277384521484375,-0.1199160721749998,-0.0047904491469264,0.0946148047178983,0.0133822709321975,-0.0016926722601056,-0.0333592183887958,standing,2026-03-04_13-57-47
1772632670950333400,3.28733349609375,-0.0554345764468423,0.0073953709483146,0.1123047751873731,0.0041483454406261,-0.0028235828503966,-0.0300023593008518,standing,2026-03-04_13-57-47
1772632670960282400,3.297282470703125,-0.0019715010023675,0.0805975314117968,0.104651045563817,-0.001372386701405,0.0069755176082253,-0.0218573473393917,standing,2026-03-04_13-57-47
1772632670970231600,3.3072314453125,0.0217306606950238,0.1191230769000947,0.0556979218244552,0.0006044954061508,0.0094642415642738,-0.0134385777637362,standing,2026-03-04_13-57-47
1772632670980180500,3.317180419921875,0.0272947976281866,0.1233421558998525,0.053695349830389,0.0051241461187601,0.0038851853460073,-0.011798869818449,standing,2026-03-04_13-57-47
1772632670990128600,3.327128662109375,0.0019497823609039,0.0975239701628685,0.1097252800881862,0.0074654784984886,-0.0082642883062362,-0.0128060486167669,standing,2026-03-04_13-57-47
1772632671000077600,3.33707763671875,-0.0369748819801956,0.0694959994219243,0.1276549045324325,0.0017260997556149,-0.0222301706671714,-0.0171267613768577,standing,2026-03-04_13-57-47
1772632671010026500,3.347026611328125,-0.0505482657100073,0.0509888673506677,0.1333206752091646,-0.0085777882486581,-0.0218926146626472,-0.0184402037411928,standing,2026-03-04_13-57-47
1772632671019975400,3.356975341796875,-0.0568543801168911,0.0247610778994858,0.1144213289499282,-0.0161571446806192,-0.0121315969154238,-0.0192284993827343,standing,2026-03-04_13-57-47
1772632671029924400,3.36692431640625,-0.0416839181876741,0.0074010700367391,0.0637035336256027,-0.0210260115563869,0.0056205010041594,-0.014747031033039,standing,2026-03-04_13-57-47
1772632671039872500,3.37687255859375,-0.0022381160493008,0.0449444726198911,0.0489268202543258,-0.0241381824016571,0.0174215007573366,-0.0113592240959405,standing,2026-03-04_13-57-47
1772632671049821400,3.386821533203125,0.002840502389241,0.0141492291226983,0.0913753844052553,-0.0301421359181404,0.006256197579205,-0.012043529190123,standing,2026-03-04_13-57-47
1772632671059770400,3.396770263671875,-0.0056960014182142,-0.0314515154488384,0.1130377656370401,-0.0337999872863292,-0.0246596410870552,-0.0198391359299421,standing,2026-03-04_13-57-47
1772632671069719600,3.406719482421875,0.0016674400218762,-0.0472265922077,0.0724117407381534,-0.0373972803354263,-0.0404468588531017,-0.0230635348707437,standing,2026-03-04_13-57-47
1772632671079668500,3.41666845703125,-0.0225546904290094,-0.0224545545227825,-0.0069335986554622,-0.0354491770267486,-0.0335575267672538,-0.0224571321159601,standing,2026-03-04_13-57-47
1772632671089617400,3.426617431640625,-0.037747181526944,0.0233648012354969,-0.0870803175598382,-0.0366019606590271,-0.0181667190045118,-0.021336754783988,standing,2026-03-04_13-57-47
1772632671099565600,3.436565673828125,-0.0131403078084811,0.0231665021844208,-0.1341062726289033,-0.0265080463141202,-0.0057912752963602,-0.0160687565803527,standing,2026-03-04_13-57-47
1772632671109514500,3.446514404296875,0.0154292955284938,0.0560763997480273,-0.2071720933616161,-0.0060192900709807,0.0156872496008873,-0.0044444929808378,standing,2026-03-04_13-57-47
1772632671119463400,3.45646337890625,0.0132692862167023,0.131179717657715,-0.2384492751568555,0.0185912474989891,0.0198162160813808,0.0013758456334471,standing,2026-03-04_13-57-47
1772632671129412400,3.466412353515625,0.0012957571652717,0.1193969254054129,-0.1632768375337124,0.0428146570920944,0.0054188994690775,0.0046556121669709,standing,2026-03-04_13-57-47
1772632671139361300,3.476361328125,0.0415450759725645,0.0774621559955179,-0.0649888972610235,0.0546838343143463,-0.0162970479577779,0.0033823549747467,standing,2026-03-04_13-57-47
1772632671149309400,3.486309326171875,0.0321532887763343,0.049073827509582,0.02530804425776,0.0565921142697334,-0.0304794441908597,0.0034895546268671,standing,2026-03-04_13-57-47
1772632671159258400,3.49625830078125,0.0135586245520971,0.0424763289406895,0.1097194348692894,0.0446174778044223,-0.0322967879474163,-0.0002801499795168,standing,2026-03-04_13-57-47
1772632671169207300,3.506207275390625,0.0118645157190039,0.0159611008502542,0.1932306617707014,0.0194332934916019,-0.026025841012597,-0.0003275542985647,standing,2026-03-04_13-57-47
1772632671179156500,3.516156494140625,-0.0042220564081333,-0.0130162795700132,0.2459165422976016,-0.0127914892509579,-0.0243427231907844,-0.0009214392630383,standing,2026-03-04_13-57-47
1772632671189105400,3.52610546875,-0.053448608527705,-0.0196484110608696,0.1920849988669156,-0.0357448384165763,-0.0113172018900513,-0.0041295671835541,standing,2026-03-04_13-57-47
1772632671199053600,3.536053466796875,-0.1008463560512289,0.0297696998417377,0.0742646751284599,-0.0435199365019798,0.0105971517041325,-0.0074084508232772,standing,2026-03-04_13-57-47
1772632671209002500,3.54600244140625,-0.0832473335345275,0.0701117932327091,-0.0392822090744972,-0.0374096482992172,0.024779150262475,-0.0077993324957787,standing,2026-03-04_13-57-47
1772632671218951400,3.555951416015625,-0.0403540760897099,0.0812147865273058,-0.0858253490626811,-0.0253433994948864,0.0221844334155321,-0.0050930283032357,standing,2026-03-04_13-57-47
1772632671228900400,3.565900390625,0.0108596677917055,0.0746098353043198,-0.0699082334846258,-0.0057152332738041,0.0096509288996458,0.0005392478778958,standing,2026-03-04_13-57-47
1772632671238849300,3.575849365234375,0.0315732786649838,0.0837092336915433,-0.0563385578155517,0.0102030131965875,-0.0073291193693876,0.0058666351251304,standing,2026-03-04_13-57-47
1772632671248798500,3.585798583984375,0.0146582198244519,0.0842637988343834,-0.0207820912659168,0.017963932827115,-0.016449112445116,0.0070525137707591,standing,2026-03-04_13-57-47
1772632671258746400,3.595746337890625,4.66886859387e-05,0.0477772118277847,0.0308726926475763,0.0190355889499187,-0.024226875975728,0.0045912200585007,standing,2026-03-04_13-57-47
1772632671268695300,3.6056953125,-0.0322239245934411,0.0254791630409657,0.0857698194831609,0.0097350627183914,-0.0274996329098939,0.0001437987666577,standing,2026-03-04_13-57-47
1772632671278644200,3.615644287109375,-0.0458639986176043,0.0104402916021645,0.0896703340530395,-0.0004493971355259,-0.0211498569697141,-0.0016732760705053,standing,2026-03-04_13-57-47
1772632671288593400,3.625593505859375,-0.0741513326807878,0.0248733061023056,0.044756256571412,-0.008386205881834,-0.0060948762111365,-0.0044213370420038,standing,2026-03-04_13-57-47
1772632671298542600,3.63554248046875,-0.0563401287181302,0.0367049059323966,0.0330044439792633,-0.0161139015108346,0.0093008577823638,-0.0061230966821312,standing,2026-03-04_13-57-47
1772632671308490500,3.645490478515625,-0.0257651038428768,0.0214376325652003,0.059478609406948,-0.0230527892708778,0.0141412857919931,-0.0018587312661111,standing,2026-03-04_13-57-47
1772632671318439400,3.655439453125,-0.0107119116177782,-0.0061760582864284,0.0455050291121005,-0.0270864143967628,0.0175184402614831,0.002281418768689,standing,2026-03-04_13-57-47
1772632671328388400,3.665388427734375,-0.0042142384278587,-0.0216717335820198,0.013441080853343,-0.0273625049740076,0.0212511289864778,0.0058176633901894,standing,2026-03-04_13-57-47
1772632671338337500,3.675337646484375,-0.0196167372809723,-0.0461937420286238,-0.0172416421800851,-0.0154435262084007,0.0183669254183769,0.0022032209672033,standing,2026-03-04_13-57-47
1772632671348286500,3.685286376953125,-0.0363169295281171,-0.0626344430893659,-0.0587666617453098,-0.0004297224804759,0.0145958885550498,-0.0003590635024011,standing,2026-03-04_13-57-47
1772632671358234400,3.695234375,-0.0330723763826303,-0.0800289377436041,-0.0393260482162237,0.0162994563579559,-0.00091143255122,-0.0047660628333687,standing,2026-03-04_13-57-47
1772632671368183300,3.705183349609375,-0.0230468578601256,-0.0730637749060988,0.011249708288908,0.02486028149724,-0.0246218219399452,-0.0122103132307529,standing,2026-03-04_13-57-47
1772632671378132200,3.71513232421875,-0.0175775961361825,-0.0725900199145078,0.0627665450364351,0.0196527373045682,-0.041760329157114,-0.0158276837319135,standing,2026-03-04_13-57-47
1772632671388081700,3.72508154296875,-0.0308178937204182,-0.0748261084035038,0.0669949763864278,0.0106149083003401,-0.0430993661284446,-0.0144493728876113,standing,2026-03-04_13-57-47
1772632671398030600,3.735030517578125,-0.0274015276719816,-0.0475358042873442,-0.0115770405471324,0.0033599250018596,-0.0302631985396146,-0.012634428218007,standing,2026-03-04_13-57-47
1772632671407978500,3.744978515625,-0.0572230124998837,-0.0087361180327832,-0.0881780496686697,0.0009029703214764,-0.005898468196392,-0.0143227744847536,standing,2026-03-04_13-57-47
1772632671417927400,3.754927490234375,-0.0832143811129964,0.0373236223526299,-0.128724579590559,-0.0048800837248563,0.018283300101757,-0.0126268733292818,standing,2026-03-04_13-57-47
1772632671427876400,3.76487646484375,-0.077719674420543,0.0396280999027192,-0.1095791496157646,-0.0050051743164658,0.0314323939383029,-0.0097787892445921,standing,2026-03-04_13-57-47
1772632671437825500,3.774825439453125,-0.061537934823241,0.0358927127666771,-0.0793769035756588,-0.0050690900534391,0.0348564200103282,-0.0109074376523494,standing,2026-03-04_13-57-47
1772632671447774500,3.7847744140625,-0.0421117516783066,0.0577189062580466,-0.0092436291635036,-0.0021675052121281,0.0334386862814426,-0.0096651427447795,standing,2026-03-04_13-57-47
1772632671457723400,3.794723388671875,-0.0014624737679958,0.0602360036455094,0.0142553198456764,0.0074022975750267,0.0337872914969921,-0.0057542910799384,standing,2026-03-04_13-57-47
1772632671467671300,3.80467138671875,0.0045020971922203,0.0682763944990932,0.0562052868247032,0.0125591121613979,0.020886804908514,-0.0029865112155675,standing,2026-03-04_13-57-47
1772632671477620500,3.814620361328125,-0.0057538325526751,0.0667402709729969,0.1118728135108947,0.0192958451807498,-0.0013101091608405,-0.0052957381121814,standing,2026-03-04_13-57-47
1772632671487569400,3.8245693359375,-0.0059392721221782,0.0523614708781242,0.1529056656450033,0.0181221086531877,-0.020899785682559,-0.0069884550757706,standing,2026-03-04_13-57-47
1772632671497518600,3.8345185546875,-0.0358215654929168,0.0621378917440772,0.1822708763390779,0.0082268677651882,-0.0439845956861972,-0.0107688121497631,standing,2026-03-04_13-57-47
1772632671507467500,3.844467529296875,-0.062574511329364,0.050840983312577,0.1455623171448707,-0.0039671282283961,-0.0341984182596206,-0.0090346476063132,standing,2026-03-04_13-57-47
1772632671517415400,3.85441552734375,-0.0762562142718583,0.0500454490207135,0.0647574265927076,-0.0090092904865741,0.0030312431044876,-0.0081720491871237,standing,2026-03-04_13-57-47
1772632671527364600,3.864364501953125,-0.0541831333473324,0.0696563045501709,0.0198608847677707,-0.0158281587064266,0.0310921743512153,-0.0071718343533575,standing,2026-03-04_13-57-47
1772632671537313500,3.8743134765625,-0.0399332020628266,0.0374918185263872,0.0571983895152807,-0.0221643503755331,0.0327819511294364,-0.0036673806607723,standing,2026-03-04_13-57-47
1772632671547262500,3.884262451171875,0.0043615196777507,-0.0009270517170429,0.1049503207713365,-0.0266975909471511,0.0180779714137315,0.0015389297623187,standing,2026-03-04_13-57-47
1772632671557211400,3.89421142578125,-0.0206617528218776,-0.0380745868504047,0.1536363180071115,-0.0357432849705219,-0.0202459823340177,-0.0061711878515779,standing,2026-03-04_13-57-47
1772632671567159300,3.9041591796875,-0.0881287671668454,-0.0918212284766137,0.1130588084250688,-0.041489765048027,-0.0498974882066249,-0.0174186006188392,standing,2026-03-04_13-57-47
1772632671577108500,3.9141083984375,-0.1267858483466319,-0.1033484385326504,0.0001613280415534,-0.0420636758208274,-0.0508556924760341,-0.0258754696696996,standing,2026-03-04_13-57-47
1772632671587057400,3.924057373046875,-0.1309213772487826,-0.0554997689038515,-0.146940035238862,-0.0330550447106361,-0.0398348644375801,-0.0287880413234233,standing,2026-03-04_13-57-47
1772632671597006300,3.93400634765625,-0.0935884208122268,0.0241493757419288,-0.3383557565420866,-0.0082354471087455,-0.0073083452880382,-0.0210417043417692,standing,2026-03-04_13-57-47
1772632671606955500,3.94395556640625,-0.0414615806738846,0.1144134379044175,-0.4466846138358116,0.024681881070137,0.0295207761228084,-0.0101257991045713,standing,2026-03-04_13-57-47
1772632671616903400,3.9539033203125,0.0147627396448515,0.138651076451689,-0.4056967698872089,0.0539758577942848,0.0532697811722755,0.0034382122103124,standing,2026-03-04_13-57-47
1772632671626852600,3.9638525390625,-0.0054193764339201,0.0727095546409487,-0.2362666704207658,0.0726892501115799,0.0390450395643711,0.0051544634625315,standing,2026-03-04_13-57-47
1772632671636801500,3.973801513671875,-0.0556149014498107,-0.008692717282474,-0.0472995113134384,0.0727334544062614,0.0017538575921207,-0.0081589445471763,standing,2026-03-04_13-57-47
1772632671646750500,3.98375048828125,-0.0352260290188714,-0.0542523991912603,0.088052377462387,0.0694214329123497,-0.0165128968656063,-0.0160884782671928,standing,2026-03-04_13-57-47
1772632671656699600,3.99369970703125,-0.0294376548757776,-0.042124739024043,0.143974755692482,0.0527614913880825,-0.0166132990270853,-0.0212760511785745,standing,2026-03-04_13-57-47
1772632671666648600,4.003648681640625,-0.0156257131497375,-0.0200537769913673,0.2039531313151121,0.0316566228866577,-0.0182115938514471,-0.0206871964037418,standing,2026-03-04_13-57-47
1772632671676596700,4.0135966796875,0.029683154069446,-0.00857420546934,0.2234188792854547,0.0112317744642496,-0.0093842800706624,-0.0147241121158003,standing,2026-03-04_13-57-47
1772632671686545700,4.023545654296875,0.0310946648351848,0.0405881771065294,0.1732528726249933,-0.0044965804554522,0.0028842389583587,-0.008158984594047,standing,2026-03-04_13-57-47
1772632671696494600,4.03349462890625,-0.0106627569801174,0.0629101912908256,0.1375076055049896,-0.0119606219232082,-0.0051206909120082,-0.0072425906546413,standing,2026-03-04_13-57-47
1772632671706443500,4.043443603515625,-0.0228736201850697,0.0318757322102785,0.0840226835548877,-0.0106612425297498,-0.0133111085742712,-0.0093455351889133,standing,2026-03-04_13-57-47
1772632671716392400,4.053392333984375,-0.00765577545017,0.0477551461264491,0.0094885438352823,-0.0002280422486364,-0.014650946483016,-0.0097577925771474,standing,2026-03-04_13-57-47
1772632671726340600,4.063340576171875,-0.0349300782795995,0.0644831396959722,-0.0649608402103185,0.0118776615709066,-0.0012865397147834,-0.0135204335674643,standing,2026-03-04_13-57-47
1772632671736289500,4.07328955078125,-0.0605227664313279,0.0760217479288578,-0.1158311957478523,0.0225129947066307,0.0053852116689085,-0.0152094103395938,standing,2026-03-04_13-57-47
1772632671746238500,4.083238525390625,-0.0178364662680774,0.0646795390509069,-0.0972644424438476,0.0274438615888357,0.0099257677793502,-0.0113364867866039,standing,2026-03-04_13-57-47
1772632671756187600,4.093187744140625,0.0005270926140248,0.0674203621916472,-0.0187456170022487,0.02821378223598,0.0029746512882411,-0.0130773950368165,standing,2026-03-04_13-57-47
1772632671766136600,4.103136474609375,-0.0201537850334309,0.0229101893357932,0.0469353541761636,0.0119676534086465,-0.0144006107002496,-0.0176458247005939,standing,2026-03-04_13-57-47
1772632671776084700,4.113084716796875,-0.0107934889540076,0.0131641636081039,0.0477975239634513,0.0004915595054626,-0.0145343011245131,-0.0137275159358978,standing,2026-03-04_13-57-47
1772632671786033700,4.12303369140625,0.0065524903833866,0.0419340387575328,-0.0284650469839572,-0.0029319338500499,0.006641823798418,-0.0069401832297444,standing,2026-03-04_13-57-47
1772632671795982600,4.132982666015625,-0.001369333858136,0.0751189538702368,-0.055681555211544,-0.0031622974202036,0.0170020535588264,-0.0066184736788272,standing,2026-03-04_13-57-47
1772632671805931500,4.142931640625,0.0330164084116928,0.076868866277486,-0.0547995116800069,0.0028941384516656,0.0179306957870721,-0.0007359574083238,standing,2026-03-04_13-57-47
1772632671815880400,4.15288037109375,0.0538031758527271,0.0770430538006126,-0.0621446137458086,0.0132626229897141,0.0251049865037202,0.0063523123972117,standing,2026-03-04_13-57-47
1772632671825829600,4.16282958984375,0.0123550026496872,0.0984407927468419,-0.0450023402869701,0.0256810449063777,0.0198168810456991,0.0080644451081752,standing,2026-03-04_13-57-47
1772632671835777500,4.172777587890625,-0.0054649691413156,0.0740437258541584,0.0357896907836198,0.0283346194773912,0.0037178061902523,0.0035205592866986,standing,2026-03-04_13-57-47
1772632671845726500,4.1827265625,-0.0262820403890684,0.0108595399275422,0.0908878931492567,0.0251930989325046,-0.0062979436479508,0.0012004687450826,standing,2026-03-04_13-57-47
1772632671855675400,4.19267529296875,-0.0345476730995811,-0.0098886490687727,0.083639821717143,0.0219317935407161,-0.0119470413774251,-0.0027434066869318,standing,2026-03-04_13-57-47
1772632671865624600,4.20262451171875,-0.0444793027935549,0.0077507602572441,0.0712549719184637,0.0163729358464479,-0.0151445642113685,-0.0040130745619535,standing,2026-03-04_13-57-47
1772632671875573800,4.21257373046875,-0.0440479073726572,0.0211197987876832,0.0600035100638866,0.01161147095263,-0.0101388860493898,-0.003429309464991,standing,2026-03-04_13-57-47
1772632671885521700,4.222521728515625,-0.0470878047915175,0.0113603290565311,0.0260457108825445,0.0076018855907022,0.0024699824862182,-0.0009286716813221,standing,2026-03-04_13-57-47
1772632671895470600,4.232470703125,-0.0468270349634811,0.0005681552767753,0.0460392821192741,-0.0002485807053744,0.0004670191556215,-0.0006359902909025,standing,2026-03-04_13-57-47
1772632671905419500,4.24241943359375,-0.0545813936836086,-0.0082236384660005,0.0383037194311618,-0.0031729778274893,-0.0013034460134804,-0.0045619499869644,standing,2026-03-04_13-57-47
1772632671915368400,4.252368408203125,-0.0723338349300436,-0.021064269208163,-0.0124099842399358,0.0017967466264963,0.0054039917886257,-0.0045302584767341,standing,2026-03-04_13-57-47
1772632671925317600,4.262317626953125,-0.0711948940279893,0.004414309310913,-0.0382546195924282,0.0074918828904628,0.0091521218419075,-0.0104143042117357,standing,2026-03-04_13-57-47
1772632671935265500,4.272265625,-0.0867314858558587,0.0066002750478684,0.006497545325756,0.0052777305245399,0.000518153887242,-0.018155314028263,standing,2026-03-04_13-57-47
1772632671945214500,4.28221435546875,-0.0567474674100056,-0.0259473650746047,0.024243045374751,0.005423083435744,-0.0055451998487114,-0.0220980700105428,standing,2026-03-04_13-57-47
1772632671955163400,4.292163330078125,-0.0401230072801932,0.0174606917582452,-0.0309457578837871,0.0097211590036749,0.0135235665366053,-0.0221012644469738,standing,2026-03-04_13-57-47
1772632671965112300,4.3021123046875,-0.0470147395553067,0.078168842960149,-0.0470709632545709,0.0130908424034714,0.022465132176876,-0.0223587751388549,standing,2026-03-04_13-57-47
1772632671975061800,4.312061767578125,-0.0145386668317019,0.0851848592020571,0.0080400985926389,0.0107073131948709,0.0085410606116056,-0.0184684321284294,standing,2026-03-04_13-57-47
1772632671985009700,4.322009765625,0.0341561164987273,0.0780535460174083,0.0280669875770807,0.0103966146707534,-0.0001706732437014,-0.0117587791755795,standing,2026-03-04_13-57-47
1772632671994958600,4.33195849609375,0.025434885507822,0.0858244722798466,-0.0153746792644262,0.0130006540566682,0.016050374135375,-0.0062606832943856,standing,2026-03-04_13-57-47
1772632672004907500,4.341907470703125,-0.0286757671251893,0.0646273704722523,-0.0098445176661014,0.0174359995871782,0.0295639187097549,-0.0107619874179363,standing,2026-03-04_13-57-47
1772632672014856700,4.351856689453125,-0.0337081718018278,0.0197886963143944,0.0811100109785795,0.0119948955252766,0.0275476388633251,-0.0145793613046407,standing,2026-03-04_13-57-47
1772632672024805600,4.3618056640625,0.0182794059962965,-0.0123592769660055,0.1880669953972101,0.0012928275391459,0.0200993083417415,-0.0133212162181735,standing,2026-03-04_13-57-47
1772632672034754600,4.371754638671875,0.0438568600462749,-0.014933072976768,0.2691267374932766,-0.0149021223187446,-0.0062220431864261,-0.0107382163405418,standing,2026-03-04_13-57-47
1772632672044702500,4.381702392578125,0.0411155619814991,-0.0408560342624783,0.273629894131422,-0.0285066533833742,-0.0460201874375343,-0.0158393736928701,standing,2026-03-04_13-57-47
1772632672054651400,4.3916513671875,-0.0327287505767308,-0.029275924975425,0.1026549033105373,-0.0279404651373624,-0.0639001205563545,-0.0296047218143939,standing,2026-03-04_13-57-47
1772632672064600600,4.4016005859375,-0.1401013483252376,-0.011622633254528,-0.1140092410176992,-0.0222694836556911,-0.0487384758889675,-0.0420222021639347,standing,2026-03-04_13-57-47
1772632672074549800,4.4115498046875,-0.1327469852407462,0.0628922172427177,-0.2861462613552809,-0.0124224442988634,-0.01094635669142,-0.0407172515988349,standing,2026-03-04_13-57-47
1772632672084498700,4.421498779296875,-0.0403217629889957,0.1155776593782007,-0.3455927220582961,-0.0038637742400169,0.0260450839996337,-0.0249245110899209,standing,2026-03-04_13-57-47
1772632672094446600,4.431446533203125,0.0357093738227151,0.1222213351763784,-0.275811914345622,0.0014428403228521,0.0484521202743053,-0.0077303433790802,standing,2026-03-04_13-57-47
1772632672104395500,4.4413955078125,0.06584511223156,0.1169305352918803,-0.1860942340195178,0.0078889830037951,0.0474194847047328,0.0079736467450857,standing,2026-03-04_13-57-47
1772632672114344700,4.4513447265625,0.0697814105008728,0.0806486770771443,-0.0953355202078819,0.0203222166746854,0.042177315801382,0.0174068287014961,standing,2026-03-04_13-57-47
1772632672124293600,4.461293701171875,0.0369623147595673,0.0554929007716476,-0.0301110606253147,0.0386415682733058,0.0330890156328678,0.0215829312801361,standing,2026-03-04_13-57-47
1772632672134242600,4.47124267578125,-0.0215980290249921,0.0173170455038547,0.0682552055805921,0.0549406483769416,0.0086254812777042,0.0125873060896992,standing,2026-03-04_13-57-47
1772632672144191500,4.48119140625,-0.0638954394685104,-0.0325860724367201,0.1475228035628795,0.0618682503700256,-0.0215971358120441,0.0012373474892228,standing,2026-03-04_13-57-47
1772632672154139400,4.491139404296875,-0.0867971167042851,-0.0362754284739494,0.2071422827452421,0.0524481162428855,-0.0433727391064167,-0.0117761883884668,standing,2026-03-04_13-57-47
1772632672164088600,4.501088623046875,-0.1114471171784214,-0.0692516692720353,0.2481839027076959,0.0335401743650436,-0.0455552041530609,-0.0197335053235292,standing,2026-03-04_13-57-47
1772632672174037500,4.51103759765625,-0.1003791951972059,-0.0596050122655928,0.2568202136278152,0.0032824042718857,-0.0339680537581443,-0.0264428071677684,standing,2026-03-04_13-57-47
1772632672183986700,4.520986572265625,-0.0578962173200212,-0.0370728624619543,0.2303162375837564,-0.0274966582655906,-0.0176972020417451,-0.0245011635124683,standing,2026-03-04_13-57-47
1772632672193935600,4.530935546875,-0.0036048012926243,-0.0049171442665159,0.1328156482964754,-0.046027198433876,0.0033873098436743,-0.016275992617011,standing,2026-03-04_13-57-47
1772632672203883500,4.540883544921875,-0.0130645574248395,0.0507503824196755,-0.0210118083685636,-0.0481644906103611,0.0271633453667163,-0.0118700442835688,standing,2026-03-04_13-57-47
1772632672213832700,4.550832763671875,-0.0455783866092562,0.0970344330802559,-0.1381751295030117,-0.0355019569396972,0.0418813042342662,-0.0126610035076737,standing,2026-03-04_13-57-47
1772632672223781600,4.56078173828125,-0.0314245361103676,0.0740009096257388,-0.1632744994461536,-0.0186181776225566,0.0334384143352508,-0.0137604000046849,standing,2026-03-04_13-57-47
1772632672233730600,4.57073046875,-0.0213530047553591,0.0439488857112824,-0.1308902331918477,0.0011462066322565,0.0183172542601823,-0.0171801652759313,standing,2026-03-04_13-57-47
1772632672243679500,4.580679443359375,-0.0144972936416976,0.0490774807713925,-0.081683426952362,0.0172895491123199,0.0016562542878091,-0.0206967554986476,standing,2026-03-04_13-57-47
1772632672253627600,4.590627685546875,0.0012019962009042,0.0693549835160374,-0.0236626151382923,0.0219812393188476,-0.011224390938878,-0.0221577659249305,standing,2026-03-04_13-57-47
1772632672263576600,4.60057666015625,0.0258770215184427,0.0764803053513169,0.0411216994613409,0.0205879546701908,-0.0232648067176342,-0.0180609263479709,standing,2026-03-04_13-57-47
1772632672273525500,4.610525390625,0.0861193270405754,0.097228202086687,0.0777308899343013,0.0115832742303609,-0.0268827117979526,-0.0081031005829572,standing,2026-03-04_13-57-47
1772632672283474400,4.620474365234375,0.0597882598780095,0.1274829089663922,0.0652682987242937,0.0028031775727868,-0.0160183496773242,0.0017130572814494,standing,2026-03-04_13-57-47
1772632672293423600,4.630423583984375,0.0156608392620459,0.1429119487665593,-0.0081786302804946,-0.0010887659154832,-0.0009235516190528,0.0042356038466095,standing,2026-03-04_13-57-47
1772632672303371800,4.640371826171875,0.0227423402219079,0.1169800735220313,-0.0304319631427526,-0.0033087637275457,0.012723159044981,0.0069072768092155,standing,2026-03-04_13-57-47
1772632672313320700,4.65032080078125,0.031340456289798,0.1086848311245441,-0.0272761294603347,-0.0031833285465836,0.0213957447558641,0.0111827161163091,standing,2026-03-04_13-57-47
1772632672323269600,4.66026953125,-0.0099020200069993,0.0645541591055691,-0.0088794720262289,-0.0016117738559842,0.0198580287396907,0.0088026179000735,standing,2026-03-04_13-57-47
1772632672333218600,4.670218505859375,-0.0130547118842601,0.0218171334020793,0.0196744222849607,6.14901073276e-05,0.0115375146269798,0.0049713943153619,standing,2026-03-04_13-57-47
1772632672343167500,4.68016748046875,0.0068951115422882,-0.0079582655280828,0.0560492194801569,-0.0031519113108515,-0.0049466546624898,0.0070592556148767,standing,2026-03-04_13-57-47
1772632672353116400,4.690116455078125,0.0412561212296597,-0.0126560679554939,0.0723421826332807,-0.0039830841124057,-0.0200678166002035,0.0095711490139365,standing,2026-03-04_13-57-47
1772632672363064600,4.700064697265625,0.0097311569521203,-0.0161981244765222,-0.015270634368062,0.0027802563272416,-0.0125298732891678,0.0138706685975193,standing,2026-03-04_13-57-47
1772632672373013500,4.710013427734375,-0.0191430736209265,0.0106153559081256,-0.077604633206129,0.0124720316380262,0.0015092468820512,0.0083760349079966,standing,2026-03-04_13-57-47
1772632672382962400,4.71996240234375,-0.0400618151448667,0.0073218673206865,-0.0482160416364669,0.0137690333649516,0.0028441557660698,0.0067625641822814,standing,2026-03-04_13-57-47
1772632672392911600,4.72991162109375,-0.0570873486225493,-0.0144603408984839,0.045187049204111,0.0046730069443583,-0.0148738548159599,0.0024889896158128,standing,2026-03-04_13-57-47
1772632672402860500,4.739860595703125,-0.0351601241758093,-0.0512606700293719,0.0133095634281635,0.0041486304253339,-0.0135065885260701,2.6565976440906525e-07,standing,2026-03-04_13-57-47
1772632672412808700,4.74980859375,-0.0610784823516383,-0.0005624561883509,-0.0627870033025741,0.0083526959642767,0.0033094095997512,-0.0029180261772125,standing,2026-03-04_13-57-47
1772632672422757600,4.759757568359375,-0.0766925963951274,0.0346437356188893,-0.0628448709696531,0.0127450302243232,0.0044268732890486,-0.0082941344007849,standing,2026-03-04_13-57-47
1772632672432706600,4.76970654296875,-0.019197982145939,-0.0129126730650663,-0.0219002816408872,0.0136803314089775,-0.0137015311047434,-0.0065004955977201,standing,2026-03-04_13-57-47
1772632672442655500,4.779655517578125,0.0340764936575666,0.0273128082089126,-0.0613525865852832,0.0228646118193864,-0.0063385553658008,0.0011057453230023,standing,2026-03-04_13-57-47
1772632672452604400,4.7896044921875,-0.0080455419527366,0.1103387358114123,-0.0902566095083951,0.033340685069561,0.0123413894325494,0.0041595920920372,standing,2026-03-04_13-57-47
1772632672462552600,4.799552490234375,-0.0520913121672347,0.1010888230375945,-0.0465367102473974,0.0319607704877853,0.0036178042646497,0.000519007910043,standing,2026-03-04_13-57-47
1772632672472501500,4.80950146484375,-0.042778362360876,0.0439962319843471,0.0339484468311071,0.0260592084378004,-0.0085800066590309,-0.0017124548321589,standing,2026-03-04_13-57-47
1772632672482450400,4.819450439453125,-0.0484381599545478,0.019187953942269,0.057333998593688,0.0241039209067821,-0.0005999768618494,-0.0046894336119294,standing,2026-03-04_13-57-47
1772632672492399400,4.8293994140625,-0.091869141005259,0.0383181863479316,0.0358510655820369,0.0191677510738372,0.0152775235474109,-0.0115654487162828,standing,2026-03-04_13-57-47
1772632672502348500,4.8393486328125,-0.0443575943763367,0.0269235166303813,0.0726256757497787,0.0166219901293516,0.0185374990105628,-0.0086296219378709,standing,2026-03-04_13-57-47
1772632672512297700,4.849297607421875,0.0320496640050783,0.0230399531953036,0.1350613813966512,0.0092040207237005,0.0124633619561791,-0.0012627860996872,standing,2026-03-04_13-57-47
1772632672522245600,4.85924560546875,0.0255023795197717,0.0126243576429784,0.200232649487257,-0.0017367848195135,-0.0094141084700822,0.0002867381554096,standing,2026-03-04_13-57-47
1772632672532194600,4.869194580078125,-0.0333486908396706,-0.0358441974498331,0.2534527830213308,-0.0166765861213207,-0.0382425598800182,-0.0088588232174515,standing,2026-03-04_13-57-47
1772632672542143500,4.8791435546875,-0.0807044989176094,-0.0725039490662515,0.1957996354758739,-0.0294154956936836,-0.0590318627655506,-0.0232125185430049,standing,2026-03-04_13-57-47
1772632672552092700,4.8890927734375,-0.1208244557241909,-0.0411829281292855,0.0801239225506782,-0.0380832850933074,-0.0500564761459827,-0.0279939584434032,standing,2026-03-04_13-57-47
1772632672562041600,4.89904150390625,-0.1098198447701521,0.021166852799803,-0.085978493797779,-0.037588283419609,-0.0172577835619449,-0.0248246286064386,standing,2026-03-04_13-57-47
1772632672571989500,4.908989501953125,-0.07598718807213,0.066365300180763,-0.2060305221110582,-0.0261079259216785,0.0201969146728515,-0.0148492250591516,standing,2026-03-04_13-57-47
1772632672581938400,4.9189384765625,-0.0675598985265009,0.0745391081556677,-0.2552133629530668,-0.0083257351070642,0.0416156537830829,-0.0063364310190081,standing,2026-03-04_13-57-47
1772632672591887400,4.928887451171875,-0.0442807662804611,0.0630922698594629,-0.2267991693735122,0.0137502718716859,0.0440993160009384,-0.0009219584753736,standing,2026-03-04_13-57-47
1772632672601836500,4.93883642578125,-0.0291572122328914,0.0370563497185707,-0.1337988141149282,0.0343035794794559,0.0263536144047975,-0.0013265878660604,standing,2026-03-04_13-57-47
1772632672611785700,4.94878564453125,-0.0056882747694849,-0.0038699733011424,-0.0212426945149898,0.0445000268518924,-0.0057571837678551,-0.0082303006201982,standing,2026-03-04_13-57-47
1772632672621733600,4.958733642578125,-0.0081049987887032,-0.0604186667360365,0.0613952566832304,0.0431929603219032,-0.0253476649522781,-0.0172946508973836,standing,2026-03-04_13-57-47
1772632672631682600,4.9686826171875,-0.0189275494404137,-0.0591087531812489,0.0743991151630878,0.0349496752023696,-0.0152713293209671,-0.0178286153823137,standing,2026-03-04_13-57-47
1772632672641631200,4.97863134765625,0.0205423459596,-0.0304689341522753,0.0826461345046758,0.0219418182969093,-0.0037775277160108,-0.0153410416096448,standing,2026-03-04_13-57-47
1772632672651580200,4.988580078125,0.0596289411304518,-0.0119140174165368,0.1276852996706962,0.0025745118036866,-0.0023948145098984,-0.0103342980146408,standing,2026-03-04_13-57-47
1772632672661529000,4.998529052734375,0.0899856836125254,-0.0061383566245436,0.1170043311804533,-0.0092837298288941,-0.0010539093054831,-0.004713624715805,standing,2026-03-04_13-57-47
1772632672671478000,5.00847802734375,0.0696612912525422,0.0281041047170758,0.0930073695212602,-0.0171800032258033,-0.0043330593034625,-0.0021575225982815,standing,2026-03-04_13-57-47
1772632672681426200,5.01842626953125,0.0268436563272029,0.0458396678939461,0.0714192225694656,-0.0250220838934183,-0.0185649953782558,-0.0087061822414398,standing,2026-03-04_13-57-47
1772632672691375000,5.028375,0.0395013317178934,0.0438952558279037,-0.0217938986569643,-0.0208718162029981,-0.0112458309158682,-0.0054525984451174,standing,2026-03-04_13-57-47
1772632672701324000,5.038323974609375,0.0881636375508271,0.118115361162275,-0.1448953776687383,-0.0045339199714362,0.0182108636945486,0.0090118013322353,standing,2026-03-04_13-57-47
1772632672711273000,5.04827294921875,0.1043492496056482,0.2001822344742715,-0.1742354539215564,0.0124250892549753,0.033827107399702,0.0244831684976816,standing,2026-03-04_13-57-47
1772632672721222100,5.05822216796875,0.1235096762201748,0.1904515524461865,-0.047533320069313,0.0180036835372447,0.0085908584296703,0.0299873203039169,standing,2026-03-04_13-57-47
1772632672731170300,5.06817041015625,0.121868722346425,0.1270896718651056,0.0579389787495136,0.0201360769569873,-0.0174897443503141,0.0352031216025352,standing,2026-03-04_13-57-47
1772632672741119200,5.078119140625,0.0880971481858752,0.1280246146276593,0.0371364292174577,0.0218455549329519,-0.0160720106214284,0.0378277637064456,standing,2026-03-04_13-57-47
1772632672751068200,5.088068115234375,-0.0079615351974032,0.1590878614112734,-0.0112286655008792,0.0203171670436859,-0.0099086575210094,0.0331403352320194,standing,2026-03-04_13-57-47
1772632672761017000,5.09801708984375,-0.0528913399711251,0.1218235680304467,0.0296656549453735,0.0144837601110339,-0.0184574034065008,0.0278790090233087,standing,2026-03-04_13-57-47
1772632672770966000,5.107966064453125,-0.0111290045186877,0.0762669548615813,0.0452425787836313,0.0087465122342109,-0.0122181493788957,0.0308684054762125,standing,2026-03-04_13-57-47
1772632672780914200,5.1179140625,0.0521036419258452,0.1186022678963839,0.0239461082547903,0.0012008058838546,0.0028018117882311,0.0474954023957252,standing,2026-03-04_13-57-47
1772632672790863000,5.127863037109375,0.0683523275458253,0.1114836680628359,-0.0023807576566934,-1.3504177331924438e-08,0.014734105207026,0.0658927857875824,standing,2026-03-04_13-57-47
1772632672800812000,5.13781201171875,0.0464872998814098,0.0559415213219821,-0.0224988320559263,0.0077797849662601,0.0181317664682865,0.0713870748877525,standing,2026-03-04_13-57-47
1772632672810761000,5.147760986328125,-0.0462786803657188,0.0156162329353392,-0.0136065005481243,0.0186018049716949,0.009749200195074,0.0648663267493248,standing,2026-03-04_13-57-47
1772632672820710000,5.1577099609375,-0.1097946372636593,-0.0312774740561842,0.0271802678704261,0.0242984890937805,-0.0058927400968968,0.0547863394021987,standing,2026-03-04_13-57-47
1772632672830659000,5.1676591796875,-0.1348898242220282,-0.0974862685009837,0.073231240427494,0.02426253631711,-0.0274001620709896,0.0419051647186279,standing,2026-03-04_13-57-47
1772632672840607200,5.177607177734375,-0.1754181061011739,-0.1463043676838278,0.1018716439783573,0.0196489468216896,-0.0459079332649707,0.0256683342158794,standing,2026-03-04_13-57-47
1772632672850556200,5.18755615234375,-0.2064978656281717,-0.1509274974398315,0.1110521447777748,0.0095049664378166,-0.0483489893376827,0.0096456911414861,standing,2026-03-04_13-57-47
1772632672860505000,5.197505126953125,-0.2040988599287345,-0.1267884969614446,0.0460123941123485,-0.0007140226662158,-0.0336177125573158,0.0040880236774683,standing,2026-03-04_13-57-47
1772632672870454000,5.2074541015625,-0.1628196500844322,-0.1029861810915172,-0.0044388592302799,-0.0036056833341717,-0.0039852522313594,0.0025079704355448,standing,2026-03-04_13-57-47
1772632672880403000,5.21740283203125,-0.1579351477121934,-0.0753325966209173,-0.059614803007245,-0.0025434964336454,0.0146466204896569,-0.0009879898279905,standing,2026-03-04_13-57-47
1772632672890351000,5.22735107421875,-0.1436382902797311,-0.0418162575967609,-0.0421767614722251,0.0045700729824602,0.0156013639643788,-0.0025166443083435,standing,2026-03-04_13-57-47
1772632672900300000,5.237300048828125,-0.0827089706078171,-0.0052587973110377,-0.0009217910200357,0.0148427626118063,0.0056102504022419,-0.008762190118432,standing,2026-03-04_13-57-47
1772632672910249000,5.2472490234375,-0.0558016561935655,0.0070709612995386,0.0510042110502719,0.0182356294244527,-0.0098893474787473,-0.0093872342258691,standing,2026-03-04_13-57-47
1772632672920198000,5.257197998046875,-0.0392923103434033,0.0389526848591864,0.0915583397567272,0.0198858771473169,-0.0249070487916469,-0.0158808790147304,standing,2026-03-04_13-57-47
1772632672930147000,5.26714697265625,-0.0462543679083697,0.0350682446412742,0.1004664533555507,0.0104207368567585,-0.0307862423360347,-0.0231678206473588,standing,2026-03-04_13-57-47
1772632672940095000,5.277094970703125,-0.0351846740951761,0.0518519139207899,0.0835439601272344,-0.0032238168641924,-0.0255009308457374,-0.0291195213794708,standing,2026-03-04_13-57-47
1772632672950044200,5.287044189453125,0.0249795794883742,0.1051999116182327,0.0063286184996366,-0.0130109330639243,-0.0012744220439344,-0.018112676218152,standing,2026-03-04_13-57-47
1772632672959993000,5.2969931640625,0.0757001147590577,0.1863110916405916,-0.0464431867450475,-0.015500864945352,0.0272821225225925,-0.0015532666584476,standing,2026-03-04_13-57-47
1772632672969942000,5.30694189453125,0.1258056234039366,0.2243225501269102,-0.031333880418539,-0.0119021339341998,0.0453633889555931,0.013315693475306,standing,2026-03-04_13-57-47
1772632672979891000,5.316890869140625,0.1801310695650987,0.1885211689054965,0.0162806881934404,-0.0060230577364563,0.0414356254041194,0.0252754464745521,standing,2026-03-04_13-57-47
1772632672991706000,5.3287060546875,0.1812796550783328,0.162084851270169,0.0827174461752176,-0.0040698954835534,0.0127371363341808,0.0320848822593688,standing,2026-03-04_13-57-47
1772632673001654300,5.338654296875,0.140907952000387,0.0954055167041719,0.2028524765968322,-0.0068891169503331,-0.0217409469187259,0.0305825937539339,standing,2026-03-04_13-57-47
1772632673011603200,5.348603271484375,0.1011529925812967,0.0192177645586431,0.2251338665097951,-0.0135291768237948,-0.0557894594967365,0.0289506074041128,standing,2026-03-04_13-57-47
1772632673021552000,5.35855224609375,0.067062963588722,-0.003065086659044,0.1736912640422582,-0.0213831067085266,-0.0791648253798484,0.0329408198595047,standing,2026-03-04_13-57-47
1772632673031501000,5.3685009765625,0.0570533915540203,-0.0007632394574582,0.0655734191507101,-0.0290072727948427,-0.0866971760988235,0.0355995260179042,standing,2026-03-04_13-57-47
1772632673041450000,5.378449951171875,0.0339888336404226,0.0226015617780387,-0.0912958894282579,-0.0278258938342332,-0.0625151395797729,0.0445466823875904,standing,2026-03-04_13-57-47
1772632673051398100,5.388398193359375,-0.0251980445446446,0.0504557833872735,-0.2770721435397863,-0.0204532146453857,-0.0122351953759789,0.0515360757708549,standing,2026-03-04_13-57-47
1772632673061347000,5.39834716796875,-0.1098476095599122,0.0326588454119861,-0.3362579074800014,-0.0070005222223699,0.0329144410789012,0.0465551652014255,standing,2026-03-04_13-57-47
1772632673071296000,5.4082958984375,-0.1381719876978546,-0.0164946232050657,-0.2749778016090393,0.004195939283818,0.0479959212243557,0.0402405448257923,standing,2026-03-04_13-57-47
1772632673081245000,5.418244873046875,-0.1089192792012356,-0.0462083550758659,-0.1740881544053554,0.0143319303169846,0.0434451140463352,0.037412267178297,standing,2026-03-04_13-57-47
1772632673091194000,5.428194091796875,-0.0665512329406105,-0.0745885002553462,-0.0639250674217939,0.0243628341704607,0.0224420949816703,0.0319121964275836,standing,2026-03-04_13-57-47
1772632673101142300,5.438142333984375,-0.0592860094442963,-0.0902342515461146,0.022109540477395,0.0283146984875202,-0.0133694326505064,0.0242468230426311,standing,2026-03-04_13-57-47
1772632673111091200,5.44809130859375,-0.0232192370186559,-0.0860609113842248,0.0861842455029487,0.0287270601838827,-0.0374059230089187,0.0188919901847839,standing,2026-03-04_13-57-47
1772632673121040100,5.4580400390625,-0.0233203775718808,-0.0702085316054522,0.0843424170285463,0.0236191172152757,-0.035919614136219,0.0157553181052207,standing,2026-03-04_13-57-47
1772632673130989000,5.467989013671875,-0.0501848026924766,-0.0531790708713233,0.0782493608504533,0.014814743772149,-0.0243341997265815,0.0129018807783722,standing,2026-03-04_13-57-47
1772632673140938000,5.47793798828125,-0.0636306145198643,-0.0558744474351406,0.0748521196275949,0.0033066924661397,-0.0160491056740283,0.0096666729077696,standing,2026-03-04_13-57-47
1772632673150887000,5.487886962890625,-0.0774775179614312,-0.0327193434275686,0.056660629376769,-0.0053075989708304,-0.0071211266331374,0.0071131768636405,standing,2026-03-04_13-57-47
1772632673160835000,5.4978349609375,-0.0912767280700616,-0.0159011873565614,0.0039554596275091,-0.0080945966765284,0.0122064985334873,0.0054814587347209,standing,2026-03-04_13-57-47
1772632673170784000,5.507783935546875,-0.082505849251151,0.0299976633787155,-0.0443406615078449,-0.001897420734167,0.0304590053856372,0.007420505862683,standing,2026-03-04_13-57-47
1772632673180733000,5.51773291015625,-0.0470136435767635,0.0642427550688385,-0.0617021306753158,0.0086557930335402,0.0359869301319122,0.0093339029699563,standing,2026-03-04_13-57-47
1772632673190682000,5.52768212890625,-0.0031360878023318,0.0685287618249654,-0.0019739304214715,0.0133541412651538,0.0264070071280002,0.0103589538484811,standing,2026-03-04_13-57-47
1772632673200631000,5.537631103515625,0.0078559193984605,0.0196847975485026,0.0683656802177429,0.0142433708533644,0.0059454077854752,0.0089938174933195,standing,2026-03-04_13-57-47
1772632673210579200,5.5475791015625,-0.0180196956141851,-0.0043830373898148,0.1317348673224449,0.0120885781943798,-0.0164826698601245,-0.0006828351179137,standing,2026-03-04_13-57-47
1772632673220528000,5.557528076171875,-0.0312714644405059,-0.0056363984517753,0.1566495283484459,0.0043193390592932,-0.0431896522641181,-0.0056283250451087,standing,2026-03-04_13-57-47
1772632673230477000,5.56747705078125,0.018792141291406,0.0142450907126069,0.1218488486021757,0.0020639840513467,-0.0471732020378112,-0.0019235027721151,standing,2026-03-04_13-57-47
1772632673240426000,5.577426025390625,0.0300158018236048,0.0631903234064579,-0.0326712665021419,0.001588609535247,-0.02068274281919,0.0080348551273345,standing,2026-03-04_13-57-47
1772632673250375000,5.587375,-0.0072415320934727,0.1146750114500522,-0.0985246716380119,0.0027088597416877,0.0133902747184038,0.0136702442541718,standing,2026-03-04_13-57-47
1772632673260323000,5.597322998046875,0.0029207645512185,0.1241214697092771,-0.0977010802954435,0.0020103128626942,0.029335418716073,0.0213894173502922,standing,2026-03-04_13-57-47
1772632673270272000,5.60727197265625,0.0325267251986078,0.0855218360714614,-0.0391045144200325,0.0009150798432528,0.0284360684454441,0.0256743170320987,standing,2026-03-04_13-57-47
1772632673280221000,5.617220947265625,0.0308646554715931,0.0700473496943712,0.0280301626980304,0.0010442431084811,0.0126661621034145,0.0285814236849546,standing,2026-03-04_13-57-47
1772632673290169900,5.627169921875,0.0116437308414839,0.0347021878078579,0.0594154810428619,0.0032875884789973,-0.0111522199586033,0.0287319049239158,standing,2026-03-04_13-57-47
1772632673300119000,5.637119140625,0.0056573316419497,-0.0002888999439775,0.0327332258224487,0.0076242797076702,-0.0297498721629381,0.0241557955741882,standing,2026-03-04_13-57-47
1772632673310068200,5.647068115234375,-0.0081769863126799,-0.0067564885228872,0.0187198980391025,0.0119223557412624,-0.0317072942852973,0.0202140510082244,standing,2026-03-04_13-57-47
1772632673320016100,5.65701611328125,-0.0471658019311726,0.0072223524689674,-0.0141734867811203,0.0113392574712634,-0.023852165788412,0.0157716777175664,standing,2026-03-04_13-57-47
1772632673330585900,5.6675859375,-0.0617505911932326,0.0211309047035872,-0.0091723174929618,0.0050755026750266,-0.0081775989383459,0.0137838944792747,standing,2026-03-04_13-57-47
1772632673340535000,5.67753515625,-0.0471048655241727,0.0075137366309761,0.0239379249483346,-0.0067854579538106,-0.0016410066746175,0.0131636830046772,standing,2026-03-04_13-57-47
1772632673350484200,5.687484130859375,-0.0355573250661604,-0.0025453005686402,0.0531932455271482,-0.0186048336327075,-0.0023832297883927,0.0103785498067736,standing,2026-03-04_13-57-47
1772632673360433200,5.69743310546875,-0.0090857899869792,-0.0002000526167452,0.0426332730680704,-0.0202103741466999,-0.0007475151214748,0.0125168999657034,standing,2026-03-04_13-57-47
1772632673370382000,5.707382080078125,0.0196212307929992,0.015556903963536,-0.0513332968741655,-0.0137061364948749,0.0092036528512835,0.0128069184720516,standing,2026-03-04_13-57-47
1772632673380330000,5.717330078125,0.0018242562850937,0.0427042924776673,-0.0852040022939443,-0.0022269175387918,0.016350645571947,0.0137694552540779,standing,2026-03-04_13-57-47
1772632673390279200,5.727279052734375,0.0138689874092116,0.0257936358176171,-0.0848684867292642,0.0103149730712175,0.0187554787844419,0.0150493700057268,standing,2026-03-04_13-57-47
1772632673400228000,5.73722802734375,0.0432718997651711,0.0055500353425741,-0.0458048888415098,0.0183549858629703,0.0148093402385711,0.0170694477856159,standing,2026-03-04_13-57-47
1772632673410177000,5.747177001953125,0.0297494242386892,0.0112806879490613,0.0647387218922376,0.019394950941205,0.0007510466966778,0.0172097962349653,standing,2026-03-04_13-57-47
1772632673420126000,5.7571259765625,-0.0022711232697591,-0.0181102417081594,0.1325719026684761,0.0127025675028562,-0.0195510312914848,0.0197388585656881,standing,2026-03-04_13-57-47
1772632673430075100,5.7670751953125,-0.0002260090419091,-0.0284783448569476,0.1377080965131521,0.0068920832127332,-0.0391572229564189,0.0172978062182664,standing,2026-03-04_13-57-47
1772632673440023000,5.77702294921875,-0.0813183564996346,-0.0071012103073298,0.0682587127119302,0.0052879536524415,-0.0256296936422586,0.0128659717738628,standing,2026-03-04_13-57-47
1772632673449972200,5.78697216796875,-0.1129075633861124,0.0191086050957441,-0.014274609068036,0.0059878323227167,0.0019771682564169,0.0068405698984861,standing,2026-03-04_13-57-47
1772632673459921200,5.796921142578125,-0.1411749323735013,0.0327719503976404,-0.0077723875671625,0.0010959086939692,0.0162246767431497,-0.003133628051728,standing,2026-03-04_13-57-47
1772632673469870000,5.8068701171875,-0.0662797955880872,0.0321326295807957,0.04623334338665,-0.0043899365700781,0.0225837733596563,-0.0035727834329009,standing,2026-03-04_13-57-47
1772632673479819000,5.816819091796875,0.026269436635822,0.06197875565961,0.0806231042444706,-0.0164447352290153,0.0193269941955804,0.0041328067891299,standing,2026-03-04_13-57-47
1772632673489767200,5.82676708984375,0.0861296840378083,0.1000004432789981,0.1532756680011749,-0.0314090363681316,-0.0039604855701327,0.0162509884685277,standing,2026-03-04_13-57-47
1772632673499716000,5.836716064453125,0.0958777555921115,0.0717015466421842,0.20086101051867,-0.0506355389952659,-0.0387184657156467,0.0198480207473039,standing,2026-03-04_13-57-47
1772632673509665000,5.8466650390625,0.0541824940265156,0.0392586820684373,0.0978618238151073,-0.0547264218330383,-0.0429116114974021,0.0249162837862968,standing,2026-03-04_13-57-47
1772632673519614000,5.856614013671875,-0.0337610345002263,0.0806020614564418,-0.0706067371428012,-0.0464147813618183,-0.0233793221414089,0.029849074780941,standing,2026-03-04_13-57-47
1772632673529563000,5.86656298828125,-0.0796697490423917,0.087821199055016,-0.1544640010029077,-0.0329040326178073,0.0017824894748628,0.0301574692130088,standing,2026-03-04_13-57-47
1772632673539511000,5.876510986328125,-0.1320459973645396,0.0212665137819945,-0.176513335725665,-0.0158083103597164,0.0248201638460159,0.024969182908535,standing,2026-03-04_13-57-47
1772632673549460200,5.886460205078125,-0.1582131609359756,0.0014680267259478,-0.135759300532937,0.0011014309711754,0.0386699326336383,0.0180095434188842,standing,2026-03-04_13-57-47
1772632673559409200,5.8964091796875,-0.1454632589508779,0.0001617664329707,-0.0277811563730239,0.0144329173490405,0.0289789550006389,0.0115694310516119,standing,2026-03-04_13-57-47
1772632673569358000,5.906358154296875,-0.0688485500975512,-0.030673662944138,0.0904372267723083,0.018102753907442,0.0008072373457252,0.0075959945097565,standing,2026-03-04_13-57-47
1772632673579307000,5.91630712890625,0.0020598368729464,-0.0625925036437809,0.1883493194699287,0.0149001013487577,-0.0268994886428117,0.0086509874090552,standing,2026-03-04_13-57-47
1772632673589256000,5.926255859375,0.0058242491740733,-0.0564506398878991,0.2084188785523176,0.0082003865391016,-0.040543396025896,0.0072269951924681,standing,2026-03-04_13-57-47
1772632673599204000,5.9362041015625,-0.0452587262008339,-0.0518602433577179,0.2397983516782522,-0.0084700286388397,-0.0441967137157917,-0.0008067804155871,standing,2026-03-04_13-57-47
1772632673609153000,5.946153076171875,-0.0636067039213143,-0.0717535690903663,0.2204997769683599,-0.0328869558870792,-0.0371153689920902,-0.0108285220339894,standing,2026-03-04_13-57-47
1772632673619102000,5.95610205078125,-0.0712150052342563,-0.0557819468460977,0.1638414856791496,-0.0543935261666774,-0.0260034706443548,-0.0146111529320478,standing,2026-03-04_13-57-47
1772632673629051000,5.96605078125,-0.0420839686222374,0.0039095746591687,0.0710544809103012,-0.0604908354580402,-0.0149281825870275,-0.0132228471338748,standing,2026-03-04_13-57-47
1772632673639000000,5.976,0.0123065055991522,0.0533899371430277,-0.0780488698422908,-0.0535786524415016,0.0029375052545219,-0.0063397637568414,standing,2026-03-04_13-57-47
1772632673648949200,5.98594921875,0.0360346237217076,0.1229810675024986,-0.1949368811666965,-0.0369322970509529,0.016967037692666,0.0011453167535364,standing,2026-03-04_13-57-47
1772632673658897200,5.995897216796875,0.0465579722311347,0.1167779750786721,-0.2491957100987434,-0.0151182049885392,0.0213503334671258,0.0035111280158162,standing,2026-03-04_13-57-47
1772632673668846000,6.00584619140625,0.0535294004126451,0.0880526697233319,-0.2095019976139068,0.0022165770642459,0.0133225005120038,0.0022921990603208,standing,2026-03-04_13-57-47
1772632673678795000,6.015794921875,0.0540695534376427,0.0598087181441485,-0.1546440337449312,0.0164494160562753,0.0073948334902524,0.000510346610099,standing,2026-03-04_13-57-47
1772632673688744200,6.025744140625,0.058231276226975,0.0259795137785375,-0.0822398917913436,0.0159908197820186,0.0025097972247749,-0.001864127931185,standing,2026-03-04_13-57-47
1772632673698693000,6.035693115234375,0.0542249631950631,-0.0016406068138778,0.0005623100578784,0.0094840675592422,0.0033879748079925,0.0004957278724759,standing,2026-03-04_13-57-47
1772632673708641000,6.04564111328125,0.0636073980410583,0.0118199093922972,0.0480529600292444,-0.0032471749000251,0.0156984366476535,0.0079168919473886,standing,2026-03-04_13-57-47
1772632673718590000,6.05558984375,0.0574634336596354,0.0391940923996269,0.1107546231359243,-0.0169413983821868,0.0129444608464837,0.0111755207180976,standing,2026-03-04_13-57-47
1772632673728539000,6.065538818359375,0.0375171356307342,-0.0010094693034887,0.1210878011018037,-0.0182117260992527,0.0108200572431087,0.0131971258670091,standing,2026-03-04_13-57-47
1772632673738488000,6.075488037109375,0.0035709355556406,-0.0183453656382858,0.0330599735587835,-0.0117919500917196,0.0152223967015743,0.0110840359702706,standing,2026-03-04_13-57-47
1772632673748437200,6.085437255859375,-0.0248695615089498,0.0044458734929561,-0.0334416663527488,-0.0007792464457452,0.0203545745462179,0.0114416982978582,standing,2026-03-04_13-57-47
1772632673758386200,6.09538623046875,-0.0370192325785756,-0.0173626382112503,-0.0411988563507795,0.0103233940899372,0.0175539925694465,0.0095262536779046,standing,2026-03-04_13-57-47
1772632673768334000,6.105333984375,-0.0473027079175226,-0.0404191041499376,0.0284504339367151,0.013938901014626,0.0073607442900538,0.0056859757751226,standing,2026-03-04_13-57-47
1772632673778283000,6.115282958984375,-0.0458056377601809,-0.0384323142468929,0.1127811605274677,0.0082912929356098,-0.0084792021661996,0.0028062309138476,standing,2026-03-04_13-57-47
1772632673788232200,6.125232177734375,-0.0525834430657327,-0.0620617577679455,0.1685784510731697,-0.0001679714769124,-0.0240152850747108,0.0015436266548931,standing,2026-03-04_13-57-47
1772632673798181000,6.13518115234375,-0.0484132264426909,-0.0276133985906839,0.1332113696157932,-0.005430026911199,-0.0211237594485282,0.0040796687826514,standing,2026-03-04_13-57-47
1772632673808130000,6.145130126953125,-0.0694336017102003,0.0220464121133089,0.0410012879520654,-0.0057695796713232,-0.01261549256742,0.0007568430155515,standing,2026-03-04_13-57-47
1772632673818078000,6.155077880859375,-0.1014817313453182,0.0188844409510493,-0.0075011694103479,-0.0080380365252494,-0.0078797275200486,-0.0023096329532563,standing,2026-03-04_13-57-47
1772632673828027100,6.165027099609375,-0.1373655666857957,-0.0020937574088573,-0.0371405208706855,-0.008548829704523,0.0021611885167658,-0.0067113051190972,standing,2026-03-04_13-57-47
1772632673837976000,6.17497607421875,-0.1334183634299784,0.0224295662119984,-0.0706692809849977,-0.0100078424438834,0.0139253055676817,-0.010043941438198,standing,2026-03-04_13-57-47
1772632673847925000,6.184925048828125,-0.0968547291317954,0.0351801805831491,-0.0483937362909317,-0.0127514312043786,0.0230570212006568,-0.0149369668215513,standing,2026-03-04_13-57-47
1772632673857874200,6.194874267578125,-0.0237348035916686,0.0420572267457842,-0.0175718970477581,-0.0137935187667608,0.0317249372601509,-0.0096281394362449,standing,2026-03-04_13-57-47
1772632673867823000,6.204822998046875,0.0409848848065361,0.0428599214307963,0.0039560441493988,-0.0126038845628499,0.0268726609647274,0.0015326356515288,standing,2026-03-04_13-57-47
1772632673877771300,6.214771240234375,0.0690032657352276,0.0563148846790194,0.0533323617368936,-0.0106570273637771,0.0076676756143569,0.0072451173327863,standing,2026-03-04_13-57-47
1772632673887720200,6.22472021484375,0.0458100399406626,0.0542369093611836,0.0700824210077524,-0.0034092348068952,-0.0153830479830503,0.0112004447728395,standing,2026-03-04_13-57-47
1772632673897669000,6.234669189453125,-0.0024688377989456,0.0337136151619255,0.0481423918783664,0.0029749572277069,-0.0256641823798418,0.0074688494205474,standing,2026-03-04_13-57-47
1772632673907618000,6.2446181640625,-0.0531712528910487,0.0259613935999572,-0.0075467621177434,0.0077990069985389,-0.0193642098456621,0.0047747958451509,standing,2026-03-04_13-57-47
1772632673917567000,6.25456689453125,-0.0767496786109171,0.0202931387051939,-0.0104933369636535,0.0071169715374708,-0.0019133144523948,-0.0012436817632988,standing,2026-03-04_13-57-47
1772632673927515100,6.26451513671875,-0.0814142180895432,0.018893354909867,0.0291992064774036,0.0049403700977563,0.0195767972618341,-0.0046277604997158,standing,2026-03-04_13-57-47
1772632673937464000,6.274464111328125,-0.0606155227486975,-0.0016378303349018,0.0882785874336958,-0.0084758838638663,0.0253148451447486,-0.0053455242887139,standing,2026-03-04_13-57-47
1772632673947413000,6.2844130859375,-0.0232118026308715,-0.0250941092461347,0.1997095023959875,-0.024280946701765,-0.004731205292046,-0.0077871102839708,standing,2026-03-04_13-57-47
1772632673957362200,6.294362060546875,0.0092283037302084,-0.0792697899393737,0.1825795038968324,-0.0339401811361312,-0.0333074554800987,-0.010093898512423,standing,2026-03-04_13-57-47
1772632673967311000,6.30431103515625,0.0110137989074923,-0.0510365058846771,0.0862923820525407,-0.0380169488489627,-0.0415619239211082,-0.0101170679554343,standing,2026-03-04_13-57-47
1772632673977260000,6.314260009765625,-0.0356416606150567,-0.0135797586716711,-0.0411088399797677,-0.0352318324148654,-0.0375509373843669,-0.0104222511872649,standing,2026-03-04_13-57-47
1772632673987208200,6.324208251953125,-0.0653819699655287,-0.0135990478940308,-0.130417939504981,-0.0328698754310607,-0.0187575407326221,-0.0131589155644178,standing,2026-03-04_13-57-47
1772632673997157000,6.3341572265625,-0.0569941539137624,0.0109206224650144,-0.2098322524815797,-0.0256493166089057,0.014107066206634,-0.0105779757723212,standing,2026-03-04_13-57-47
1772632674007106000,6.34410595703125,-0.0403961616657674,0.0567215657837688,-0.2213800669342279,-0.0144914695993065,0.0361188910901546,-0.0047091674059629,standing,2026-03-04_13-57-47
1772632674017055000,6.354054931640625,-0.0052912565422244,0.0651711219601333,-0.1846878743529319,-0.0005442760884761,0.0428785271942615,0.003265094012022,standing,2026-03-04_13-57-47
1772632674027004000,6.36400390625,0.028896095344983,0.0486067945197224,-0.1535369492858648,0.018990809097886,0.0354094244539737,0.0055373031646013,standing,2026-03-04_13-57-47
1772632674036952000,6.3739521484375,0.0208341137140989,0.0541914627842605,-0.0796931299179792,0.0341957136988639,0.0175927449017763,0.0046150218695402,standing,2026-03-04_13-57-47
1772632674046901000,6.38390087890625,0.0357527015077881,0.032403409346193,0.0323228914558887,0.0409084744751453,-0.0038433053996413,0.0047079659998416,standing,2026-03-04_13-57-47
1772632674056850000,6.393849853515625,0.0207785476019605,-0.0045586862176656,0.1253863750785589,0.035932719707489,-0.0211866106837987,-0.0011439804220572,standing,2026-03-04_13-57-47
1772632674066799000,6.403799072265625,-0.0346389863785356,-0.0244451438181102,0.1586474241673946,0.0199372414499521,-0.0283324047923088,-0.0101260235533118,standing,2026-03-04_13-57-47
1772632674076748000,6.413748046875,-0.0470991847020573,-0.0212261817716062,0.1768114418894052,0.000949490815401,-0.0189187936484813,-0.0139594329521059,standing,2026-03-04_13-57-47
1772632674086697200,6.423697265625,0.0008097272139973,-0.003871580736339,0.1487573137938976,-0.0202905498445034,-0.0026138559915125,-0.0052029592916369,standing,2026-03-04_13-57-47
1772632674096645000,6.43364501953125,0.0022172376580536,0.0349814431406557,0.0888899973303079,-0.0286318808794021,0.0095860846340656,0.0027710357680916,standing,2026-03-04_13-57-47
1772632674106594000,6.443593994140625,-0.0435091608534567,0.0578232434153556,-0.0188595987707376,-0.0240264795720577,0.0217002723366022,0.0034434837289154,standing,2026-03-04_13-57-47
1772632674116543000,6.45354296875,-0.0518030515440739,0.0436022642306983,-0.0762181472837924,-0.0123558100312948,0.0294562019407749,0.0023123712744563,standing,2026-03-04_13-57-47
1772632674126492000,6.463491943359375,-0.0648450683435425,0.023438304863125,-0.0752870039135217,-0.0006144661456346,0.0251424126327037,0.001470013288781,standing,2026-03-04_13-57-47
1772632674136441000,6.473441162109375,-0.0549042689624242,-0.0102140816308557,-0.0273702374845743,0.0083351898938417,0.0049766865558922,-0.002651693066582,standing,2026-03-04_13-57-47
1772632674146389000,6.483388916015625,-0.0234214815924875,-0.0441024688377976,0.0180593883037567,0.0152450269088149,-0.0132886040955781,-0.0082643050700426,standing,2026-03-04_13-57-47
1772632674156338000,6.493337890625,-0.0047098947240039,-0.0568095363281667,0.0049415480554103,0.0181360431015491,-0.0169214271008968,-0.0098509062081575,standing,2026-03-04_13-57-47
1772632674166286800,6.503286865234375,-0.0465056575220078,-0.0500118390120565,-0.0402455011487007,0.0186273958534002,-0.0070091402158141,-0.0145239541307091,standing,2026-03-04_13-57-47
1772632674176236000,6.513236083984375,-0.0622604586778208,-0.0407476054519414,-0.0211971018075942,0.0128636974841356,0.0022042014170438,-0.0184863861650228,standing,2026-03-04_13-57-47
1772632674186185200,6.523185302734375,-0.0383375669018365,-0.0312020707324147,0.022980478093028,-6.08889386057e-05,0.0074008274823427,-0.0192874651402235,standing,2026-03-04_13-57-47
1772632674196134100,6.533134033203125,-0.0150018456303514,-0.0043235622875392,0.0658610039204359,-0.0115639129653573,0.0129399336874485,-0.0141180604696273,standing,2026-03-04_13-57-47
1772632674206082000,6.54308203125,0.0018264665084891,-0.0010179448708891,0.0698415979892015,-0.019405324012041,0.0169317461550235,-0.0118298726156353,standing,2026-03-04_13-57-47
1772632674216031000,6.553031005859375,0.0057352009174413,0.0185600313022732,0.0655307490527629,-0.0212626364082098,0.0123600326478481,-0.0070840073749423,standing,2026-03-04_13-57-47
1772632674225980200,6.562980224609375,0.0165910510505549,0.0314437705338001,0.0021843583017587,-0.011890972033143,0.0159555654972791,0.0003917517606168,standing,2026-03-04_13-57-47
1772632674235929000,6.57292919921875,0.0034198366471566,0.0805447783112525,-0.0605091214984655,0.0040041510947048,0.0203630961477756,0.0008799512870609,standing,2026-03-04_13-57-47
1772632674245878000,6.5828779296875,-0.0263958760270848,0.0979777052797377,-0.0556213494569063,0.0147340269759297,0.0068893656134605,-0.003934777341783,standing,2026-03-04_13-57-47
1772632674255826000,6.592825927734375,-0.0258265882391482,0.0430428767822682,-0.0020820669710636,0.0244048424065113,-0.0053385375067591,-0.007267624605447,standing,2026-03-04_13-57-47
1772632674265774800,6.60277490234375,0.0038991080640815,0.0360451268494129,0.0208539874583482,0.0259614586830139,-0.0026876267511397,-0.0042244303040206,standing,2026-03-04_13-57-47
1772632674275724300,6.612724365234375,-0.0095745964172296,0.0524408197246491,0.0511363129973411,0.0208193026483058,-0.0047635613009333,-0.0026948517188429,standing,2026-03-04_13-57-47
1772632674285673200,6.622673095703125,-0.0013036116781644,0.0349517786547541,0.1007505309939384,0.0069415709003806,-0.0117439739406108,-0.0010335718980059,standing,2026-03-04_13-57-47
