time,seconds_elapsed,acc_x,acc_y,acc_z,gyr_x,gyr_y,gyr_z,activity,session
1772632289212319000,0.073319091796875,-0.0487103462257422,-0.0120075409188866,-0.053989948862791,-0.0260745882987976,0.0244558025151491,-0.0144055429846048,standing,2026-03-04_13-51-29
1772632289222268000,0.083267822265625,-0.0590695536820217,0.0088745035901665,-0.0421019426703453,-0.0109596811234951,0.0078810527920722,-0.0187148414552211,standing,2026-03-04_13-51-29
1772632289232215800,0.0932158203125,-0.0563201453760266,-0.0031590485528111,-0.0306973360806703,0.0077263885177671,-0.011664418503642,-0.0203830450773239,standing,2026-03-04_13-51-29
1772632289242164700,0.103164794921875,-0.0246094675343483,0.0252440391108393,-0.0455827705234289,0.0286972131580114,-0.0149364676326513,-0.0132130365818738,standing,2026-03-04_13-51-29
1772632289252112600,0.113112548828125,0.0012927797568961,0.0640389030598104,-0.0747469056874513,0.0365756414830684,-0.0065006390213966,-0.0058784252032637,standing,2026-03-04_13-51-29
1772632289262061600,0.1230615234375,0.0055511495874263,0.0918083689950406,0.0003717559218406,0.0268975924700498,-0.0109557285904884,-0.0071900761686265,standing,2026-03-04_13-51-29
1772632289272009700,0.133009765625,-0.0187210305502638,0.03970116513893,0.1118044244498014,0.0044340961612761,-0.0161411687731742,-0.0109619116410613,standing,2026-03-04_13-51-29
1772632289281959000,0.142958984375,-0.0419936051913537,-0.0224001939870417,0.1245025779813528,-0.0176506992429494,0.0025539549533277,-0.0124000180512666,standing,2026-03-04_13-51-29
1772632289291906600,0.152906494140625,-0.048469395343028,-0.0009355272844433,0.0608878916829824,-0.0306450631469488,0.0345201455056667,-0.0051900423131883,standing,2026-03-04_13-51-29
1772632289301855700,0.162855712890625,-0.0479203283592127,0.0326193901844322,0.0425491019159555,-0.035925380885601,0.035806018859148,-0.0025400756858289,standing,2026-03-04_13-51-29
1772632289311804000,0.172803955078125,-0.0425771041677333,0.0162321728765964,0.0492623358190059,-0.0348627790808677,0.0199165344238281,-0.0041100094094872,standing,2026-03-04_13-51-29
1772632289321752800,0.1827529296875,-0.0121036217045038,-0.0285546249635517,0.0468196188420057,-0.0271096266806125,0.0056310668587684,-0.0052677355706691,standing,2026-03-04_13-51-29
1772632289331700700,0.19270068359375,-0.013162464841362,-0.0370022814437746,0.0240817173331975,-0.016808521002531,-0.0052474136464297,-0.0090683326125144,standing,2026-03-04_13-51-29
1772632289341649700,0.202649658203125,-0.0552471823822706,-0.0078732175931334,0.002280804413557,-0.0071562179364264,-0.0071553192101418,-0.0133300740271806,standing,2026-03-04_13-51-29
1772632289351597800,0.212597900390625,-0.056739996489603,-0.0268514743074774,-0.0265337866604328,-0.0007372009567916,0.0016504225786775,-0.0071107940748333,standing,2026-03-04_13-51-29
1772632289361546800,0.222546630859375,-0.0364807052550837,0.0003922141879796,-0.0409381595879793,0.0029840511269867,0.0084025114774703,-0.0025735879316926,standing,2026-03-04_13-51-29
1772632289371494700,0.23249462890625,-0.0222529127371497,0.0338030470110476,-0.0294821150720119,0.0016311653889715,0.0033225314691662,-0.0021703853271901,standing,2026-03-04_13-51-29
1772632289381443800,0.24244384765625,-0.0116084768650121,0.0181124336652457,0.0337052857249975,-0.0070090009830892,-0.0012810828629881,0.0028125336393713,standing,2026-03-04_13-51-29
1772632289391391700,0.252391845703125,-0.0203809631191194,-0.003444587495923,0.0488011480480432,-0.0125963129103183,0.0010925927199423,0.0020452770404517,standing,2026-03-04_13-51-29
1772632289401340700,0.262340576171875,-0.0744313186659477,-0.0332449747368693,0.0437502943992614,-0.0158258005976676,0.0059815682470798,-0.0082217277958989,standing,2026-03-04_13-51-29
1772632289411288800,0.272288818359375,-0.1425095785107463,-0.0268263398662209,0.0164162972718477,-0.0152604114264249,0.003270203480497,-0.0219010543078184,standing,2026-03-04_13-51-29
1772632289421237800,0.28223779296875,-0.1652605769631452,-0.0444356463149189,0.0178150581538677,-0.0159056950360536,0.0121609009802341,-0.0244182739406824,standing,2026-03-04_13-51-29
1772632289431185700,0.292185546875,-0.1076535883806645,-0.0344276086501777,-0.018987609064579,-0.0134380105882883,0.0203181635588407,-0.0229346267879009,standing,2026-03-04_13-51-29
1772632289441134600,0.302134521484375,-0.0814991198940202,0.0141942373082041,-0.0191951143354177,-0.0086199091747403,0.0140861216932535,-0.0178166273981332,standing,2026-03-04_13-51-29
1772632289451082800,0.312082763671875,-0.0380583115690387,0.0400870957165956,-0.0095516721993684,-0.0048249047249555,0.0108626317232847,-0.0131140183657407,standing,2026-03-04_13-51-29
1772632289461031700,0.32203173828125,-0.0185373080138117,0.0477159831598401,0.0016968670457601,-0.0008885292336344,0.0152533976361155,-0.007453900296241,standing,2026-03-04_13-51-29
1772632289470979600,0.3319794921875,-0.0440654978282749,0.0434643170647323,0.012267945420742,0.000364753883332,0.0241177286952734,-0.0111125502735376,standing,2026-03-04_13-51-29
1772632289480927700,0.341927734375,-0.1081960429606027,0.0090891692541539,0.0558797081321477,0.0002934425137937,0.0254247281700372,-0.0188316330313682,standing,2026-03-04_13-51-29
1772632289490876700,0.351876708984375,-0.1150078966662287,-0.0218744165472686,0.0969166519194841,0.0036945652682334,0.0295779276639223,-0.0217179674655199,standing,2026-03-04_13-51-29
1772632289500824600,0.361824462890625,-0.035997013391368,-0.0233342599667608,0.1497866568416357,-0.000470858067274,0.0131710488349199,-0.021188024431467,standing,2026-03-04_13-51-29
1772632289510773800,0.371773681640625,-0.0171304186242632,-0.0330900764361023,0.2227379112839698,-0.0095266718417406,-0.0251465123146772,-0.0267391167581081,standing,2026-03-04_13-51-29
1772632289520721700,0.3817216796875,0.0087021244316361,-0.0569866464607417,0.241007142946124,-0.0190947279334068,-0.0505353808403015,-0.0311794504523277,standing,2026-03-04_13-51-29
1772632289530670600,0.391670654296875,0.0237388039133511,-0.0596412526227533,0.1599257735401391,-0.0259518362581729,-0.0474274717271328,-0.0303101949393749,standing,2026-03-04_13-51-29
1772632289540618800,0.40161865234375,0.0064524640750139,-0.0255406839698553,0.0603524696320295,-0.0339380241930484,-0.0341453626751899,-0.0330036580562591,standing,2026-03-04_13-51-29
1772632289550567700,0.411567626953125,-0.0581422462366521,-0.0006976268753409,-0.028066403055191,-0.0434915795922279,-0.0211960077285766,-0.0341799780726432,standing,2026-03-04_13-51-29
1772632289560515600,0.421515625,-0.056490095115453,0.0036439094603061,-0.1091290677607059,-0.0445278771221637,-0.006950126029551,-0.0281435344368219,standing,2026-03-04_13-51-29
1772632289570464500,0.431464599609375,-0.0151004106339998,0.0317928762324154,-0.1942038907170295,-0.0314999595284462,0.0062333201058208,-0.0108532272279262,standing,2026-03-04_13-51-29
1772632289580412700,0.44141259765625,0.0126505149975419,0.0708510672926902,-0.3026274405568838,-0.0059819179587066,0.0196183919906616,0.0040921024046838,standing,2026-03-04_13-51-29
1772632289590361600,0.451361572265625,-0.01691547896564,0.0758966602444648,-0.3486281442314386,0.0252548307180404,0.0297514498233795,0.0103438729420304,standing,2026-03-04_13-51-29
1772632289600309500,0.4613095703125,-0.0596885988958179,0.0382914444714784,-0.3296522256046533,0.053341269493103,0.029219601303339,0.0076363519765436,standing,2026-03-04_13-51-29
1772632289610259000,0.471259033203125,-0.0993465094149112,-0.0077143737696111,-0.2436222938805818,0.0666898265480995,0.0183605626225471,-0.0019246623851358,standing,2026-03-04_13-51-29
1772632289620206600,0.48120654296875,-0.1313596408018842,-0.057275108013302,-0.1037538044631481,0.0619481317698955,0.0013035661540925,-0.0129356170073151,standing,2026-03-04_13-51-29
1772632289630155800,0.49115576171875,-0.1393043527286499,-0.0891824044056236,0.055163084295392,0.0462424047291278,-1.2301839888e-05,-0.0200049765408039,standing,2026-03-04_13-51-29
1772632289640104000,0.50110400390625,-0.0965929546567611,-0.0868156752742826,0.134752169317007,0.0204233303666114,0.0070095364935696,-0.0214625317603349,standing,2026-03-04_13-51-29
1772632289650052900,0.511052978515625,-0.0556335148187354,-0.0844714502356946,0.1762012010365724,-0.0005450677126646,0.0060015297494828,-0.023852452635765,standing,2026-03-04_13-51-29
1772632289660000800,0.521000732421875,-0.0640030462951399,-0.0786412827774882,0.1443991185843944,-0.0111491493880748,0.0121458042412996,-0.0227226689457893,standing,2026-03-04_13-51-29
1772632289669949700,0.53094970703125,-0.0816842672025784,-0.0463172222778201,0.1165519112378358,-0.0151857025921344,0.0195573810487985,-0.0266665443778038,standing,2026-03-04_13-51-29
1772632289679897900,0.54089794921875,-0.0655464215459302,-0.0488141536600887,0.0656301177740097,-0.0106387622654438,0.0254980102181434,-0.0278462953865528,standing,2026-03-04_13-51-29
1772632289689846800,0.5508466796875,-0.0633101869264617,-0.0046333588890731,0.0358580798447132,-0.0023432821035385,0.027699913829565,-0.0325768664479255,standing,2026-03-04_13-51-29
1772632289699794700,0.560794677734375,-0.0878119928352534,-0.0062098144255578,0.0595505055993795,0.0053270449861884,0.021872378885746,-0.0394039340317249,standing,2026-03-04_13-51-29
1772632289709743600,0.57074365234375,-0.0858670693125575,-0.0061078153558075,0.1028086325675249,0.0087984753772616,0.0036811230238527,-0.0419901311397552,standing,2026-03-04_13-51-29
1772632289719691800,0.58069189453125,-0.0537378372652456,-0.002394493921101,0.1354793145477771,0.0085611967369914,-0.0171995088458061,-0.0428087897598743,standing,2026-03-04_13-51-29
1772632289729640700,0.590640625,-0.0183135822605341,0.0127889005549252,0.1323199737340211,0.0058586210943758,-0.0285618863999843,-0.0402335114777088,standing,2026-03-04_13-51-29
1772632289739588900,0.6005888671875,0.0170337350504472,0.0516420705623924,0.0846089590102434,3.22442501783e-05,-0.0178375076502561,-0.0341212227940559,standing,2026-03-04_13-51-29
1772632289749537800,0.610537841796875,0.0059576297627761,0.1005867187343537,0.0394622418165206,-0.0017528729513287,-0.0062114777974784,-0.0297845304012298,standing,2026-03-04_13-51-29
1772632289759485700,0.620485595703125,-0.0317087050803005,0.0975825684823095,0.0187415253490209,-0.0088406149297952,0.0023589597549289,-0.0375132821500301,standing,2026-03-04_13-51-29
1772632289769434600,0.6304345703125,-0.0814598473295569,0.074457421221584,-0.0001209960311651,-0.0129227079451084,0.0130563443526625,-0.0395513996481895,standing,2026-03-04_13-51-29
1772632289779382800,0.6403828125,-0.0683200875103473,0.0740282360240817,-0.0065577510803937,-0.0150748901069164,0.0143381766974926,-0.0351015999913215,standing,2026-03-04_13-51-29
1772632289789331700,0.650331787109375,-0.0402772845264524,0.107135263594985,-0.0061024085283279,-0.0129358395934104,0.0092531368136405,-0.0296695530414581,standing,2026-03-04_13-51-29
1772632289799279600,0.660279541015625,0.0192909759253263,0.0914089944139122,-0.0230646492451429,-0.0023637553676962,0.0061447503976523,-0.0216297507286071,standing,2026-03-04_13-51-29
1772632289809228500,0.670228515625,0.0402173710327595,0.1067109007030725,-0.0605523761183023,0.0103520397096872,0.0088348090648651,-0.0141811547800898,standing,2026-03-04_13-51-29
1772632289819176700,0.6801767578125,0.0057451560558751,0.103195439928025,-0.066472413817048,0.0184120088815689,0.0057023321278393,-0.0120957205072045,standing,2026-03-04_13-51-29
1772632289829125600,0.690125732421875,-0.0240010167798027,0.0574707767158746,-0.0203641581147909,0.0199204236268997,-0.00106689077802,-0.013637158088386,standing,2026-03-04_13-51-29
1772632289839073500,0.700073486328125,-0.029867534193024,0.0130531044490635,0.0551654223829507,0.0102408528327941,-0.0102369412779808,-0.0178405903279781,standing,2026-03-04_13-51-29
1772632289849021700,0.710021728515625,-0.0425567372331395,-0.0167941906735301,0.1139870291858911,-0.0064435852691531,-0.0129997050389647,-0.0269557908177375,standing,2026-03-04_13-51-29
1772632289858970600,0.719970703125,-0.0717686205290257,-0.0233662625402212,0.1450479378819465,-0.0208317525684833,-0.0091373454779386,-0.0320255868136882,standing,2026-03-04_13-51-29
1772632289868918800,0.729918701171875,-0.0531776095665991,-0.0349614232659339,0.1161456685245037,-0.0351880565285682,-0.0072614145465195,-0.0296212844550609,standing,2026-03-04_13-51-29
1772632289878867700,0.73986767578125,-0.0303147665038704,-0.0016642799504101,0.0497615175127983,-0.0332083217799663,-0.0023901253007352,-0.0252250842750072,standing,2026-03-04_13-51-29
1772632289888815600,0.749815673828125,-0.0037153672613203,0.0343603886328637,-0.0333691856384277,-0.0202485844492912,0.0108820041641592,-0.0155333075672388,standing,2026-03-04_13-51-29
1772632289898764500,0.7597646484375,0.0041829847730696,0.0669641428567469,-0.1115033956766128,-0.0029871864244341,0.0101661812514066,-0.0099930968135595,standing,2026-03-04_13-51-29
1772632289908712700,0.769712646484375,-0.0207185245104134,0.0772368228070437,-0.1123193882346153,0.0100553780794143,-0.0089731588959693,-0.0126282945275306,standing,2026-03-04_13-51-29
1772632289918661600,0.77966162109375,-0.0310972586510702,0.0297032104767858,-0.0615881489068269,0.0186664853245019,-0.0246359016746282,-0.0150031298398971,standing,2026-03-04_13-51-29
1772632289928609500,0.789609619140625,-0.0233996168205514,0.0058639235973358,-0.0501151532560586,0.0199405420571565,-0.0233586486428976,-0.015881972387433,standing,2026-03-04_13-51-29
1772632289938558700,0.799558837890625,-0.0465807685848325,0.0353825712874531,-0.0447697005748748,0.0145003506913781,-0.0124461930245161,-0.0158182792365551,standing,2026-03-04_13-51-29
1772632289948506600,0.809506591796875,-0.055279550281912,0.0463771357715129,-0.0485112251907587,0.0099372901022434,0.0047876546159386,-0.0129388701170682,standing,2026-03-04_13-51-29
1772632289958455800,0.819455810546875,-0.0291022854415699,0.0448360438093543,-0.0631745413154363,0.0045715477317571,0.021653838455677,-0.0081992354243993,standing,2026-03-04_13-51-29
1772632289968403700,0.82940380859375,-0.0311562588293105,0.0671769088245928,-0.0435486343473196,0.0023435470648109,0.0253521725535392,-0.0082631511613726,standing,2026-03-04_13-51-29
1772632289978353000,0.839352783203125,-0.0522124908614903,0.0498630781911313,-0.0140513217061758,0.0049205771647393,0.0223042964935302,-0.0114022623747587,standing,2026-03-04_13-51-29
1772632289988300800,0.84930078125,-0.0505558827608823,0.0211620304942131,0.0142477210611104,0.007128604222089,0.0139070833101868,-0.014189526438713,standing,2026-03-04_13-51-29
1772632289998249700,0.859249755859375,-0.065614627943933,0.0331781931109726,0.0620277093678712,0.0050374581478536,0.0028884417843073,-0.0216164700686931,standing,2026-03-04_13-51-29
1772632290008198000,0.869197998046875,-0.0884461260203272,0.0151893858253955,0.0667816258966922,-2.68090516328e-05,0.0036610250826925,-0.0281606558710336,standing,2026-03-04_13-51-29
1772632290018146800,0.879146728515625,-0.060401167611964,-0.0010372340932488,0.0549216767549514,0.0009006429463624,0.0187207516282796,-0.0225763041526079,standing,2026-03-04_13-51-29
1772632290028094700,0.8890947265625,-0.0258544260941445,0.0442187886938452,0.038318332478404,0.0090427249670028,0.0314304232597351,-0.0106498692184686,standing,2026-03-04_13-51-29
1772632290038043600,0.899043701171875,0.0297657908516004,0.0731118518315255,0.0172644385337829,0.0139484889805316,0.0295730289071798,-0.0016674658982083,standing,2026-03-04_13-51-29
1772632290047991800,0.90899169921875,0.0418001832447946,0.0456726407639682,0.0772977592140436,0.0162963308393955,0.0077745206654071,0.0002281721681356,standing,2026-03-04_13-51-29
1772632290057940700,0.918940673828125,0.040339901433885,0.0155598265729844,0.1605009430795907,0.0110611617565155,-0.0314470194280147,-0.0074426517821848,standing,2026-03-04_13-51-29
1772632290067888600,0.928888671875,-0.0133197194959968,-0.0623456892758607,0.1845581104934215,-0.0041878316551446,-0.0565331988036632,-0.024438414722681,standing,2026-03-04_13-51-29
1772632290077837800,0.938837890625,-0.0835218213606625,-0.0808981217935681,0.1371639066338539,-0.0199571214616298,-0.0530707277357578,-0.0364033915102481,standing,2026-03-04_13-51-29
1772632290087785700,0.94878564453125,-0.1227134295422583,-0.0544298015847802,0.0531511599510908,-0.0368301123380661,-0.0350650958716869,-0.0395672284066677,standing,2026-03-04_13-51-29
1772632290097734700,0.958734619140625,-0.086272362177819,0.0022131460048258,-0.0558650950849056,-0.0471479967236518,-0.0113118281587958,-0.0245107784867286,standing,2026-03-04_13-51-29
1772632290107682800,0.968682861328125,-0.018601203562878,0.0732873545289039,-0.1818915216326713,-0.0365052036941051,0.0245340541005134,-0.002550353994593,standing,2026-03-04_13-51-29
1772632290117631700,0.9786318359375,0.0006818082517012,0.1274462302178144,-0.2726233474373817,-0.0152737963944673,0.0433420911431312,0.0123188225552439,standing,2026-03-04_13-51-29
1772632290127579600,0.98857958984375,-0.0602389262549579,0.1039225851587951,-0.2836725647181272,0.0140617229044437,0.0389601252973079,0.0162405930459499,standing,2026-03-04_13-51-29
1772632290137528600,0.998528564453125,-0.1086353659596294,0.0338283275827765,-0.2536433371573686,0.0417133942246437,0.0272330604493618,0.0062293829396367,standing,2026-03-04_13-51-29
1772632290147476700,1.008476806640625,-0.1339675582779571,-0.0204173496067523,-0.1692898142129182,0.063479408621788,0.0079041039571166,-0.0053218118846416,standing,2026-03-04_13-51-29
1772632290157425700,1.01842578125,-0.1202144888659939,-0.0433349915966391,-0.0293377381652593,0.0606312341988086,-0.0182136185467243,-0.0173799265176057,standing,2026-03-04_13-51-29
1772632290167373600,1.02837353515625,-0.0769364881535992,-0.0451044854871928,0.0742781191319227,0.0470440536737442,-0.0270957946777343,-0.0185714233666658,standing,2026-03-04_13-51-29
1772632290177322800,1.03832275390625,-0.0162817476393654,-0.0333433205448091,0.1260346098542213,0.0285544469952583,-0.0121734673157334,-0.0155827049165964,standing,2026-03-04_13-51-29
1772632290187270700,1.048270751953125,0.0046514425350353,0.0018086568571627,0.152145202666521,0.0078627504408359,0.0034238675143569,-0.0102435993030667,standing,2026-03-04_13-51-29
1772632290197219600,1.058219482421875,0.0005185805140063,0.0436940341673791,0.1353659173011779,-0.0097695207223296,0.0184299536049366,-0.0123919574543833,standing,2026-03-04_13-51-29
1772632290207167700,1.068167724609375,-0.0321182722618803,0.0303000073261558,0.1463169349044561,-0.0225489661097526,0.0212896540760993,-0.0141278058290481,standing,2026-03-04_13-51-29
1772632290217115600,1.07811572265625,-0.0115922381162643,0.0146067636318504,0.1350871003597974,-0.0269065368920564,0.0161430910229682,-0.0142319863662123,standing,2026-03-04_13-51-29
1772632290227064600,1.088064697265625,0.0038728228453546,0.0554454083681106,0.0813525875627994,-0.0167369917035102,0.004863005131483,-0.0110319312661886,standing,2026-03-04_13-51-29
1772632290237012700,1.0980126953125,0.0314663476917892,0.1061063589386641,-0.0005617255359888,0.0034504658542573,-0.0002370725851505,-0.0019021406769752,standing,2026-03-04_13-51-29
1772632290246961700,1.107961669921875,0.0639031478509306,0.1381825821571052,-0.07859130615592,0.0255041029304265,-0.0031162160448729,0.0066039962694048,standing,2026-03-04_13-51-29
1772632290256909300,1.117909423828125,0.0661432914605364,0.1385531690351664,-0.0746674107104539,0.036867182701826,-0.0219268985092639,0.0131108332425355,standing,2026-03-04_13-51-29
1772632290266858200,1.127858154296875,0.0883459901141002,0.142403414722532,0.0013724573969841,0.0384443067014217,-0.0363726839423179,0.0167812015861272,standing,2026-03-04_13-51-29
1772632290276806400,1.137806396484375,0.0918686478149145,0.1017893725223839,0.0159352357566356,0.0326972417533397,-0.0212318543344736,0.0205127354711294,standing,2026-03-04_13-51-29
1772632290286755600,1.147755615234375,0.0100056995771825,0.10912146897614,0.0060451253831386,0.016364075243473,-0.009790115058422,0.019922312349081,standing,2026-03-04_13-51-29
1772632290296703200,1.157703125,-0.0147771882953122,0.0971009224452078,0.0683890610933303,-0.0042640254832804,-0.0128259882330894,0.0205083154141902,standing,2026-03-04_13-51-29
1772632290306652700,1.167652587890625,-0.0048061947053298,0.0413223365999758,0.0356482364863157,-0.016834944486618,0.0012365675065666,0.0229922458529472,standing,2026-03-04_13-51-29
1772632290316600600,1.1776005859375,-0.0161063910724595,0.0466813794150948,-0.0137894558995962,-0.0205301102250814,0.0205790270119905,0.0332098118960857,standing,2026-03-04_13-51-29
1772632290326549500,1.187549560546875,-0.0091731942757964,0.0738099170982837,-0.0340916546940803,-0.0127978883683681,0.0039848713204264,0.0454499647021293,standing,2026-03-04_13-51-29
1772632290336497700,1.19749755859375,0.0240805848220363,0.0726737526752054,0.0009270517170429,0.0015293769538402,-0.0340065993368625,0.0466923341155052,standing,2026-03-04_13-51-29
1772632290346446600,1.207446533203125,0.019227116908878,0.0002418459318578,-0.0786158560752868,0.0289945565164089,-0.027637118473649,0.0414317920804023,standing,2026-03-04_13-51-29
1772632290356394500,1.21739453125,-0.0843591489676386,-0.0155086809076368,-0.2177384955614805,0.0554535761475563,0.0108806556090712,0.0352194681763649,standing,2026-03-04_13-51-29
1772632290366343400,1.227343505859375,-0.1516672098912298,0.0348925958134234,-0.1965004772216081,0.062690183520317,0.0182328447699546,0.027391105890274,standing,2026-03-04_13-51-29
1772632290376291600,1.23729150390625,-0.1187184781545773,0.002169891384989,-0.0319523045778274,0.0473442636430263,-0.0064201280474662,0.0258773416280746,standing,2026-03-04_13-51-29
1772632290386240500,1.247240478515625,-0.0095533526998013,-0.0418051516808569,0.0958364554673433,0.0221203975379467,-0.0173023361712694,0.0265790857374668,standing,2026-03-04_13-51-29
1772632290396188400,1.2571884765625,0.0210421304415911,-0.0273882115326821,0.1500543678671121,-9.14297997951e-05,-0.0109285935759544,0.0339272804558277,standing,2026-03-04_13-51-29
1772632290406137300,1.267137451171875,-0.0272494971817359,0.0271693080849945,0.1412123052418231,-0.0129345245659351,-0.0050198379904031,0.0310609191656112,standing,2026-03-04_13-51-29
1772632290416085500,1.27708544921875,-0.0558055103847756,0.0221093943469226,0.0532937832921743,-0.0142784267663955,-0.000361916841939,0.0300957132130861,standing,2026-03-04_13-51-29
1772632290426034400,1.287034423828125,-0.0631297888582572,0.0170062259890139,-0.0409936891674995,-0.0061179692856967,0.0083732511848211,0.0308166313916444,standing,2026-03-04_13-51-29
1772632290435982600,1.296982666015625,-0.0761042020479217,0.054532677437365,-0.0862456203013658,0.010375608690083,0.0129911489784717,0.0299732722342014,standing,2026-03-04_13-51-29
1772632290445931500,1.306931640625,-0.0620467793945223,0.0674836366862058,-0.0727688836127519,0.0239342935383319,0.0077327378094196,0.032658003270626,standing,2026-03-04_13-51-29
1772632290455879400,1.31687939453125,-0.0621098712259903,0.0635996348597109,-0.0388952555835247,0.0299217626452446,0.0007913215085864,0.0309130568057298,standing,2026-03-04_13-51-29
1772632290465828400,1.326828369140625,-0.0848250494463369,0.0495583961561322,0.0529021536260843,0.0223565194755792,-0.0081670191138982,0.0249560978263616,standing,2026-03-04_13-51-29
1772632290475776500,1.336776611328125,-0.0943001127455383,0.0169853293314576,0.1437199041485786,0.0081237191334366,-0.0258431658148765,0.0168448314070701,standing,2026-03-04_13-51-29
1772632290485725400,1.346725341796875,-0.0923463483292609,-0.0140305711790919,0.1350613813966512,0.0021790107712149,-0.0180723275989294,0.0191282257437706,standing,2026-03-04_13-51-29
1772632290495673300,1.35667333984375,-0.084500018743053,0.0290783565767109,0.0463110847979784,0.0026771924458444,0.0050338609144091,0.0254056975245475,standing,2026-03-04_13-51-29
1772632290505622300,1.366622314453125,-0.0952720813165418,0.075335957621783,-0.0121305827766656,0.004311041906476,0.0100962640717625,0.0297450497746467,standing,2026-03-04_13-51-29
1772632290515570400,1.3765703125,-0.0984646485464647,0.0422305374860763,0.0111374800860881,0.0039445189759135,-0.0067681507207453,0.0267577078193426,standing,2026-03-04_13-51-29
1772632290525518300,1.386518310546875,-0.1096163215546868,-0.0176624979406595,0.057091422009468,0.0011356826871633,-0.0182913821190595,0.0217475034296512,standing,2026-03-04_13-51-29
1772632290535467300,1.39646728515625,-0.1295913159551099,-0.0289835179001092,0.0454214424818754,0.004667711444199,-0.0099640972912311,0.0171183496713638,standing,2026-03-04_13-51-29
1772632290545415400,1.40641552734375,-0.1608639129067771,-0.0530456537500023,0.0133265145629644,0.0119546521455049,-0.0163303837180137,0.0052124233916401,standing,2026-03-04_13-51-29
1772632290555364400,1.4163642578125,-0.1412996181990951,-0.0422708694964647,0.006329787543416,0.0140738394111394,-0.0231217052787542,0.005652162246406,standing,2026-03-04_13-51-29
1772632290565312500,1.4263125,-0.0559160580871626,-0.0128567050941288,0.0168359839886426,0.0123007073998451,-0.0191839560866355,0.0190127082169055,standing,2026-03-04_13-51-29
1772632290575261400,1.436261474609375,-0.0119986452263779,0.0321966347277164,0.0004161795854568,0.0092193512246012,-0.0060378396883606,0.029821541160345,standing,2026-03-04_13-51-29
1772632290585209300,1.446209228515625,-0.040326384365186,0.0412019250907003,0.0031616789013147,0.006662449799478,0.0026533864438533,0.0273325499147176,standing,2026-03-04_13-51-29
1772632290595158300,1.456158203125,-0.0910464812444522,-0.0150246967829763,0.0388268665224313,0.0052506504580378,0.0070212204009294,0.0188616830855608,standing,2026-03-04_13-51-29
1772632290605106400,1.4661064453125,-0.111953294868581,-0.0670801704518496,0.0795914231091737,0.0039251949638128,0.0099941063672304,0.0143193956464529,standing,2026-03-04_13-51-29
1772632290615055600,1.4760556640625,-0.0557217228251509,-0.0706844785541296,0.1584516093343496,-0.0058657429181039,-0.0095400102436542,0.0092555899173021,standing,2026-03-04_13-51-29
1772632290625003500,1.48600341796875,-0.0292154817587696,-0.0745383775033056,0.2648123814254999,-0.0184672884643077,-0.0546014942228794,0.001414711587131,standing,2026-03-04_13-51-29
1772632290634952400,1.495952392578125,0.0260261659318581,-0.1031026470780372,0.2658002234190702,-0.0253799371421337,-0.0874903127551078,-0.0004446636885404,standing,2026-03-04_13-51-29
1772632290644900600,1.505900634765625,0.0730488330652937,-0.0591445551469922,0.1458206758201122,-0.0265754275023937,-0.0856343582272529,0.0026328852400183,standing,2026-03-04_13-51-29
1772632290654849500,1.515849609375,0.0559656328499317,0.0191980369448661,0.0053068742364645,-0.0286286249756813,-0.0667833164334297,0.004062526859343,standing,2026-03-04_13-51-29
1772632290664797400,1.52579736328125,-0.0044184374967589,0.0544195724517106,-0.1671270832210779,-0.0286336876451969,-0.0326157584786415,0.0048417681828141,standing,2026-03-04_13-51-29
1772632290674746600,1.53574658203125,-0.0540752342597581,0.0754499393902718,-0.2767120780557394,-0.0224908050149679,0.0056463712826371,0.0085573242977261,standing,2026-03-04_13-51-29
1772632290684694500,1.545694580078125,-0.0538909089351072,0.0863005653589963,-0.3444932363837957,-0.006739271339029,0.023536155000329,0.020829701796174,standing,2026-03-04_13-51-29
1772632290694643500,1.5556435546875,0.0261549251443706,0.1141210308291018,-0.3591472001582383,0.0181018523871898,0.0244061034172773,0.0371387265622615,standing,2026-03-04_13-51-29
1772632290704591600,1.565591552734375,0.0920761348194442,0.1398563605882227,-0.3190606889635324,0.0433968231081962,0.0125395916402339,0.0536929368972778,standing,2026-03-04_13-51-29
1772632290714540500,1.57554052734375,0.117383393625915,0.1359228205315768,-0.1989741738587618,0.0664240047335624,0.0111523438245058,0.0649607181549072,standing,2026-03-04_13-51-29
1772632290724488400,1.585488525390625,0.0466548567343503,0.0950993733644485,-0.1425865162044763,0.0767293721437454,0.0104229040443897,0.0559706874191761,standing,2026-03-04_13-51-29
1772632290734437400,1.595437255859375,-0.0480731260344386,0.0244524503417313,-0.052589434415102,0.0759830474853515,0.0060274987481534,0.0436511114239692,standing,2026-03-04_13-51-29
1772632290744385500,1.605385498046875,-0.0606519640352576,-0.026427111415565,0.0818079301148653,0.0627316907048225,0.0046317358501255,0.036554854363203,standing,2026-03-04_13-51-29
1772632290754334500,1.61533447265625,-0.037534726086352,-0.0170012575529515,0.2151753670752048,0.0336315631866455,-0.003335484303534,0.0328004248440265,standing,2026-03-04_13-51-29
1772632290764282400,1.625282470703125,-0.0019201178750023,-0.0151163205891847,0.3146364427804947,-0.002735233400017,-0.0184119045734405,0.0369022265076637,standing,2026-03-04_13-51-29
1772632290774231600,1.6352314453125,0.0251572376102209,-0.0356423912674188,0.3483300380676984,-0.0319308638572692,-0.0243665482848882,0.0377302952110767,standing,2026-03-04_13-51-29
1772632290784179500,1.645179443359375,-0.0165164514443837,-0.0408059115104377,0.2435983284831047,-0.0426519513130188,-0.0110366279259324,0.0359041653573513,standing,2026-03-04_13-51-29
1772632290794128400,1.65512841796875,-0.0601321596785448,-0.0006371288597583,0.0744692577898502,-0.0330935642123222,0.0130895674228668,0.0354031845927238,standing,2026-03-04_13-51-29
1772632290804076500,1.66507666015625,-0.0872510710168629,0.035485447140038,-0.0741653064072132,-0.010396771132946,0.0334638133645057,0.043982557952404,standing,2026-03-04_13-51-29
1772632290814025500,1.675025390625,-0.0466846125517971,0.0578777500815689,-0.1148404311448335,0.0139668649062514,0.0260661765933036,0.0515334382653236,standing,2026-03-04_13-51-29
1772632290823973400,1.684973388671875,-0.0159282032276503,0.0473027261838316,-0.0574637624531984,0.0335834436118602,0.0012740108650177,0.053983811289072,standing,2026-03-04_13-51-29
1772632290833922300,1.69492236328125,-0.0197020592105574,0.0136107383318245,0.0529167666733264,0.0396892689168453,-0.0273492597043514,0.0468513406813144,standing,2026-03-04_13-51-29
1772632290843870500,1.704870361328125,-0.0667226987836882,-0.0386762060053646,0.1425841781169176,0.0284552536904811,-0.0476366877555847,0.031698752194643,standing,2026-03-04_13-51-29
1772632290853818400,1.714818359375,-0.0991000421068631,-0.0737738228715956,0.1802946078300476,0.0077031264081597,-0.0463363528251647,0.0237430706620216,standing,2026-03-04_13-51-29
1772632290863767300,1.724767333984375,-0.0910375307530164,-0.0581888618573546,0.1520318054199218,-0.0169886387884616,-0.0288159511983394,0.021247424185276,standing,2026-03-04_13-51-29
1772632290873715500,1.734715576171875,-0.0849281079620122,-0.0081517422735691,0.0881149213045835,-0.0371806249022483,-0.0060434034094214,0.0240994598716497,standing,2026-03-04_13-51-29
1772632290883664400,1.744664306640625,-0.0738658850692212,0.0122262982361018,0.0078635729819536,-0.0397564321756362,0.0186795201152563,0.0326687134802341,standing,2026-03-04_13-51-29
1772632290893612300,1.7546123046875,-0.0458572583495639,0.0379576824724674,-0.0879126767307519,-0.0288618877530097,0.0336152762174606,0.0409941002726554,standing,2026-03-04_13-51-29
1772632290903561500,1.7645615234375,-0.074729132568743,0.0487707529097795,-0.112379593989253,-0.012230978347361,0.0246414858847856,0.0364582054316997,standing,2026-03-04_13-51-29
1772632290913509400,1.77450927734375,-0.0765120156638324,-0.0018890286169946,-0.1062368534505367,0.0067145517095923,0.0071512218564748,0.0336050279438495,standing,2026-03-04_13-51-29
1772632290923458600,1.78445849609375,-0.0773700572652742,-0.0510283225782215,-0.0820516757428646,0.0201904140412807,-0.0035043519455939,0.0243303049355745,standing,2026-03-04_13-51-29
1772632290933406500,1.794406494140625,-0.1016257246595807,-0.0609158026032149,-0.0545265399575233,0.023478290066123,-0.0135428886860609,0.0143275866284966,standing,2026-03-04_13-51-29
1772632290943355600,1.804355712890625,-0.0920070699049159,-0.0696305855870246,-0.0028594810843467,0.0174920372664928,-0.0236261487007141,0.0137949557974934,standing,2026-03-04_13-51-29
1772632290953303600,1.814303466796875,-0.0361602776616811,-0.0378016151279211,0.0189817638456821,0.0120417615398764,-0.0163564532995224,0.0220771450549364,standing,2026-03-04_13-51-29
1772632290963252500,1.82425244140625,-0.0015492387359961,-0.015377748004347,-0.0476139840900897,0.0128913102671504,0.0095438528805971,0.0326147377490997,standing,2026-03-04_13-51-29
1772632290973200600,1.83420068359375,-0.0170544855775311,0.0342648193039,-0.0845236188143491,0.0132994838058948,0.023146167397499,0.0396583937108516,standing,2026-03-04_13-51-29
1772632290983149600,1.844149658203125,-0.0150725727790035,0.0251015619002282,-0.0477934323102235,0.0133673939853906,0.0148826437070965,0.0400967486202716,standing,2026-03-04_13-51-29
1772632290993097500,1.854097412109375,-0.0386035060953348,-0.0286415725946426,0.0123106155186891,0.0127457212656736,-0.0006568769458681,0.03204195946455,standing,2026-03-04_13-51-29
1772632291003046400,1.86404638671875,-0.0717947230846621,-0.0594417845278978,0.023450433692336,0.0202041696757078,-0.0050260587595403,0.0238285027444362,standing,2026-03-04_13-51-29
1772632291012994600,1.87399462890625,-0.1066787154665216,-0.0472230850763618,0.0191021753549575,0.0233465451747179,-0.0075472672469913,0.0165147129446268,standing,2026-03-04_13-51-29
1772632291022943500,1.883943603515625,-0.0879641329233534,-0.0307736161872744,0.0229845697462558,0.0211941786110401,-0.0118181779980659,0.0162747632712125,standing,2026-03-04_13-51-29
1772632291032891400,1.893891357421875,-0.0602343231450766,-0.0086072309561073,0.0579103371769189,0.0151473423466086,-0.0109263211488723,0.0185037925839424,standing,2026-03-04_13-51-29
1772632291042840600,1.903840576171875,-0.0307248634084127,0.0146649235598742,0.0745294635444879,0.0090529648587107,-0.0073265261016786,0.0262559875845909,standing,2026-03-04_13-51-29
1772632291052788500,1.91378857421875,-0.0302072327424772,0.024662732091546,0.0435001190304756,0.0043156864121556,-0.0089521082118153,0.0266124196350574,standing,2026-03-04_13-51-29
1772632291062737400,1.9237373046875,-0.063002198689524,0.0203922151654958,-9.76151555776e-05,0.0049045109190046,-0.0024502666201442,0.0261503607034683,standing,2026-03-04_13-51-29
1772632291072685600,1.933685546875,-0.0740362732000649,0.0152317636623978,-0.0370288771897554,0.0114199267700314,0.0066722440533339,0.025817472487688,standing,2026-03-04_13-51-29
1772632291082634500,1.943634521484375,-0.0870423419033177,0.0158640702165663,-0.0444622420608997,0.019773731008172,0.0157221984118223,0.023268561810255,standing,2026-03-04_13-51-29
1772632291092582400,1.95358251953125,-0.0911183226379565,0.0180757549166679,-0.014879004701972,0.020901845768094,0.0177049227058887,0.0234720259904861,standing,2026-03-04_13-51-29
1772632291102531300,1.96353125,-0.0426330173397436,0.0136652449980378,0.0541179591566324,0.0124263353645801,0.0083953086286783,0.0245695151388645,standing,2026-03-04_13-51-29
1772632291112479500,1.9734794921875,-0.0177156711663119,0.007030921550095,0.1400169579774141,0.0055459565483033,-0.0063422163948416,0.0263010449707508,standing,2026-03-04_13-51-29
1772632291122428400,1.983428466796875,-0.0344052324215881,-0.0042319384813308,0.1650029306739568,-0.0001601320691406,-0.0143079971894621,0.0198008008301258,standing,2026-03-04_13-51-29
1772632291132376300,1.993376220703125,-0.0881249495082534,0.0023677520446479,0.1483311973363161,-0.0049228272400796,-0.0158924534916877,0.0164665821939706,standing,2026-03-04_13-51-29
1772632291142324500,2.003324462890625,-0.0753366334752179,0.014018150088936,0.1213566811710596,-0.00545040005818,-0.0089602451771497,0.0198083166033029,standing,2026-03-04_13-51-29
1772632291152273400,2.0132734375,-0.0434811038027517,0.0238978851988911,0.0485386977195739,-0.0021634972654283,0.0073645766824483,0.0221327021718025,standing,2026-03-04_13-51-29
1772632291162221300,2.02322119140625,-0.0387979692215099,0.0474058942973613,0.0570487519115209,0.0007462729699909,0.0105750169605016,0.0232139453291893,standing,2026-03-04_13-51-29
1772632291172170500,2.03317041015625,-0.021160971048288,0.0074481240488588,0.1034475149929523,-0.0052822562865912,-0.0141374533995985,0.0188834629952907,standing,2026-03-04_13-51-29
1772632291182118400,2.043118408203125,-0.0335740240281447,-0.034776714348793,0.1469032103598117,-0.0146621763706207,-0.0374715402722358,0.0094569399952888,standing,2026-03-04_13-51-29
1772632291192067300,2.0530673828125,-0.0543446988509036,-0.0530415620967745,0.1463818168342113,-0.0241631083190441,-0.0448483526706695,0.0057207336649298,standing,2026-03-04_13-51-29
1772632291202015500,2.063015380859375,-0.0564369218898005,-0.0128327396966516,0.0954278746664524,-0.0326886847615242,-0.0483386889100074,0.0040709050372242,standing,2026-03-04_13-51-29
1772632291211964400,2.07296435546875,-0.0560231899897567,0.0039085517458617,0.0330909532189369,-0.0407792963087558,-0.0487358719110488,0.0064862696453928,standing,2026-03-04_13-51-29
1772632291221912300,2.082912353515625,-0.0240119765652343,0.0237866799093782,-0.0783405462652444,-0.0346015617251396,-0.016721211373806,0.0202084742486476,standing,2026-03-04_13-51-29
1772632291231861200,2.092861328125,-0.0042913039857521,0.0616905863679945,-0.2493289810895919,-0.0124187413603067,0.0302950628101825,0.0354968681931495,standing,2026-03-04_13-51-29
1772632291241809400,2.102809326171875,-0.0524037939161993,0.1030628995895385,-0.3387754432588815,0.0139907617121934,0.0504160448908805,0.0382449850440025,standing,2026-03-04_13-51-29
1772632291251758300,2.11275830078125,-0.0966599189457483,0.0489800117462873,-0.2696539762377739,0.0338992923498153,0.0336194336414337,0.0299578383564949,standing,2026-03-04_13-51-29
1772632291261706200,2.122706298828125,-0.061292892287299,-0.0531290942497551,-0.1152466738581657,0.0430051758885383,0.007925521582365,0.0262464582920074,standing,2026-03-04_13-51-29
1772632291271655400,2.132655517578125,-0.050797326833941,-0.0917038857072591,0.008327098840475,0.0408206433057785,-0.0125674847513437,0.0128474459052085,standing,2026-03-04_13-51-29
1772632291281603300,2.142603271484375,-0.0740375883743166,-0.0973071125417947,0.0970154361188411,0.0305272620171308,-0.0175358783453702,0.0054542450234293,standing,2026-03-04_13-51-29
1772632291291552300,2.15255224609375,-0.0501718884119763,-0.0946076443247497,0.1458586697429418,0.0069143269211053,-0.0119434166699647,0.0058617298491299,standing,2026-03-04_13-51-29
1772632291301500400,2.16250048828125,-0.0348171924896538,-0.0867940479643642,0.1587877094209194,-0.0129323489964008,-0.0030391374602913,0.0068303211592137,standing,2026-03-04_13-51-29
1772632291311449300,2.172449462890625,-0.0459559329510666,-0.0697200174361467,0.1397732123494148,-0.0254160091280937,0.0100001357495784,0.004349248483777,standing,2026-03-04_13-51-29
1772632291321397200,2.182397216796875,-0.0711487350650131,-0.0443314552880823,0.1120750580847263,-0.0346308127045631,0.0148478876799345,0.0022426880896091,standing,2026-03-04_13-51-29
1772632291331346200,2.19234619140625,-0.08386336480733,-0.0325198753327131,0.0657119508385658,-0.0320509187877178,0.0110579896718263,-0.0023942682892084,standing,2026-03-04_13-51-29
1772632291341294300,2.20229443359375,-0.0842079952602274,-0.0458804382957518,0.0213555072396993,-0.0213689804077148,0.0140391318127512,-0.00338283367455,standing,2026-03-04_13-51-29
1772632291351243300,2.2122431640625,-0.0861605541001074,-0.0269675019025802,-0.0328226576715707,-0.0032981471158564,0.0137726115062832,-0.0022003569174557,standing,2026-03-04_13-51-29
1772632291361191200,2.222191162109375,-0.0344602505444549,0.0031223698042333,-0.0549152470141649,0.0129873491823673,0.0097224758937954,-4.34627290815e-05,standing,2026-03-04_13-51-29
1772632291371140400,2.232140380859375,-0.0020386662207543,0.0115893155068159,-0.0528513002216815,0.0248398520052433,0.0105151571333408,0.0059814634732902,standing,2026-03-04_13-51-29
1772632291381088300,2.242088134765625,0.002867189466767,0.0064953533686697,0.0170668701350688,0.0288540348410606,-0.0072228275239467,0.0003589983098208,standing,2026-03-04_13-51-29
1772632291391037200,2.252037109375,-0.0268378476409241,-0.0118804074078798,0.0740244366317987,0.0206221602857112,-0.0246828850358724,-0.0050063789822161,standing,2026-03-04_13-51-29
1772632291400985300,2.2619853515625,-0.0291187981849536,-0.0364312035575509,0.1252022506833076,0.0053151082247495,-0.0250509325414896,-0.0084897931665182,standing,2026-03-04_13-51-29
1772632291410934500,2.2719345703125,-0.0428404860779643,-0.0108658235378563,0.1039151325047016,-0.0158191584050655,-0.0120770903304219,-0.0087205236777663,standing,2026-03-04_13-51-29
1772632291420882200,2.281882080078125,-0.0508801097465679,9.776128605e-05,0.0788455731779336,-0.0332317017018795,-5.45158982276e-05,-0.0077484706416726,standing,2026-03-04_13-51-29
1772632291430831400,2.291831298828125,-0.0364160973199643,-0.0035009938582777,0.0085977324753999,-0.0385220572352409,0.0128818172961473,-0.0016988473944365,standing,2026-03-04_13-51-29
1772632291440779500,2.301779541015625,-0.0113201614429242,0.0122283440627157,-0.0750531951576471,-0.0263082701712846,0.0322094447910785,0.0088009312748909,standing,2026-03-04_13-51-29
1772632291450727200,2.31172705078125,-0.0080312211664393,0.0372463193327188,-0.1821837825775146,-0.0042310310527682,0.0451818443834781,0.0156332142651081,standing,2026-03-04_13-51-29
1772632291460676400,2.32167626953125,-0.0334288799364119,0.0360753758572041,-0.2180517992943525,0.02468903362751,0.0385005064308643,0.0167235136032104,standing,2026-03-04_13-51-29
1772632291470624500,2.33162451171875,-0.0231248367334716,0.0274402339808642,-0.1709030946284532,0.0462362878024578,0.0161074269562959,0.0179461259394884,standing,2026-03-04_13-51-29
1772632291480573400,2.341573486328125,0.0091984931138344,-0.0135797586716711,-0.0712526338309049,0.0525660887360572,-0.0003538378514349,0.0182526558637619,standing,2026-03-04_13-51-29
1772632291490521300,2.351521240234375,-0.0038359431673772,-0.031237872698158,0.042770051190257,0.0477783642709255,-0.0128962555900216,0.0171496253460645,standing,2026-03-04_13-51-29
1772632291500470300,2.36147021484375,-0.0136670350963249,-0.0530187657430768,0.1462473767995834,0.0263556316494941,-0.0132978605106472,0.0119090564548969,standing,2026-03-04_13-51-29
1772632291510418400,2.37141845703125,-0.028046638908796,-0.08261500871405,0.1949965023994445,0.0023409384302794,-0.0078517189249396,0.0092683304101228,standing,2026-03-04_13-51-29
1772632291520367400,2.381367431640625,-0.0559079113133251,-0.0793332105644047,0.1981348004251718,-0.0205792896449565,0.0040550078265368,0.0068704197183251,standing,2026-03-04_13-51-29
1772632291530315500,2.3913154296875,-0.0574075387539342,-0.0755285575844347,0.1407581317335367,-0.0311633385717868,0.0146141406148672,0.0076810508035123,standing,2026-03-04_13-51-29
1772632291540264400,2.401264404296875,-0.048144328107126,-0.0334409357003867,0.059193362724781,-0.0297241657972335,0.0182219240814447,0.012109886854887,standing,2026-03-04_13-51-29
1772632291550212400,2.41121240234375,-0.0507887782013043,-0.0079227558232843,-0.0028852000474929,-0.0168507862836122,0.0126695819199085,0.0127239199355244,standing,2026-03-04_13-51-29
1772632291560161300,2.421161376953125,-0.0611541962026618,-0.0020632161401212,-0.0515495699733495,-0.0015408056788146,0.0054667955264449,0.0121880918741226,standing,2026-03-04_13-51-29
1772632291570109400,2.431109375,-0.0552422504788264,-0.0099435941264033,-0.0752963562637567,0.0128443501889705,0.0032017540652304,0.0128534128889441,standing,2026-03-04_13-51-29
1772632291580058400,2.441058349609375,-0.0771361754441633,-0.003911766616255,-0.068652680465579,0.0189357977360487,0.0045200185850262,0.0094227287918329,standing,2026-03-04_13-51-29
1772632291590006300,2.45100634765625,-0.1022508708206005,-0.0037435704424977,-0.0253875392347574,0.0164065808057785,0.0009478922002017,0.0069404104724526,standing,2026-03-04_13-51-29
1772632291599955200,2.460955078125,-0.0959349656720645,-0.0002365852348506,0.0402688820242881,0.0078948521986603,-0.005006403196603,0.0103346100077033,standing,2026-03-04_13-51-29
1772632291609903400,2.4709033203125,-0.0397259890529327,0.0031968963451683,0.0573813448667526,0.0068687414750456,-0.0037753426004201,0.0163107365369796,standing,2026-03-04_13-51-29
1772632291619852300,2.480852294921875,-0.0825847049073316,0.0191800628967583,0.0228641582369804,0.0081241559237241,0.0014186205808073,0.0130563518032431,standing,2026-03-04_13-51-29
1772632291629800200,2.49080029296875,-0.1022235626885667,0.0323255218043923,0.0073059390991926,0.0094538247212767,0.0135266948491334,0.0085959248244762,standing,2026-03-04_13-51-29
1772632291639749400,2.500749267578125,-0.08877599729551,0.0184260296590626,0.0049111529171466,0.004361328203231,0.017560051754117,0.0085293464362621,standing,2026-03-04_13-51-29
1772632291649697300,2.510697265625,-0.0867272663384676,0.0204778476223349,0.0430447764784097,-0.0088910926133394,0.0116321202367544,0.0034352517686784,standing,2026-03-04_13-51-29
1772632291659646200,2.520646240234375,-0.0864814383512362,-0.0007674772411584,0.0954535936295986,-0.0200124531984329,0.0076019591651856,0.0034618834033608,standing,2026-03-04_13-51-29
1772632291669594400,2.530594482421875,-0.046190691555012,0.0060356269024312,0.1110422079056501,-0.0277437325567007,0.0193603131920099,0.0074067874811589,standing,2026-03-04_13-51-29
1772632291679543300,2.540543212890625,-0.0363899764980189,0.0252998609513044,0.0831003080129623,-0.0248230416327714,0.0278097242116928,0.015058048069477,standing,2026-03-04_13-51-29
1772632291689491200,2.5504912109375,-0.0246426574178971,0.0320192323341965,0.0774731157809495,-0.012797949835658,0.0292803589254617,0.0185574796050786,standing,2026-03-04_13-51-29
1772632291699440000,2.560440185546875,-0.0203538559164851,0.0089202424280345,0.0571177254945039,0.0036388125736266,0.0210210960358381,0.0164192281663417,standing,2026-03-04_13-51-29
1772632291709388300,2.57038818359375,-0.0343653936015442,-0.020316373450309,0.0797211869686841,0.0118096321821212,-0.0061420416459441,0.0053869048133492,standing,2026-03-04_13-51-29
1772632291719337200,2.580337158203125,-0.0632889432090334,-0.0883800019815564,0.1643400828510522,0.0049767601303756,-0.0486162640154361,-0.0145985214039683,standing,2026-03-04_13-51-29
1772632291729285000,2.59028515625,-0.0946989758700132,-0.1183639290958643,0.2239507942050695,-0.0130612356588244,-0.0792694315314292,-0.0277500413358211,standing,2026-03-04_13-51-29
1772632291739234600,2.600234619140625,-0.0633316315732896,-0.1133241813629865,0.1845394057929515,-0.0354032926261425,-0.0666367262601852,-0.0251952707767486,standing,2026-03-04_13-51-29
1772632291749182200,2.61018212890625,-0.0423054476195015,-0.0438484940767288,0.0383446359634399,-0.0519150868058204,-0.0237804409116506,-0.015622392296791,standing,2026-03-04_13-51-29
1772632291759131400,2.62013134765625,-0.0382098854015581,0.0565275045163929,-0.1080979711472988,-0.0548301823437213,0.0150670893490314,0.0003107676748186,standing,2026-03-04_13-51-29
1772632291769079600,2.63007958984375,-0.0540849884687922,0.0908111746512353,-0.2312169858157634,-0.0407901816070079,0.0426679886877536,0.012873045168817,standing,2026-03-04_13-51-29
1772632291779027200,2.640027099609375,-0.0338055129627697,0.0836086959265172,-0.2958621842056512,-0.0142347374930977,0.0550258532166481,0.0200747661292552,standing,2026-03-04_13-51-29
1772632291788976400,2.649976318359375,-0.0619406886715441,0.0582404459141194,-0.281621477407217,0.0149528216570615,0.0424900278449058,0.0153870424255728,standing,2026-03-04_13-51-29
1772632291798924500,2.659924560546875,-0.1022674748955294,0.0303746799975633,-0.1846650779992341,0.0377060696482658,0.0078462958335876,0.0066020740196108,standing,2026-03-04_13-51-29
1772632291808873500,2.66987353515625,-0.0697108477490022,-0.0261085469856858,-0.0878805280268192,0.0489757657051086,-0.0128908222541213,0.0066665299236774,standing,2026-03-04_13-51-29
1772632291818821400,2.6798212890625,-0.0403234069568105,-0.0244172328978776,-0.0187210670828819,0.0505896396934986,-0.0077597093768417,0.0045314729213714,standing,2026-03-04_13-51-29
1772632291828770300,2.689770263671875,-0.0530748250455595,-0.0079737553581595,0.0415595063567161,0.0338354334235191,-0.0022316384129226,-0.0030737230554223,standing,2026-03-04_13-51-29
1772632291838718500,2.699718505859375,-0.0778231530613265,0.007662351321429,0.1250333238571882,0.0105724539607763,-0.0037981097120791,-0.0051453961059451,standing,2026-03-04_13-51-29
1772632291848667400,2.70966748046875,-0.0432974725978448,-0.0243903448909521,0.1925724901229143,-0.014790840446949,0.003126262454316,-0.0040518580935895,standing,2026-03-04_13-51-29
1772632291858615300,2.719615234375,-0.0482668767745606,-0.0387456179797649,0.1876777038186788,-0.032184213399887,0.0110494326800107,-0.0132666621357202,standing,2026-03-04_13-51-29
1772632291868564500,2.729564453125,-0.1243090829695574,-0.0107807756029069,0.1573912866264581,-0.0418622940778732,0.0076658921316266,-0.0223075114190578,standing,2026-03-04_13-51-29
1772632291878512400,2.739512451171875,-0.1188914053023792,-0.0178302557229995,0.1102969424962997,-0.0458290725946426,0.0031049631070345,-0.0239155255258083,standing,2026-03-04_13-51-29
1772632291888461300,2.74946142578125,-0.047051929760538,0.0040324703864753,0.050595630249381,-0.0384249612689018,0.0151241933926939,-0.0176536291837692,standing,2026-03-04_13-51-29
1772632291898409500,2.759409423828125,-0.0174779168876819,0.0551436489425599,-0.033866613766551,-0.0221621040254831,0.024610374122858,-0.0043641896918416,standing,2026-03-04_13-51-29
1772632291908358400,2.7693583984375,-0.0277577206985093,0.0703914869569242,-0.0636462504804134,-0.0039384053088724,0.0179101377725601,-0.0007722828304395,standing,2026-03-04_13-51-29
1772632291918306300,2.779306396484375,-0.0212839398408308,0.0430696186587214,-0.030356559818983,0.0101153627038002,0.0025628732983022,-0.0055087148211896,standing,2026-03-04_13-51-29
1772632291928255200,2.789255126953125,-0.0595788183784112,0.0045899581387639,0.0075917703032493,0.0193106234073638,-0.0144370067864656,-0.0140300877392292,standing,2026-03-04_13-51-29
1772632291938203400,2.799203369140625,-0.1048186754819937,-0.0056811143763363,0.0540413867890834,0.0170850194990634,-0.024095494300127,-0.0263972748070955,standing,2026-03-04_13-51-29
1772632291948152300,2.80915234375,-0.1196729476015083,-0.0284181391023099,0.0855313345521688,0.0019256011582911,-0.0263056736439466,-0.0327773466706275,standing,2026-03-04_13-51-29
1772632291958100200,2.819100341796875,-0.1045940912121906,-0.0202985455326735,0.1120522617310285,-0.022592257708311,-0.0092209633439779,-0.0327603034675121,standing,2026-03-04_13-51-29
1772632291968049400,2.82904931640625,-0.0822391794052906,-0.0107052261486649,0.1045996076375246,-0.0431618802249431,0.0086769349873065,-0.0329456031322479,standing,2026-03-04_13-51-29
1772632291977997300,2.838997314453125,-0.0928927849645726,0.011963994038105,0.0588753828167915,-0.0512155480682849,0.0167353954166173,-0.0288933366537094,standing,2026-03-04_13-51-29
1772632291987946200,2.8489462890625,-0.0621576558904722,0.0034011867456138,-0.0251823720514774,-0.0434623397886753,0.024202762171626,-0.025013267993927,standing,2026-03-04_13-51-29
1772632291997894400,2.858894287109375,-0.0591022686415351,0.008302841182053,-0.097041739603877,-0.0248881243169307,0.0307179186493158,-0.0210140012204647,standing,2026-03-04_13-51-29
1772632292007843300,2.86884326171875,-0.0654237267480231,0.0124323422022163,-0.1385334414213895,-0.0018421849235892,0.022097148001194,-0.0225905980914831,standing,2026-03-04_13-51-29
1772632292017791200,2.878791259765625,-0.0667717986224219,0.0009925181686878,-0.0992892262697219,0.0121167739853262,-0.004561626818031,-0.0315108560025692,standing,2026-03-04_13-51-29
1772632292027740200,2.888740234375,-0.0604269048414193,-0.0498518261447548,-0.0400923564136028,0.0201089307665824,-0.0150953466072678,-0.0335833355784416,standing,2026-03-04_13-51-29
1772632292037688300,2.898688232421875,-0.0369252341521903,-0.0434575950630009,-0.0159650463730096,0.0205587372183799,-0.0104332165792584,-0.0331945121288299,standing,2026-03-04_13-51-29
1772632292047637200,2.90863720703125,-0.0343695583200082,-0.0134013333648443,0.0106160865604877,0.0109418351203203,-0.0118155563250184,-0.0284326076507568,standing,2026-03-04_13-51-29
1772632292057585200,2.918585205078125,-0.0155206088074482,-0.006039718555659,0.044127895539999,-0.0039803888648748,-0.0111031606793403,-0.0267929024994373,standing,2026-03-04_13-51-29
1772632292067533300,2.928533203125,0.00207114371825,-0.0162929631531238,0.0315559987366199,-0.0144105553627014,0.0037225154228508,-0.0228883810341358,standing,2026-03-04_13-51-29
1772632292077482200,2.938482177734375,-0.0275055360357277,-0.0100698508545756,-0.0111994394063949,-0.0141461044549942,0.0223406739532947,-0.021469984203577,standing,2026-03-04_13-51-29
1772632292087431400,2.948431396484375,-0.0675607753093354,0.0198956638202071,-0.064350014835596,-0.0101000675931572,0.0259025283157825,-0.0295921489596366,standing,2026-03-04_13-51-29
1772632292097379300,2.95837939453125,-0.0836831128695979,-0.000822422298789,-0.0515583378016948,-0.00882547814399,0.0201615523546934,-0.0345078147947788,standing,2026-03-04_13-51-29
1772632292107327200,2.9683271484375,-0.0522583392972126,-0.0223484637998044,-0.0070423197269439,-0.0078140096738934,0.0150291072204709,-0.0332129821181297,standing,2026-03-04_13-51-29
1772632292117276400,2.9782763671875,-0.0203292877308093,-0.0097653149500489,0.0045417350828647,-0.0054501881822943,0.0107115907594561,-0.0266056805849075,standing,2026-03-04_13-51-29
1772632292127224300,2.988224365234375,-0.006170377464313,0.0279345933690667,0.0162812727153301,-0.0041200486011803,-0.0014289675746113,-0.0226730406284332,standing,2026-03-04_13-51-29
1772632292137173500,2.998173583984375,0.0025274726510047,0.047912820906192,0.0211298817902803,-0.0014411746524274,-0.0069411783479154,-0.0182652436196804,standing,2026-03-04_13-51-29
1772632292147121400,3.008121337890625,0.0191575405376963,0.0402513463675975,-0.0179687874108552,0.0081153195351362,0.0066354977898299,-0.0128989797085523,standing,2026-03-04_13-51-29
1772632292157070300,3.0180703125,-0.0086686788197606,0.0550327359139919,-0.0762462043344974,0.0160866938531398,0.0207119025290012,-0.0100374137982726,standing,2026-03-04_13-51-29
1772632292167018500,3.0280185546875,-0.0397862861391156,0.0749452047385275,-0.0631049832105636,0.020120270550251,0.0168151762336492,-0.0128887593746185,standing,2026-03-04_13-51-29
1772632292176967400,3.037967529296875,-0.023534970170632,0.0526759436547756,0.028614684587717,0.0191743168979883,-0.0059210285544395,-0.0113539798185229,standing,2026-03-04_13-51-29
1772632292186915300,3.047915283203125,0.024554248482082,0.047485827665776,0.1125520279467105,0.0072818952612578,-0.0129519961774349,-0.0145648010075092,standing,2026-03-04_13-51-29
1772632292196864300,3.0578642578125,-0.0280066539582796,0.0368614116683602,0.1410030464053153,-0.007364691235125,-0.0059809051454067,-0.0161387287080287,standing,2026-03-04_13-51-29
1772632292206812400,3.0678125,-0.0549406554500572,0.0431556895069778,0.1445510942757129,-0.0251767672598361,-0.0090210111811757,-0.0210404507815837,standing,2026-03-04_13-51-29
1772632292216761300,3.07776123046875,-0.035948826868087,0.0389535616420209,0.1165887361168861,-0.0349718742072582,0.0094373580068349,-0.015734102576971,standing,2026-03-04_13-51-29
1772632292226709200,3.087709228515625,0.0319028028802946,0.0530469689242541,-0.0195084180682897,-0.0267366077750921,0.0556059889495372,-0.0008165991166606,standing,2026-03-04_13-51-29
1772632292236658400,3.097658447265625,0.0489992096371017,0.0927889044649899,-0.1104021564364433,-0.0125363655388355,0.0785421952605247,0.0097431009635329,standing,2026-03-04_13-51-29
1772632292246606300,3.1076064453125,0.047518085967563,0.0753648914553225,-0.0344563963532447,-0.0026394873857498,0.038237489759922,0.0107009448111057,standing,2026-03-04_13-51-29
1772632292256555300,3.11755517578125,0.0797530616779811,-0.0250248434022068,0.131346744787693,-0.0011869994923472,-0.0248184390366077,0.0027623283676803,standing,2026-03-04_13-51-29
1772632292266503400,3.12750341796875,0.0729344677043147,-0.0837038268640637,0.2199310371696949,-0.0034822137095034,-0.0587901137769222,-0.0067036687396466,standing,2026-03-04_13-51-29
1772632292276452400,3.137452392578125,-0.014290555555839,-0.0710242319025099,0.1916109516143798,-0.0104991104453802,-0.0624503642320632,-0.0111130643635988,standing,2026-03-04_13-51-29
1772632292286400300,3.147400146484375,-0.0701247805784456,-0.0225837338604033,0.1414414378225803,-0.0238664913922548,-0.0574082508683204,-0.0155191849917173,standing,2026-03-04_13-51-29
1772632292296349400,3.157349365234375,-0.0699267920546233,-0.0010620762735605,0.0508551579684019,-0.0339532122015953,-0.0321572236716747,-0.0069539262913167,standing,2026-03-04_13-51-29
1772632292306297300,3.16729736328125,-0.0595559306931681,0.0033997254408895,-0.0751981565862894,-0.0369867794215679,0.0098236035555601,0.0020600333809852,standing,2026-03-04_13-51-29
1772632292316246500,3.17724658203125,-0.0986754052203148,0.0465985234372317,-0.1702653812468051,-0.0286404341459274,0.0395585969090461,0.0049852496013045,standing,2026-03-04_13-51-29
1772632292326194400,3.1871943359375,-0.1282073507834225,0.0339344183057546,-0.1848977177113294,-0.013491928577423,0.0466128513216972,0.0055742096155881,standing,2026-03-04_13-51-29
1772632292336143600,3.1971435546875,-0.10744233851647,-0.0010813654959201,-0.1493278071582317,0.0022201887331902,0.0333529710769653,0.0047323838807642,standing,2026-03-04_13-51-29
1772632292346091500,3.207091552734375,-0.0840666505607776,-0.0187504393078386,-0.0659960284769535,0.0122729856520891,0.008255748078227,0.0017722225748002,standing,2026-03-04_13-51-29
1772632292356040400,3.21704052734375,-0.1011611941540613,-0.0504326947726309,0.0306757087707519,0.0097752073779702,-0.0191668216139078,-0.0086881415918469,standing,2026-03-04_13-51-29
1772632292365988600,3.226988525390625,-0.0996001005834899,-0.0873857302471995,0.0518482606589794,0.0086855106055736,-0.0203397795557975,-0.0128499846905469,standing,2026-03-04_13-51-29
1772632292375937500,3.2369375,-0.0796419842526316,-0.060880146767944,0.0237982242166996,0.0049898424185812,0.0021562085021287,-0.0121288001537323,standing,2026-03-04_13-51-29
1772632292385885400,3.246885498046875,-0.080977799433656,-0.0132991881646215,0.0014297405421733,0.000390859786421,0.0118922721594572,-0.0154226776212453,standing,2026-03-04_13-51-29
1772632292395834400,3.25683447265625,-0.0771384222001768,-3.82861837744e-05,0.0484673860490322,-0.0108767077326774,-0.0003337683156132,-0.0171952787786722,standing,2026-03-04_13-51-29
1772632292405782500,3.266782470703125,-0.046744160719309,-0.0424077937491238,0.0708411304205656,-0.0192075036466121,-0.0046980320475995,-0.017231173813343,standing,2026-03-04_13-51-29
1772632292415730400,3.27673046875,-0.011107614670787,-0.0299700447194278,0.0412140539199113,-0.0215367041528224,0.0051553980447351,-0.0166572611778974,standing,2026-03-04_13-51-29
1772632292425679400,3.286679443359375,-0.0289804491601884,0.0101869013629853,-0.0033925650477409,-0.0214746091514825,0.0155482040718197,-0.0162410512566566,standing,2026-03-04_13-51-29
1772632292435627500,3.29662744140625,-0.0427155262577347,0.0179554895378649,-0.0262011937052011,-0.0161919631063938,0.0187929980456829,-0.0127078350633382,standing,2026-03-04_13-51-29
1772632292445576400,3.306576416015625,0.0001804163345135,0.02147080418244,-0.05063479321599,-0.0059817936271429,0.021869596093893,-0.0047349082306027,standing,2026-03-04_13-51-29
1772632292455524400,3.3165244140625,0.0341704738176427,0.0511878970541059,-0.0408224242538213,0.0074780890718102,0.011889399960637,-0.0051548886112868,standing,2026-03-04_13-51-29
1772632292465473500,3.3264736328125,0.0082865659006871,0.047729134902358,-0.0050683893054723,0.014354245737195,-0.0065849833190441,-0.0067395064979791,standing,2026-03-04_13-51-29
1772632292475421400,3.33642138671875,0.0304139342957176,0.0243387608341872,0.0152501761019229,0.015230692923069,-0.0125677743926644,-0.0019838996231555,standing,2026-03-04_13-51-29
1772632292485370400,3.346370361328125,0.0472389767652377,0.041865503565967,0.0294610722839832,0.0083149960264563,-0.0030504360329359,0.0002928366884589,standing,2026-03-04_13-51-29
1772632292495318500,3.356318603515625,0.0066608643949963,0.0501633763119578,0.0743283880144357,-0.0061579528264701,-0.0036826704163104,-0.0035746057983487,standing,2026-03-04_13-51-29
1772632292505267500,3.366267333984375,-0.0365642918853089,0.0222650233000516,0.1073363391250371,-0.0238956101238727,-0.0043045012280344,-0.0048873927444219,standing,2026-03-04_13-51-29
1772632292515215400,3.37621533203125,-0.014402838557586,-0.0064835168004035,0.0841372498452663,-0.0366867706179618,-4.8277433961e-06,0.0014525284059345,standing,2026-03-04_13-51-29
1772632292525164300,3.386164306640625,-0.0139387099108658,-0.0055368836000561,0.0190776254355907,-0.0312710404396057,0.0083226840943098,0.0019141917582601,standing,2026-03-04_13-51-29
1772632292535112400,3.396112548828125,-0.0650765755444765,0.0310550634771585,-0.0789537097275257,-0.0120004042983055,0.0156825948506593,0.0013938096817582,standing,2026-03-04_13-51-29
1772632292545061400,3.406061279296875,-0.0361009121572598,0.0402399481907486,-0.1423076992630958,0.0128292078152298,0.0190254170447587,0.0072479047812521,standing,2026-03-04_13-51-29
1772632292555009300,3.41600927734375,-0.022301190591976,0.0388502473980188,-0.1690367162346839,0.0345552749931812,0.0169462878257036,0.009103063493967,standing,2026-03-04_13-51-29
1772632292564958200,3.425958251953125,-0.0495572453786619,0.0329905615843832,-0.0941875192165374,0.0398171506822109,0.0025977094192057,0.0044518522918224,standing,2026-03-04_13-51-29
1772632292574906400,3.43590625,-0.0487002814894542,-0.0038541912101209,0.0163321261197328,0.0327754840254783,-0.0073904762975871,0.0019122618250548,standing,2026-03-04_13-51-29
1772632292584855300,3.445855224609375,-0.059400612267293,-0.0529318181119859,0.1071393552482128,0.0158474408090114,-0.0104317599907517,-0.0050416467711329,standing,2026-03-04_13-51-29
1772632292594803500,3.455803466796875,-0.0835689849706366,-0.0659822922125458,0.1601929000437259,-0.0040050940588116,-0.0012960527092218,-0.0120257874950766,standing,2026-03-04_13-51-29
1772632292604752400,3.46575244140625,-0.0937401042426005,-0.0457990436226129,0.138361007463932,-0.0205236617475748,0.0051914192736148,-0.0107654780149459,standing,2026-03-04_13-51-29
1772632292614700300,3.4757001953125,-0.0542670670374296,-0.0182465814389288,0.1242190848648548,-0.032599501311779,0.0077046444639563,-0.0041366037912666,standing,2026-03-04_13-51-29
1772632292624649500,3.4856494140625,-0.0221823865178972,0.0045104631617665,0.0672071578323841,-0.0336821489036083,0.0120807038620114,-0.0023793212603777,standing,2026-03-04_13-51-29
1772632292634597400,3.495597412109375,-0.0687693656478077,0.0213892633788287,-0.0041132805377244,-0.0221820902079343,0.014457575045526,-0.0040808147750794,standing,2026-03-04_13-51-29
1772632292644546600,3.505546630859375,-0.0843199860010296,0.0025472002647817,-0.0353349327534437,-0.0116925928741693,0.0079321572557091,-0.0090922936797142,standing,2026-03-04_13-51-29
1772632292654494500,3.515494384765625,-0.1044022401682101,-0.0059495560541749,-0.0208668469399213,-0.0027483659796416,-0.011327558197081,-0.0170562118291854,standing,2026-03-04_13-51-29
1772632292664443400,3.525443359375,-0.125325767465122,-0.0099852413110435,-0.0160690912693738,0.006562203168869,-0.0146751571446657,-0.0188283286988735,standing,2026-03-04_13-51-29
1772632292674391600,3.5353916015625,-0.0879261755331419,-0.000139700731635,-0.0553957240074872,0.0138760423287749,-0.0090582836419343,-0.0143763218075037,standing,2026-03-04_13-51-29
1772632292684340500,3.545340576171875,-0.0693414847136475,0.0488625228464603,-0.0623386750131845,0.0179699584841728,-0.0091670826077461,-0.0129259061068296,standing,2026-03-04_13-51-29
1772632292694288400,3.555288330078125,-0.0590472870512865,0.0336919878520071,-0.0167336926579475,0.0140814781188964,-0.0108137149363756,-0.0092906914651393,standing,2026-03-04_13-51-29
1772632292704237600,3.565237548828125,-0.0678243033500388,0.0083422964096069,0.0066126961380243,0.0096641490235924,-0.0051648672670125,-0.0083003779873251,standing,2026-03-04_13-51-29
1772632292714185500,3.575185546875,-0.1015818855178542,0.0070740300394594,0.0058072249740362,1.97771005332e-05,0.0029923950787633,-0.0158523041754961,standing,2026-03-04_13-51-29
1772632292724134400,3.585134521484375,-0.1114082830053754,-0.0114477150790393,0.0426928943008184,-0.0131251905113458,0.012902732938528,-0.0230822227895259,standing,2026-03-04_13-51-29
1772632292734082600,3.59508251953125,-0.1227102694707922,-0.0299468099743127,0.0639858576983213,-0.0211402401328086,0.0230709481984376,-0.0255395211279392,standing,2026-03-04_13-51-29
1772632292744031500,3.605031494140625,-0.1054989493637345,-0.0069537646606564,0.0609475129157304,-0.0243235919624567,0.0249580163508653,-0.0278214570134878,standing,2026-03-04_13-51-29
1772632292753979400,3.6149794921875,-0.0918669307818636,-0.000948240635544,0.0667711045026779,-0.0211456418037414,0.009183581918478,-0.0275572724640369,standing,2026-03-04_13-51-29
1772632292763927600,3.624927490234375,-0.0455548048042692,0.0040238486886024,0.0539741667717695,-0.0109318327158689,0.0094942422583699,-0.0225162804126739,standing,2026-03-04_13-51-29
1772632292773876500,3.63487646484375,-0.0189855997705832,0.0106191553004086,-0.0029191023170948,0.0093595907092094,0.0206222608685493,-0.0175311099737882,standing,2026-03-04_13-51-29
1772632292783824400,3.644824462890625,-0.0512197534970939,0.0410797600157558,-0.0112806879490613,0.0230405926704406,0.0090482095256447,-0.0224407762289047,standing,2026-03-04_13-51-29
1772632292793773300,3.654773193359375,-0.042316736198496,-0.0224424256935715,0.090486326611042,0.0182919092476367,-0.0213648248463869,-0.0283958688378334,standing,2026-03-04_13-51-29
1772632292803721500,3.664721435546875,0.0016898527830839,-0.083322718591988,0.2001414640724658,0.0009307460859417,-0.0589337982237339,-0.0319634266197681,standing,2026-03-04_13-51-29
1772632292813670400,3.67467041015625,0.0263979583863168,-0.0912200477130711,0.2874368856877088,-0.0230225250124931,-0.0790795534849166,-0.039135854691267,standing,2026-03-04_13-51-29
1772632292823618300,3.684618408203125,-0.0056144971472211,-0.065301324211061,0.2281523375481366,-0.0463387668132782,-0.075316235423088,-0.04854267090559,standing,2026-03-04_13-51-29
1772632292833567500,3.6945673828125,-0.0497813547244295,-0.0243194716118276,0.0622182635039091,-0.0591885186731815,-0.047598585486412,-0.0448435395956039,standing,2026-03-04_13-51-29
1772632292843515400,3.704515380859375,-0.0199306986009702,0.0368633113645017,-0.1218050094604492,-0.0641997754573822,-0.0089445207267999,-0.0309429112821817,standing,2026-03-04_13-51-29
1772632292853464300,3.71446435546875,-0.0244342936305329,0.1296769118793308,-0.1937485481649637,-0.0739562660455703,0.0163685586303472,-0.0170904789119958,standing,2026-03-04_13-51-29
1772632292863412500,3.72441259765625,-0.0227643145916983,0.135650141070038,-0.1519014570385217,-0.0706136301159858,0.0047423872165381,0.0020031118765473,standing,2026-03-04_13-51-29
1772632292873361400,3.734361328125,0.0730786619479768,0.0523896740593016,-0.2280313415169715,-0.0429982505738735,0.0059301569126546,0.0059629655443131,standing,2026-03-04_13-51-29
1772632292883309300,3.744309326171875,-0.0340909605743363,0.0677243135742843,-0.3184305743664503,-0.0055119185708463,0.0309650655835866,-0.0059433868154883,standing,2026-03-04_13-51-29
1772632292893258200,3.75425830078125,-0.1631721350502222,0.0757687960810959,-0.313873057192564,0.0270497538149356,0.0299112554639577,-0.0097788712009787,standing,2026-03-04_13-51-29
1772632292903206400,3.764206298828125,-0.0819916343850083,-0.0176414551526308,-0.2487351068496704,0.0432091616094112,0.0181806460022926,-0.0183825083076953,standing,2026-03-04_13-51-29
1772632292913155300,3.7741552734375,-0.0349627932391129,-0.0207559339113533,-0.0969295114010572,0.0471317321062088,0.0167947374284267,-0.0217056013643741,standing,2026-03-04_13-51-29
1772632292923103200,3.784103271484375,-0.0572925888710655,-0.007902882079035,0.0393535207450389,0.034486785531044,0.0196455623954534,-0.0260785333812236,standing,2026-03-04_13-51-29
1772632292933052400,3.794052490234375,-0.0546980788658373,-0.0090421152420341,0.1772813974887132,0.0080274827778339,0.0089753400534391,-0.0281869582831859,standing,2026-03-04_13-51-29
1772632292943000300,3.804000244140625,-0.0120695185055024,-0.0282907133303582,0.2478162384390831,-0.0170193836092948,0.0008792057633399,-0.0254764482378959,standing,2026-03-04_13-51-29
1772632292952949500,3.813949462890625,0.0144469151613302,-0.0209139009520411,0.2140297041714191,-0.0292147956788539,0.0120969731360673,-0.0240359455347061,standing,2026-03-04_13-51-29
1772632292962897400,3.8238974609375,-0.0270368956106714,0.0226319569163024,0.113211368638277,-0.0267247948795557,0.0280920509248971,-0.0233146529644727,standing,2026-03-04_13-51-29
1772632292972846600,3.8338466796875,-0.0437114054272882,0.0569913226358592,0.0260281752258539,-0.0151046235114336,0.0324361957609653,-0.0223101079463958,standing,2026-03-04_13-51-29
1772632292982794500,3.84379443359375,-0.0169548793942667,0.0586930119872093,0.0073725745946168,-0.0027965600602328,0.0243926513940095,-0.0193396192044019,standing,2026-03-04_13-51-29
1772632292992743400,3.853743408203125,0.0160439202954992,0.0429854475066065,0.0216331551373004,0.0096625071018934,0.0125572979450225,-0.0160024128854274,standing,2026-03-04_13-51-29
1772632293002691600,3.863691650390625,0.0065200128858909,0.036111031692475,0.0612444500356912,0.0142299262806773,-0.004313584882766,-0.0156923551112413,standing,2026-03-04_13-51-29
1772632293012640500,3.873640625,0.0149498414484784,0.0276673207350075,0.1065992570221424,0.0109856631606817,-0.0293907094746828,-0.0128310555592179,standing,2026-03-04_13-51-29
1772632293022588400,3.88358837890625,0.0323360431984066,0.0278377088658511,0.1121013615697622,0.0083447657525539,-0.036603145301342,-0.0053012520074844,standing,2026-03-04_13-51-29
1772632293032537300,3.893537353515625,0.0432867320081219,0.0424174383603036,0.0688525869518518,0.0052083609625697,-0.0262793991714715,-0.0023792320862412,standing,2026-03-04_13-51-29
1772632293042485500,3.903485595703125,0.0120465212224051,0.0681834555186331,0.0166799166440963,-0.004205007571727,-0.0111435279250144,0.000379554927349,standing,2026-03-04_13-51-29
1772632293052434400,3.913434326171875,-0.0345738852530717,0.0430647963531315,-0.0004003974944353,-0.0112972725182771,-0.0048155905678868,-0.0027163696940988,standing,2026-03-04_13-51-29
1772632293062382300,3.92338232421875,-0.0750499254883266,0.0178198804594576,-0.0046714989423751,-0.0163831058889627,-0.0037288735620677,-0.0101844128221273,standing,2026-03-04_13-51-29
1772632293072331500,3.93333154296875,-0.1082412520755082,0.0020379355683922,-0.0157785838901996,-0.0215600244700908,0.0001944953110069,-0.014175958931446,standing,2026-03-04_13-51-29
1772632293082279400,3.943279541015625,-0.0985163604673929,-0.0087814184792339,-0.0409223774969577,-0.0197863988578319,0.0020170558709651,-0.0173082742840051,standing,2026-03-04_13-51-29
1772632293092228400,3.953228271484375,-0.0814271689026616,-0.0113619364917278,-0.1063964279264211,-0.0121468547731637,0.0087905395776033,-0.0104935122653841,standing,2026-03-04_13-51-29
1772632293102176500,3.963176513671875,-0.0433263150998391,0.0153498370841145,-0.1301730248332023,0.0055576623417437,0.0138466460630297,-0.0002128398045897,standing,2026-03-04_13-51-29
1772632293112124400,3.97312451171875,-0.0139258869619108,0.040222412534058,-0.1624339569687843,0.023778211325407,0.0142786120995879,0.0080805104225873,standing,2026-03-04_13-51-29
1772632293122073300,3.9830732421875,-0.0129343369076028,0.0474238683454692,-0.1161211186051368,0.0431320443749427,0.0115803023800253,0.0215188693255186,standing,2026-03-04_13-51-29
1772632293132021500,3.993021484375,0.0118265400624833,-0.0355355698920786,-0.0435766913980245,0.0468879006803035,-0.0089223096147179,0.0164511408656835,standing,2026-03-04_13-51-29
1772632293141970400,4.002970458984375,-0.0750499985535629,-0.0708874537803232,0.0448866049528121,0.0402444005012512,-0.0158450193703174,0.0002042411360889,standing,2026-03-04_13-51-29
1772632293151918300,4.01291845703125,-0.1235514147363603,-0.1189222936309874,0.1158627599298953,0.0235455818474292,-0.0216701533645391,-0.0150032080709934,standing,2026-03-04_13-51-29
1772632293161867300,4.0228671875,-0.1421499331518076,-0.1402254861615598,0.1835889732003212,-0.0016515641473233,-0.0248815640807151,-0.0264802947640419,standing,2026-03-04_13-51-29
1772632293171815400,4.0328154296875,-0.1063920257459394,-0.1015888815142214,0.1482932034134864,-0.0134416446089744,-0.0108078215271234,-0.0278957672417163,standing,2026-03-04_13-51-29
1772632293181764400,4.042764404296875,-0.0618400961075909,-0.0424115931414067,0.0382470208078622,-0.0166909731924533,0.0098006362095475,-0.0221113730221986,standing,2026-03-04_13-51-29
1772632293191712300,4.052712158203125,-0.042801578839682,0.059432139916718,-0.0346101256102323,-0.013113547116518,0.0199193153530359,-0.015529902651906,standing,2026-03-04_13-51-29
1772632293201661400,4.062661376953125,-0.0042507527796551,0.081468907418847,-0.0350894335597753,-0.0100425537675619,0.0064163873903453,-0.0111076505854725,standing,2026-03-04_13-51-29
1772632293211609300,4.072609375,0.0060199909418821,0.0607348930783569,-0.0107692312955856,-0.0017366874963045,-0.0092730931937694,-0.011438681744039,standing,2026-03-04_13-51-29
1772632293221558300,4.082558349609375,-0.0278337450767867,0.0613162000976502,-0.0001338555127382,0.0034515457227826,-0.0138676343485713,-0.0157841481268405,standing,2026-03-04_13-51-29
1772632293231506400,4.09250634765625,-0.069432816258911,0.0636355829559266,-0.0374368734687566,0.0069181825965642,-0.0119528220966458,-0.0198899433016777,standing,2026-03-04_13-51-29
1772632293241455400,4.102455322265625,-0.0500776342572644,0.0807964149847626,-0.0710667558699846,0.0107456026598811,0.0003976603038609,-0.0168202482163906,standing,2026-03-04_13-51-29
1772632293251403800,4.11240380859375,-0.0323497429301962,0.1072755488485097,-0.078867200487852,0.0123746581375598,0.0108612198382616,-0.0147845279425382,standing,2026-03-04_13-51-29
1772632293261352700,4.122352783203125,-0.0490868331216275,0.1266135787859559,-0.0737093793332576,0.0123559460043907,0.0215688049793243,-0.0096692191436886,standing,2026-03-04_13-51-29
1772632293271300900,4.13230078125,-0.0152651544753462,0.1330298755690455,-0.0423807596117258,0.0123610058799386,0.0289569459855556,-0.0041194576770067,standing,2026-03-04_13-51-29
1772632293281249800,4.142249755859375,0.0053503480520099,0.133779671023041,0.0136497551679611,0.0099932588636875,0.0274939928203821,-0.002179253147915,standing,2026-03-04_13-51-29
1772632293291197700,4.15219775390625,-0.0152146298645064,0.0991908804617822,0.0667675973713397,0.0020458539947867,0.0186722707003355,-0.0033193523995578,standing,2026-03-04_13-51-29
1772632293301146600,4.162146728515625,-0.0442188617590814,0.0531457531236112,0.1240624329984188,-0.0036365268751978,0.0014565619640052,-0.0077580576762557,standing,2026-03-04_13-51-29
1772632293311094800,4.1720947265625,-0.0244708445149473,0.0571443212404847,0.1284860946595668,-0.0041704904288053,-0.0096520157530903,-0.0014626112533733,standing,2026-03-04_13-51-29
1772632293321043700,4.182043701171875,-0.0125498311020433,0.085196257378906,0.0737730922192335,0.0014077727682888,-0.0011079146061092,0.0074789449572563,standing,2026-03-04_13-51-29
1772632293330991900,4.191991943359375,-0.0156764386899769,0.1187836158126592,0.0272983412921428,0.0112548107281327,0.0126475784927606,0.0115016493946313,standing,2026-03-04_13-51-29
1772632293340940800,4.20194091796875,-0.0386097714393399,0.0872533360391855,0.0180558811724185,0.019974173977971,0.0201159045100212,0.0155463954433798,standing,2026-03-04_13-51-29
1772632293350888700,4.211888671875,-0.0576881457936018,0.0369954133115708,0.0531727872610092,0.0214642118662595,0.0099969571456313,0.0064311940222978,standing,2026-03-04_13-51-29
1772632293360837600,4.221837646484375,-0.0735042304162867,-0.0451896795526146,0.1639560519695282,0.0119536127895116,-0.0154116619378328,-0.0060972953215241,standing,2026-03-04_13-51-29
1772632293370785800,4.231785888671875,-0.0919861732473596,-0.1056321655556559,0.241855868729949,-0.0114654265344142,-0.048910766839981,-0.0227537713944911,standing,2026-03-04_13-51-29
1772632293380734700,4.241734619140625,-0.0909610131843946,-0.1373189510650932,0.2528372814714908,-0.0356898307800293,-0.068821020424366,-0.0315636992454528,standing,2026-03-04_13-51-29
1772632293390682600,4.2516826171875,-0.0627992417296394,-0.0908734262324869,0.1473795956999063,-0.0485776662826538,-0.0540106520056724,-0.0268552303314209,standing,2026-03-04_13-51-29
1772632293400631800,4.2616318359375,-0.0431175494536757,0.0005564648389816,-0.0264385095924139,-0.0496059320867061,-0.024524426087737,-0.015642512589693,standing,2026-03-04_13-51-29
1772632293410579700,4.271579833984375,-0.0460963095361366,0.0853553934633731,-0.2141810953408479,-0.0386145338416099,0.0018643031362444,0.0006922530010342,standing,2026-03-04_13-51-29
1772632293420529000,4.28152880859375,-0.048698838451039,0.101979342136532,-0.3327987069368362,-0.0152635294944047,0.0234288983047008,0.0111446594819426,standing,2026-03-04_13-51-29
1772632293430476800,4.291476806640625,-0.0867190647657029,0.0651698067858815,-0.3793126208305358,0.021752543747425,0.0379066430032253,0.0140261994674801,standing,2026-03-04_13-51-29
1772632293440426000,4.301426025390625,-0.1172887010797858,0.0375040934860706,-0.3483510808557272,0.0507220216095447,0.0329311713576316,0.0092399213463068,standing,2026-03-04_13-51-29
1772632293450374000,4.311373779296875,-0.1401517998708412,-0.0118130412600934,-0.2539490421056747,0.0685974210500717,0.0175253171473741,-0.0018944884650409,standing,2026-03-04_13-51-29
1772632293460322800,4.32132275390625,-0.1209906426039524,-0.052410278455913,-0.1063660327881574,0.0734165534377098,0.0008094194345176,-0.010529825463891,standing,2026-03-04_13-51-29
1772632293470271000,4.33127099609375,-0.0712086302923969,-0.0468558591991662,0.0517640895068645,0.0629932060837745,-0.0140763195231556,-0.0181957334280014,standing,2026-03-04_13-51-29
1772632293480219000,4.341218994140625,-0.0293105578973889,-0.0482477519489824,0.1607628088861703,0.0416344404220581,-0.0187472477555274,-0.0155260162428021,standing,2026-03-04_13-51-29
1772632293490167800,4.351167724609375,0.0193245676676742,-0.0125602063655853,0.2003553990840911,0.0158124305307865,-0.0111862681806087,-0.0109437806531786,standing,2026-03-04_13-51-29
1772632293500116000,4.361115966796875,0.0079230846168473,0.0055862756997346,0.2138163536816835,-0.0096947439014911,-0.0051499591208994,-0.0127588268369436,standing,2026-03-04_13-51-29
1772632293510065000,4.37106494140625,-0.0216600979431532,0.0041913142099976,0.1796861205428838,-0.0271421764045953,0.0042017307132482,-0.0158976279199123,standing,2026-03-04_13-51-29
1772632293520012800,4.3810126953125,-0.0283091257698833,0.0107397129401564,0.1141144549578428,-0.0343864485621452,0.018539410084486,-0.0194011330604553,standing,2026-03-04_13-51-29
1772632293529961700,4.390961669921875,-0.0183558504996821,0.0613571166299283,0.0602180295974016,-0.0327342227101326,0.022235345095396,-0.0209692008793354,standing,2026-03-04_13-51-29
1772632293539910000,4.400909912109375,0.0188183534448966,0.088484193008393,0.0039794250249862,-0.0234297756105661,0.0261916108429431,-0.010448707267642,standing,2026-03-04_13-51-29
1772632293549858800,4.41085888671875,0.0738859962754882,0.1135422080278396,-0.010205167672038,-0.0121811162680387,0.014490214176476,-7.64934811741e-05,standing,2026-03-04_13-51-29
1772632293559806700,4.420806640625,0.1123770001733675,0.131807348036766,0.0178320092886686,0.0028573279269039,-0.0105882016941905,0.0042579066939651,standing,2026-03-04_13-51-29
1772632293569756000,4.430755859375,0.0974025722729042,0.1062032434418797,0.0288724587410688,0.0130258090794086,-0.0359484180808067,0.009168243035674,standing,2026-03-04_13-51-29
1772632293579703800,4.440703857421875,0.0839377817504107,0.09801526081115,-0.0141992057442665,0.022218769416213,-0.0391325578093528,0.0148170329630374,standing,2026-03-04_13-51-29
1772632293589652700,4.45065283203125,0.0610054353817366,0.1083088374190032,-0.0467430464744567,0.0219958629459142,-0.0242707878351211,0.0177497062832117,standing,2026-03-04_13-51-29
1772632293599601000,4.460600830078125,0.0016841719609685,0.1056641681291162,-0.0487321744650602,0.011258739978075,-0.0060703759081661,0.0146541716530919,standing,2026-03-04_13-51-29
1772632293609549800,4.4705498046875,-0.0245644410825334,0.0799815914705395,-0.0226204126089811,-0.0014216350391507,0.0131280850619077,0.0185916535556316,standing,2026-03-04_13-51-29
1772632293619497700,4.480497802734375,-0.0087021792305633,0.0662798138543963,0.0016670564293861,-0.0128453001379966,0.0290144421160221,0.0241888929158449,standing,2026-03-04_13-51-29
1772632293629446700,4.49044677734375,-0.0029305735591799,0.067952277111262,0.0259404969424009,-0.0224968623369932,0.0274660810828208,0.0281479470431804,standing,2026-03-04_13-51-29
1772632293639394800,4.500394775390625,-0.0128340914035215,0.0440842025287449,0.0291699803829193,-0.0201897304505109,0.0162212271243333,0.0320078544318676,standing,2026-03-04_13-51-29
1772632293649343700,4.51034375,-0.001455605635792,0.0153425305604934,0.0208013804882764,-0.0054792277514934,0.0030484348535537,0.0369328372180461,standing,2026-03-04_13-51-29
1772632293659291600,4.520291748046875,-0.0065541526175104,0.0266410464271903,-0.0317623349636793,0.0130616091191768,-0.0037521615158766,0.0387492999434471,standing,2026-03-04_13-51-29
1772632293669240800,4.53024072265625,-0.0176125761180184,0.0059888651512563,-0.0255669874548912,0.0263659637421369,-0.0143504776060581,0.039954911917448,standing,2026-03-04_13-51-29
1772632293679188700,4.540188720703125,-0.0347944326685741,-0.000521247395128,0.0090735332936048,0.034491840749979,-0.0216945707798004,0.0401694700121879,standing,2026-03-04_13-51-29
1772632293689137700,4.5501376953125,-0.0334294644583016,-0.0318726634703576,0.0616951164126396,0.028652062639594,-0.0324156582355499,0.0358831100165843,standing,2026-03-04_13-51-29
1772632293699085800,4.5600859375,-0.0579967368187382,-0.0546852376505732,0.1209159516662359,0.0124781485646963,-0.0319287106394767,0.033907052129507,standing,2026-03-04_13-51-29
1772632293709034800,4.57003466796875,-0.0752777246285229,-0.0532820928543806,0.1122521682173013,-0.0024142474867403,-0.0218646265566349,0.0298718325793743,standing,2026-03-04_13-51-29
1772632293718982700,4.579982666015625,-0.0851190091579221,-0.0457946597084403,0.072938394960761,-0.0153135359287261,-0.0147609394043684,0.0254358202219009,standing,2026-03-04_13-51-29
1772632293728931800,4.589931884765625,-0.075886668573413,-0.0317019830785691,0.0416840095192194,-0.0255741626024246,-0.0062662540003657,0.0286425314843654,standing,2026-03-04_13-51-29
1772632293738879700,4.599879638671875,-0.0424885856340639,-0.0118473819211125,-0.01870586951375,-0.024217577651143,0.0088519286364316,0.0331622511148452,standing,2026-03-04_13-51-29
1772632293748829000,4.609828857421875,-0.0389990447515621,0.0151718501687049,-0.0636520956993103,-0.0138269886374473,0.0162928011268377,0.0353870540857315,standing,2026-03-04_13-51-29
1772632293758776800,4.61977685546875,-0.0576536772684194,0.0236421568721532,-0.0440939932703971,-0.0035860766656696,-0.0008154939860105,0.0308945719152688,standing,2026-03-04_13-51-29
1772632293768725800,4.629725830078125,-0.0567487095190212,-0.0024491467177867,-0.0190793790012598,0.0052281869575381,-0.0160469114780426,0.0308285262435674,standing,2026-03-04_13-51-29
1772632293778674000,4.639673828125,-0.0285604336498305,-0.009443389519304,-0.0485170704096555,0.0164968091994524,-0.0095664039254188,0.0338552221655845,standing,2026-03-04_13-51-29
1772632293788622800,4.649622802734375,-0.0625390746898017,0.0202659584373235,-0.0477297194242477,0.0216588135808706,-0.0081243021413683,0.0321087203919887,standing,2026-03-04_13-51-29
1772632293798570800,4.65957080078125,-0.0665260984993539,0.0255116040058434,-0.0156862294316291,0.0202659927308559,-0.016544122248888,0.0286117121577262,standing,2026-03-04_13-51-29
1772632293808520000,4.66952001953125,-0.0342726920831017,-0.0218356919720768,0.0426402873307466,0.0112000592052936,-0.0072859097272157,0.0347564220428466,standing,2026-03-04_13-51-29
1772632293818467800,4.6794677734375,-0.0186228126064874,-0.0009635843351483,0.0754606069147586,0.0025159548968076,0.0047885505482554,0.0371736362576484,standing,2026-03-04_13-51-29
1772632293828416800,4.689416748046875,-0.054623479259666,0.00936228710711,0.0920674583226442,-0.0053587462753057,0.005464993417263,0.0292190425097942,standing,2026-03-04_13-51-29
1772632293838365000,4.699364990234375,-0.0856153595738112,-0.0369920523107051,0.1230219840347766,-0.0152736380696296,-0.0004008684772998,0.0210257098078727,standing,2026-03-04_13-51-29
1772632293848313900,4.70931396484375,-0.084023469006177,-0.0524994180440902,0.1123696571171283,-0.0220958571881055,-0.0068835355341434,0.0213815085589885,standing,2026-03-04_13-51-29
1772632293858261800,4.71926171875,-0.053318990798667,-0.0342475759081542,0.0992617537409067,-0.0237557552754879,-0.0135423960164189,0.0189209207892417,standing,2026-03-04_13-51-29
1772632293868210000,4.7292099609375,-0.0856764421112835,-0.0259242764599621,0.0670037442147731,-0.0201418474316597,-0.0194769836962223,0.0144465435296297,standing,2026-03-04_13-51-29
1772632293878158800,4.739158935546875,-0.0666142699731513,-0.0231333305671811,0.0046820203363895,-0.0058474829420447,-0.0056990860030055,0.0249008182436227,standing,2026-03-04_13-51-29
1772632293888106800,4.749106689453125,-0.0304909815873019,0.0205064891949296,-0.071090136745572,0.0113192535936832,0.0121909650042653,0.0308508537709712,standing,2026-03-04_13-51-29
1772632293898055700,4.7590556640625,-0.0213997847728431,0.0532446834534406,-0.0571720860302448,0.0257919356226921,0.0088668074458837,0.0328072123229503,standing,2026-03-04_13-51-29
1772632293908003800,4.76900390625,-0.0252765348746441,0.0147419343188405,0.04287643417418,0.0243908464908599,-0.0211576707661151,0.0271695647388696,standing,2026-03-04_13-51-29
1772632293917952800,4.778952880859375,-0.0142312448503449,-0.0629828181356191,0.1737976470261812,0.0095371268689632,-0.0564959347248077,0.0143348798155784,standing,2026-03-04_13-51-29
1772632293927900700,4.788900634765625,-0.0402446060995571,-0.092973321121186,0.245233236208558,-0.0177677311003208,-0.0760406106710434,0.0031940774060785,standing,2026-03-04_13-51-29
1772632293937849900,4.798849853515625,-0.0911598602247424,-0.0720186497673392,0.2018546977311372,-0.0449576526880264,-0.0670568570494651,0.0008214237168431,standing,2026-03-04_13-51-29
1772632293947797800,4.8087978515625,-0.0650575785830616,-0.0226774034932255,0.0782423465877771,-0.0630386546254158,-0.0312170982360839,0.0108689982444047,standing,2026-03-04_13-51-29
1772632293957746700,4.81874658203125,-0.0501600518437102,0.0562213611766695,-0.0727104314237832,-0.0653242543339729,0.0096483621746301,0.0252454634755849,standing,2026-03-04_13-51-29
1772632293967694800,4.82869482421875,-0.0491291378933936,0.1102267998695373,-0.2051420488387346,-0.0485886856913566,0.0363297760486602,0.0388787165284156,standing,2026-03-04_13-51-29
1772632293977643800,4.838643798828125,-0.0576817891180515,0.099678810109198,-0.261637843042612,-0.0169803816825151,0.0337025560438632,0.0484068728983402,standing,2026-03-04_13-51-29
1772632293987591700,4.848591796875,-0.0494285774976946,0.0758700644984841,-0.226529120260477,0.0188260860741138,0.0101644704118371,0.0475227050483226,standing,2026-03-04_13-51-29
1772632293997540600,4.85854052734375,-0.0627789295939728,0.0289067994020879,-0.1463181039482355,0.0462585538625717,-0.0213487260043621,0.037037469446659,standing,2026-03-04_13-51-29
1772632294007488800,4.86848876953125,-0.0830159724640659,-0.0211648069731891,-0.0452127681672573,0.0570339672267437,-0.0424998179078102,0.0243933144956827,standing,2026-03-04_13-51-29
1772632294017437700,4.878437744140625,-0.0648267472355626,-0.0604315262176096,0.0169774382859468,0.0504408776760101,-0.0403578616678714,0.019908882677555,standing,2026-03-04_13-51-29
1772632294027385600,4.888385498046875,-0.0606411321139894,-0.0516667666122317,0.0658709407925605,0.0290146823972463,-0.0275342054665088,0.0158433020114898,standing,2026-03-04_13-51-29
1772632294037334800,4.898334716796875,-0.041603491628915,-0.032534049988538,0.1317237614065408,-0.0028328718617558,-0.0161446314305067,0.0156542547047138,standing,2026-03-04_13-51-29
1772632294047282700,4.90828271484375,-0.0092327424433082,-0.0408083957284688,0.1816840163618326,-0.0332783982157707,-0.0101490570232272,0.0218879133462905,standing,2026-03-04_13-51-29
1772632294057232000,4.91823193359375,0.0125551283316686,-0.0321168474897742,0.1338046593338251,-0.0500268191099166,-0.0007024572696536,0.0291813686490058,standing,2026-03-04_13-51-29
1772632294067179800,4.9281796875,0.0079292038303799,-0.0186636378072202,0.0439642294108867,-0.0490603595972061,0.0090433806180953,0.0264228656888008,standing,2026-03-04_13-51-29
1772632294077129000,4.93812890625,-0.0426035903158597,-0.0297705766245722,-0.0503670821905136,-0.0333809815347194,0.0212406869977712,0.0251724980771541,standing,2026-03-04_13-51-29
1772632294087076900,4.948076904296875,-0.0395549798675812,-0.0238324187472462,-0.1192699380248785,-0.0081214327365159,0.0343389138579368,0.0225498173385858,standing,2026-03-04_13-51-29
1772632294097025800,4.95802587890625,-0.0730454172655008,-0.0195519649490714,-0.1137099658101797,0.0141231827437877,0.0298336930572986,0.0130001902580261,standing,2026-03-04_13-51-29
1772632294106974000,4.967973876953125,-0.079033898824267,-0.0305108735978603,-0.0270832372367382,0.0231161434203386,0.0088405273854732,0.0021222424693405,standing,2026-03-04_13-51-29
1772632294116923000,4.9779228515625,-0.0276418392338789,-0.0768352562688291,0.0792149910122156,0.0067015439271926,0.0036857579834759,0.0036025627050548,standing,2026-03-04_13-51-29
1772632294126870800,4.987870849609375,-0.0056999469409696,-0.033889848511666,0.185521402567625,-0.0140729770064353,-0.0175260528922081,0.0171300880610942,standing,2026-03-04_13-51-29
1772632294136819700,4.99781982421875,0.0367610565664246,0.0211697754092514,0.2123433585196733,-0.023548612371087,-0.0447217300534248,0.0222052242606878,standing,2026-03-04_13-51-29
1772632294146768000,5.007767822265625,0.0491008981795981,-0.0090605276815593,0.1429366448163986,-0.027479438111186,-0.0634719803929328,0.0123363491147756,standing,2026-03-04_13-51-29
1772632294156716800,5.017716796875,-0.0495638212499208,0.0020158698670566,0.0173982940465211,-0.0239846613258123,-0.0307974852621555,0.0160162337124347,standing,2026-03-04_13-51-29
1772632294166665000,5.0276650390625,-0.104074688714277,0.0162032390430569,-0.1478179871171712,-0.0142838302999734,0.0128416046500206,0.0172852296382188,standing,2026-03-04_13-51-29
1772632294176614000,5.03761376953125,-0.1538896534473635,0.0503827181510627,-0.2061053409129381,-0.0041963174007833,0.0312447007745504,0.0117048490792512,standing,2026-03-04_13-51-29
1772632294186561800,5.047561767578125,-0.1297375012264587,0.0075875325195491,-0.1446399416029453,0.0013278778642416,0.0232573468238115,0.0121522601693868,standing,2026-03-04_13-51-29
1772632294196510700,5.0575107421875,-0.0341267990726977,-0.023942893384397,-0.0909036752402782,0.011696308851242,0.0195287857204675,0.0220563970506191,standing,2026-03-04_13-51-29
1772632294206459000,5.067458984375,-0.0169801599659956,0.0176933314703404,-0.0616939473688602,0.0215848907828331,0.0116128036752343,0.0266884341835975,standing,2026-03-04_13-51-29
1772632294216407800,5.07740771484375,-0.0471830453269183,0.0125051151774823,0.0154991824269294,0.0226957406848669,-0.0124463513493537,0.0188325475901365,standing,2026-03-04_13-51-29
1772632294226355700,5.087355712890625,-0.0750917553360573,-0.0721437374517321,0.0830295808643102,0.0195705220103263,-0.0258215460926294,0.0113506633788347,standing,2026-03-04_13-51-29
1772632294236304600,5.0973046875,-0.0806079432079568,-0.0993701825514435,0.0722387222588062,0.0105407079681754,-0.013763528317213,0.0053196037188172,standing,2026-03-04_13-51-29
1772632294246252800,5.107252685546875,-0.1131619948049075,-0.07217559389472,0.0682692341059446,0.0042846761643886,-0.0080949896946549,-2.42954120039e-05,standing,2026-03-04_13-51-29
1772632294256201500,5.117201416015625,-0.115885501484666,-0.0455401004254817,0.0876169086545705,-0.0054107648320496,-0.0134335458278656,-0.000721359392628,standing,2026-03-04_13-51-29
1772632294266149600,5.127149658203125,-0.0190408370891585,-0.035269904693216,0.0892804579526185,-0.0123032927513122,-0.0112870372831821,0.009964307770133,standing,2026-03-04_13-51-29
1772632294276097300,5.13709716796875,0.0102052955362014,-0.0117420218504965,0.0343704716354608,-0.0090536493808031,0.0012770935427397,0.0119762178510427,standing,2026-03-04_13-51-29
1772632294286046500,5.14704638671875,-0.0470661957479082,0.0185704065658152,-0.001165536648035,-0.0019075889140367,-0.0059416708536446,0.0037353329826146,standing,2026-03-04_13-51-29
1772632294295994600,5.15699462890625,-0.1034514422493986,-0.0153990830533206,0.0047375499159097,-0.0048952992074191,-0.0152392024174332,-0.002436737762764,standing,2026-03-04_13-51-29
1772632294305943600,5.166943603515625,-0.083757639410533,-0.0401338574677705,-0.0052139352560043,-0.0029059178195893,-0.0055932337418198,-0.0031462039332836,standing,2026-03-04_13-51-29
1772632294315891500,5.176891357421875,-0.0618347806116566,-0.0090672496832907,-0.0331499899297952,-0.0061789420433342,0.0082272412255406,-0.0039030741900205,standing,2026-03-04_13-51-29
1772632294325840400,5.18684033203125,-0.0802231268751434,0.0261361656449735,0.0102115974128246,-0.0119990147650241,-0.0045463452115654,-0.0074429484084248,standing,2026-03-04_13-51-29
1772632294335788500,5.19678857421875,-0.0461511267296038,0.0207699624367058,0.0321352599292993,-0.015935119241476,-0.0057158982381224,-6.44871033728e-05,standing,2026-03-04_13-51-29
1772632294345737500,5.206737548828125,0.0349136568677611,0.0351569458380341,-0.0099064769864082,-0.0069935545325279,0.0217359662055969,0.0150220543146133,standing,2026-03-04_13-51-29
1772632294355685400,5.216685302734375,0.0142700972897,0.0854939251512289,-0.0768845022380352,0.0100261233747005,0.032509796321392,0.0191351398825645,standing,2026-03-04_13-51-29
1772632294365634600,5.226634521484375,-0.0095026819584891,0.1009086441650986,-0.0148573773920536,0.0168174505233764,-0.004066324327141,0.0141081567853689,standing,2026-03-04_13-51-29
1772632294375582500,5.23658251953125,-0.0160539302328601,0.0296336523719131,0.0883791251987218,0.015407146885991,-0.0465831495821476,0.007148568984121,standing,2026-03-04_13-51-29
1772632294385531400,5.246531494140625,-0.0232078936407342,-0.0006521802984178,0.0809422531962394,0.0132792815566062,-0.038408312946558,0.0069818547926843,standing,2026-03-04_13-51-29
1772632294395479600,5.2564794921875,-0.0573133028655312,0.0483633411526679,0.0296469502449035,0.0084617054089903,0.0005256971344351,0.0081593692302703,standing,2026-03-04_13-51-29
1772632294405428500,5.266428466796875,-0.071373611595761,0.0800625477522611,0.0062660746574401,-0.0062370793893933,0.0206421501934528,0.0100001469254493,standing,2026-03-04_13-51-29
1772632294415376400,5.27637646484375,-0.0549538071925751,0.0483776619389653,0.0290951615810394,-0.0146329347044229,0.0414838641881942,0.0184976793825626,standing,2026-03-04_13-51-29
1772632294425325300,5.2863251953125,0.0032887576133944,0.0182514037445187,0.0561579405516386,-0.0169267151504755,0.0448748655617237,0.0193863771855831,standing,2026-03-04_13-51-29
1772632294435273500,5.2962734375,-0.0264761929879896,-0.0027864158481359,0.1347580145359039,-0.0197000280022621,0.0069231977686285,0.0116560850292444,standing,2026-03-04_13-51-29
1772632294445222400,5.306222412109375,-0.0261462851801887,-0.0471397907070815,0.2232680726379156,-0.0279060266911983,-0.0434238612651824,0.0052794120274484,standing,2026-03-04_13-51-29
1772632294455170300,5.31617041015625,0.0021015936554409,-0.1045277114450931,0.1841238107293844,-0.030060026794672,-0.0550379864871501,0.0018056635744869,standing,2026-03-04_13-51-29
1772632294465119500,5.326119384765625,-0.0147469575538299,-0.0397168010994792,0.0566594603329896,-0.0254953689873218,-0.0344677306711673,0.0029779868200421,standing,2026-03-04_13-51-29
1772632294475067400,5.3360673828125,-0.081035685367044,0.0213094761408865,-0.0385164853990077,-0.0304718762636184,-0.0198996216058731,0.0034583928063511,standing,2026-03-04_13-51-29
1772632294485016300,5.346016357421875,-0.0638315987183712,0.0082680621296167,-0.0886632028371095,-0.0280329510569572,0.0007958030328154,0.012912880629301,standing,2026-03-04_13-51-29
1772632294494964500,5.355964599609375,-0.0221831171702593,0.0267380770608782,-0.1696791057914495,-0.0121981687843799,0.0295708663761615,0.0248818676918745,standing,2026-03-04_13-51-29
1772632294504913400,5.365913330078125,-0.0753562697574496,0.0666134297229349,-0.1987631614565849,0.0084996530786156,0.0349864065647125,0.0212831385433673,standing,2026-03-04_13-51-29
1772632294514861300,5.375861328125,-0.1290188680957071,0.0174310272723436,-0.1364975516796112,0.0246687661856412,0.0111897010356187,0.0123298726975917,standing,2026-03-04_13-51-29
1772632294524810200,5.385810302734375,-0.0603345138502307,-0.036331104183942,-0.0481371311813592,0.0284709613770246,-0.004403106868267,0.0115394461899995,standing,2026-03-04_13-51-29
1772632294534758400,5.39575830078125,-0.053638523342926,-0.0417278486609458,0.0297381356596946,0.0261876322329044,-0.0073411790654063,0.0049557075835764,standing,2026-03-04_13-51-29
1772632294544707300,5.405707275390625,-0.0861240762809291,-0.0333059111438691,0.0737643243908882,0.0124334711581468,-0.0070847170427441,-0.0054212994873523,standing,2026-03-04_13-51-29
1772632294554655200,5.4156552734375,-0.0828716868888586,-0.0464176139123737,0.1206084931522607,-0.0115189505741,-0.0062453001737594,-0.0088044134899973,standing,2026-03-04_13-51-29
1772632294564604400,5.4256044921875,-0.0593449365573003,-0.0560528727419674,0.1394552324414253,-0.0292609296739101,-0.0011248402297496,-0.0109120393171906,standing,2026-03-04_13-51-29
1772632294574552300,5.43555224609375,-0.0951761649277061,-0.0262985165998339,0.1100099422484636,-0.0406782291829586,0.0050687086768448,-0.0171178802847862,standing,2026-03-04_13-51-29
1772632294584501500,5.44550146484375,-0.1115640032900497,0.0052289866946637,0.0523836827099323,-0.0430369898676872,0.00646393885836,-0.0150456745177507,standing,2026-03-04_13-51-29
1772632294594449400,5.455449462890625,-0.0444168685492128,0.0167404146596789,-0.0196826055914163,-0.0339024513959884,0.013888175599277,-0.0090115424245595,standing,2026-03-04_13-51-29
1772632294604398600,5.465398681640625,-0.0076565609014593,0.0333846754685044,-0.0999070659071207,-0.0140062430873513,0.031777162104845,0.0012440243735909,standing,2026-03-04_13-51-29
1772632294614346500,5.475346435546875,-0.0371275883238762,0.0729956781059503,-0.1534013402074575,0.0129619995132088,0.0401869192719459,0.0034509715624153,standing,2026-03-04_13-51-29
1772632294624295400,5.48529541015625,-0.0708913079715333,0.0657692339837551,-0.1005091234534978,0.0304688215255737,0.0230489447712898,0.0024341763928532,standing,2026-03-04_13-51-29
1772632294634243600,5.49524365234375,-0.046422198755946,0.0200147601552307,0.0109364045560359,0.0356606990098953,-0.00827865768224,-0.0007025805534794,standing,2026-03-04_13-51-29
1772632294644192500,5.505192626953125,-0.0403143651338294,-0.0282787306316196,0.1096194816261529,0.0261452235281467,-0.0359156094491481,-0.0098297661170363,standing,2026-03-04_13-51-29
1772632294654140400,5.515140380859375,-0.0658002136439084,-0.0291395852446556,0.1602127737879753,0.0056594628840684,-0.0384845696389675,-0.0146065484732389,standing,2026-03-04_13-51-29
1772632294664088600,5.525088623046875,-0.0594216733216308,-0.0353292336650192,0.1533306130588054,-0.0182764958590269,-0.0179007314145565,-0.0131359510123729,standing,2026-03-04_13-51-29
1772632294674037500,5.53503759765625,-0.0490302440961822,0.0133460960462689,0.1024047279417514,-0.038908950984478,0.0082375481724739,-0.0098740672692656,standing,2026-03-04_13-51-29
1772632294683985400,5.5449853515625,-0.0581580465939827,0.0360274450622499,0.0413128381192684,-0.0461231879889965,0.0250032134354114,-0.0047453511506319,standing,2026-03-04_13-51-29
1772632294693934300,5.554934326171875,-0.0493475664170458,0.0378140362180769,-0.0225023391872644,-0.0374963320791721,0.0291261188685894,-0.001052527455613,standing,2026-03-04_13-51-29
1772632294703882500,5.564882568359375,-0.0370906355806626,0.0484242775596678,-0.0613619389355182,-0.0205916538834571,0.0196359436959028,-0.0005515867378562,standing,2026-03-04_13-51-29
1772632294713831400,5.57483154296875,-0.0271478086392395,0.0389952088266611,-0.0729372259169817,0.0005783005617558,0.0082609439268708,0.0051609869115054,standing,2026-03-04_13-51-29
1772632294723779300,5.584779296875,-0.0110218360834755,0.0397283454068005,-0.0617272651165723,0.021821804344654,-0.0096823703497648,0.0014490731991827,standing,2026-03-04_13-51-29
1772632294733728500,5.594728515625,-0.0264662013169378,0.0154012750104069,-0.0385381127089262,0.0287817530333995,-0.0263993386179208,-0.0048890700563788,standing,2026-03-04_13-51-29
1772632294743676400,5.604676513671875,-0.0328751550437882,-0.0120889355920255,-0.0228559749305248,0.0270594879984855,-0.0196780525147914,3.4235417842e-06,standing,2026-03-04_13-51-29
1772632294753625300,5.614625244140625,-0.0012358071389608,-0.0150556764431297,-0.0263029005140066,0.0179360881447792,0.0053313253447413,0.0051400056108832,standing,2026-03-04_13-51-29
1772632294763573500,5.624573486328125,-0.0142723988446407,0.0096137776501476,0.0097451489448547,0.002672447822988,0.0126944324001669,0.0058526676148176,standing,2026-03-04_13-51-29
1772632294773522400,5.6345224609375,-0.0263233405138365,-0.008777619086951,0.0840285287737846,-0.0138876419514417,0.0065280715934932,0.0077324071899056,standing,2026-03-04_13-51-29
1772632294783470300,5.64447021484375,-0.0101164664752781,-0.0337045550726354,0.088453359478712,-0.0204888191074132,0.0059491000138223,0.0139551497995853,standing,2026-03-04_13-51-29
1772632294793419300,5.654419189453125,-0.0192787009656429,-0.0086178984805941,0.049948564517498,-0.0164864957332611,0.0026131609920412,0.0094940653070807,standing,2026-03-04_13-51-29
1772632294803367400,5.664367431640625,-0.0759880465886555,-0.0124549924254417,0.0224573310017585,-0.0112198274582624,-0.0104826670140028,-0.000104499515146,standing,2026-03-04_13-51-29
1772632294813316400,5.67431640625,-0.0919587372511625,-0.0472303915999829,-0.0184025026530027,-0.0051317368634045,-0.0121273100376129,-0.0033108880743384,standing,2026-03-04_13-51-29
1772632294823264300,5.68426416015625,-0.0822419558842666,-0.038285745383054,-0.0725567021667957,0.0034321900457143,0.0051166568882763,-0.0036291358992457,standing,2026-03-04_13-51-29
1772632294833213400,5.69421337890625,-0.0994596326668746,0.0173236213751137,-0.0924573344230651,0.0096441227942705,0.0200428254902362,-0.0045390557497739,standing,2026-03-04_13-51-29
1772632294843161300,5.704161376953125,-0.105603779711388,0.0311279825828969,-0.0379939228296279,0.0052922507748007,0.0167985614389181,-0.005700193811208,standing,2026-03-04_13-51-29
1772632294853110300,5.7141103515625,-0.0709215021803975,0.0128330319575965,0.0478337643206119,0.0001267553307116,0.0095225181430578,-0.0053720441646873,standing,2026-03-04_13-51-29
1772632294863058400,5.724058349609375,-0.0292828479065559,0.0112223818905651,0.0636953503191471,-0.0025688968598842,0.0055317711085081,-0.0002513180952519,standing,2026-03-04_13-51-29
1772632294873007400,5.73400732421875,-0.0375769212602637,0.0277120366595685,0.0786889213114976,-0.0038021747022867,0.0004395004361867,-0.0056701395660638,standing,2026-03-04_13-51-29
1772632294882955300,5.743955322265625,-0.074681293105334,0.0226166132166981,0.0730664052546024,-0.0053156493231654,-0.0023224637843668,-0.0117301624268293,standing,2026-03-04_13-51-29
1772632294892904400,5.753904541015625,-0.0687746263448148,0.021464228311181,0.0557774168014526,-0.0057218954898417,0.0070905634202063,-0.009525092318654,standing,2026-03-04_13-51-29
1772632294902852400,5.763852294921875,-0.0551795239735394,0.0473214308843016,0.0513759669721126,-0.0091200899332761,0.0086027067154645,-0.0126580353826284,standing,2026-03-04_13-51-29
1772632294912801500,5.773801513671875,-0.076351783600822,0.0496329226970672,0.0735123954564332,-0.0125749520957469,0.0056558176875114,-0.0153391622006893,standing,2026-03-04_13-51-29
1772632294922749400,5.78374951171875,-0.0428555923155508,0.0211377728357911,0.0799865599066019,-0.0156743396073579,0.0188243482261896,-0.0053680213168263,standing,2026-03-04_13-51-29
1772632294932698400,5.793698486328125,0.0038869975011795,0.0356391763970255,0.08118366073668,-0.0156669747084379,0.0314218029379844,0.0051910742186009,standing,2026-03-04_13-51-29
1772632294942646500,5.803646484375,0.0030866774363443,0.0448215768925845,0.1250491059482097,-0.0193751603364944,0.0092935990542173,0.0024586706422269,standing,2026-03-04_13-51-29
1772632294952595500,5.813595458984375,-0.0164983495321124,-0.0369128495946526,0.1681178478240966,-0.0196712110191583,-0.0217696819454431,-0.003406869713217,standing,2026-03-04_13-51-29
1772632294962543400,5.82354345703125,-0.0385549177132546,-0.0669926382988691,0.1591770009994506,-0.0204635020345449,-0.0351954735815525,-0.0134480521082878,standing,2026-03-04_13-51-29
1772632294972492500,5.833492431640625,-0.0929264497721567,-0.0574308830969035,0.0976467197597026,-0.0294108185917139,-0.046535238623619,-0.0283015016466379,standing,2026-03-04_13-51-29
1772632294982440400,5.8434404296875,-0.1294543369035236,-0.0463791815981268,0.0522860675543546,-0.0414214059710502,-0.0484931915998458,-0.0351093411445617,standing,2026-03-04_13-51-29
1772632294992389400,5.853389404296875,-0.0802690849087201,-0.046715427815169,-0.035921792730689,-0.048078566789627,-0.0234922263771295,-0.0288984831422567,standing,2026-03-04_13-51-29
1772632295002337500,5.863337646484375,-0.0466007519269362,0.0140548288375139,-0.1594815369039773,-0.0450233854353427,0.0143648739904165,-0.0139469634741544,standing,2026-03-04_13-51-29
1772632295012286500,5.873286376953125,-0.0154557451440021,0.0992487481288611,-0.2521153969377279,-0.0292626935988664,0.0437829308211803,0.0024885351303964,standing,2026-03-04_13-51-29
1772632295022234400,5.883234375,0.0258114272026345,0.1204964110799133,-0.277414088845253,-0.0064039835706353,0.0550955049693584,0.020513342693448,standing,2026-03-04_13-51-29
1772632295032183300,5.893183349609375,0.0325869492195546,0.0715025169387459,-0.2241939553111791,0.0194635167717933,0.0463393367826938,0.0233499594032764,standing,2026-03-04_13-51-29
1772632295042131500,5.90313134765625,-0.0198339054292999,0.0139122054964303,-0.1480880362302064,0.0434056036174297,0.0222816709429025,0.0121140833944082,standing,2026-03-04_13-51-29
1772632295052080400,5.913080322265625,-0.0729720597683452,-0.0190536600381135,-0.0261772283077239,0.0481613166630268,-0.0089622624218463,-0.0040674991905689,standing,2026-03-04_13-51-29
1772632295062028300,5.9230283203125,-0.0794611295267008,-0.0804217364534735,0.1027279685467481,0.0352503098547458,-0.0285641923546791,-0.011974424123764,standing,2026-03-04_13-51-29
1772632295071977500,5.9329775390625,-0.0462559936098754,-0.0831641670294106,0.1975035167843103,0.0099963480606675,-0.0254716407507658,-0.0135344816371798,standing,2026-03-04_13-51-29
1772632295081925400,5.94292529296875,-0.0503910110553726,-0.0416993532188236,0.221100080949068,-0.0179575234651565,-0.0152754615992307,-0.0144743109121918,standing,2026-03-04_13-51-29
1772632295091874300,5.952874267578125,-0.0140151726805604,-0.0101188045628368,0.1788385638028383,-0.0357118025422096,0.0003611810971051,-0.0082615967839956,standing,2026-03-04_13-51-29
1772632295101822500,5.962822509765625,-0.0096676815281622,0.0294432443663477,0.0999058968633413,-0.0440011583268642,0.0184019654989242,-0.0016116831684485,standing,2026-03-04_13-51-29
1772632295111771400,5.972771484375,-0.0094834292687475,0.0605520838573575,0.0133399585664272,-0.0415693148970603,0.0266528576612472,0.001399329630658,standing,2026-03-04_13-51-29
1772632295121719300,5.98271923828125,-0.0368355648410506,0.0397872359871864,-0.0137409405827522,-0.0334120504558086,0.023620318621397,-0.0029410901479423,standing,2026-03-04_13-51-29
1772632295131668200,5.992668212890625,-0.0421301458515226,0.0121498719990253,-0.0522036499679088,-0.0187252052128314,0.0185167416930198,-0.0040591787546873,standing,2026-03-04_13-51-29
1772632295141616400,6.002616455078125,-0.0343072884724475,0.0235544785887002,-0.0814320825397968,-0.0013225115835666,0.0156455878168344,-0.0035409273114055,standing,2026-03-04_13-51-29
1772632295151565300,6.0125654296875,-0.022267927643191,0.0135170686990022,-0.0827437496602535,0.0123796127736568,0.0129432464018464,0.0016788346692919,standing,2026-03-04_13-51-29
1772632295161513200,6.02251318359375,-0.0024504436257295,0.0176879246428608,-0.055153731945157,0.0170625150203704,0.004636313766241,0.0038964487612247,standing,2026-03-04_13-51-29
1772632295171462400,6.03246240234375,0.0040529103863053,0.0184296829208731,0.0216945299357175,0.0143489111214876,-0.0119719356298446,0.0044018505141139,standing,2026-03-04_13-51-29
1772632295181410300,6.042410400390625,-0.0194696569604799,-0.0241587280921638,0.0788964265823364,0.008010322228074,-0.0212948638945817,-0.0016941253561526,standing,2026-03-04_13-51-29
1772632295191359500,6.052359375,-0.0486627442243509,-0.0486747451893985,0.0564735823720693,-0.0019402587786316,-0.0160754639655351,-0.0041632503271102,standing,2026-03-04_13-51-29
1772632295201307400,6.062307373046875,-0.0662856956059113,-0.0403584600038826,0.0328039529711008,-0.0130794625729322,0.0042609660886228,-0.0055366423912346,standing,2026-03-04_13-51-29
1772632295211256600,6.072256591796875,-0.0657779835457913,-0.0262780583336949,0.0023205519020557,-0.0212509892880916,0.0193482227623462,-0.0014712989795953,standing,2026-03-04_13-51-29
1772632295221204500,6.08220458984375,-0.0606345745090395,-0.0228520294077694,-0.0006914893954992,-0.0272678695619106,0.023721931502223,0.0014661676250398,standing,2026-03-04_13-51-29
1772632295231153400,6.0921533203125,-0.0538306301152333,-0.0356251478716731,-0.0234819978743791,-0.0189990848302841,0.0281563159078359,0.0023968061432242,standing,2026-03-04_13-51-29
1772632295241101600,6.1021015625,-0.0743710215797647,-0.0444378382720053,-0.0629126755088567,-0.0023820241913199,0.0261349752545356,-0.0047188936732709,standing,2026-03-04_13-51-29
1772632295251050500,6.112050537109375,-0.1106538844414986,-0.0415939931482076,-0.0662958882063627,0.00844372715801,0.0125557566061615,-0.0133762815967202,standing,2026-03-04_13-51-29
1772632295260998400,6.121998291015625,-0.1161213743334636,-0.0782056678391993,-0.0440647671759128,0.0192934460937976,0.003689293982461,-0.0195705275982618,standing,2026-03-04_13-51-29
1772632295270947600,6.131947509765625,-0.0896059635799378,-0.0557534514039754,-0.0072317048192024,0.0198397133499383,-1.28969550132e-05,-0.0241478104144334,standing,2026-03-04_13-51-29
1772632295280895500,6.1418955078125,-0.0923378910281695,-0.0534485354624688,0.0284644624620676,0.0124832633882761,-0.0041312091052532,-0.0260879229754209,standing,2026-03-04_13-51-29
1772632295290844400,6.151844482421875,-0.0840899949037469,-0.0572689705334603,0.0728472095459699,-0.0013761469163,-0.0101089011877775,-0.0262159369885921,standing,2026-03-04_13-51-29
1772632295300792600,6.16179248046875,-0.056739649429731,-0.0237662216432392,0.0620142653644084,-0.0092876013368368,-0.000156668247655,-0.0207133144140243,standing,2026-03-04_13-51-29
1772632295310741500,6.171741455078125,-0.0555241726927459,0.0214949157103896,0.0031575872480869,-0.0098292883485555,0.0221318304538726,-0.0171555802226066,standing,2026-03-04_13-51-29
1772632295320689400,6.181689453125,-0.0651098750258795,0.0675732146658003,-0.0297276142656803,-0.0052864686585962,0.0262197833508253,-0.0156708694994449,standing,2026-03-04_13-51-29
1772632295330638300,6.191638427734375,-0.078798555698432,0.0422585945367813,-0.0246504571318626,-0.0003337878733873,0.0143167842179536,-0.0238675475120544,standing,2026-03-04_13-51-29
1772632295340586500,6.20158642578125,-0.0974009283050894,0.0024165596224367,-0.0267886382043361,0.0044409940019249,0.0053192959167063,-0.0328431986272335,standing,2026-03-04_13-51-29
1772632295350535400,6.211535400390625,-0.0910492211908102,0.0221716459281742,-0.0003863689690828,0.0064313914626836,0.0054149432107806,-0.0302465315908193,standing,2026-03-04_13-51-29
1772632295360483300,6.2214833984375,-0.0395118348455987,0.066470660251379,-0.0117132341474294,0.0051030069589614,0.0055880481377244,-0.0200373046100139,standing,2026-03-04_13-51-29
1772632295370432300,6.231432373046875,0.0242775869651697,0.0946427156381309,0.0215711958169937,0.0041231717914342,0.004617694299668,-0.0087546976283192,standing,2026-03-04_13-51-29
1772632295380380400,6.24138037109375,0.050556101956591,0.0978401965051889,0.0599736994475126,0.00214684009552,0.0007691602222621,0.0014880856033414,standing,2026-03-04_13-51-29
1772632295390329300,6.251329345703125,0.0601623173547908,0.0994677977070212,0.0665448945313692,0.0009532654657959,-0.0023671085946261,0.0052203978411853,standing,2026-03-04_13-51-29
1772632295400277500,6.261277587890625,0.0241162223909981,0.0782251031920313,0.0708954909563064,-0.0006925682537257,-0.0061115128919482,0.0021915845572948,standing,2026-03-04_13-51-29
1772632295410225400,6.271225341796875,-0.0296159705847501,0.0460578406892716,0.0775391667544841,-0.0044464953243732,-0.0080078700557351,-0.0025622325483709,standing,2026-03-04_13-51-29
1772632295420174300,6.28117431640625,-0.0633946320732124,0.0194485045745968,0.0613438187569379,-0.0095400577411055,-0.0050863828510046,-0.0115924794226884,standing,2026-03-04_13-51-29
1772632295430122500,6.29112255859375,-0.0616893077263608,-0.001871492960304,0.0445849916577339,-0.0108319669961929,0.0064232037402689,-0.012660713866353,standing,2026-03-04_13-51-29
1772632295440071400,6.301071533203125,-0.0450607559433206,0.0205630416877567,-0.0116255558639764,-0.0038739261217415,0.0316566526889801,-0.0074845938943326,standing,2026-03-04_13-51-29
1772632295450019300,6.311019287109375,0.0030425277673639,0.0402077994868159,-0.0453828640371561,0.0024927938356995,0.0459697507321834,0.0016902445349842,standing,2026-03-04_13-51-29
1772632295459968300,6.32096826171875,0.0397894279442727,0.0352772112168371,0.0141384154677391,0.0087126065045595,0.0285681262612342,0.0072802193462848,standing,2026-03-04_13-51-29
1772632295469916400,6.33091650390625,0.0566963400109671,-0.0088550682373344,0.1377852534025907,0.0031152721494436,-0.0162536408752203,0.0042924522422254,standing,2026-03-04_13-51-29
1772632295479865300,6.340865234375,0.0303496368878521,-0.0936481516428291,0.2296674182862043,-0.0107984133064746,-0.0581044182181358,-0.0109930271282792,standing,2026-03-04_13-51-29
1772632295489813200,6.350813232421875,-0.0312935484081506,-0.130531629012525,0.1929442460447549,-0.0243477784097194,-0.064228743314743,-0.0247999280691146,standing,2026-03-04_13-51-29
1772632295499762200,6.36076220703125,-0.0958842583981342,-0.0978711761653423,0.0764981332689523,-0.0398388542234897,-0.0449501164257526,-0.0303033497184515,standing,2026-03-04_13-51-29
1772632295509710300,6.37071044921875,-0.1276311765969731,-0.0352520767755806,-0.0822188490033149,-0.0459235347807407,-0.0161159504204988,-0.0248675141483545,standing,2026-03-04_13-51-29
1772632295519659500,6.380659423828125,-0.075108615139313,0.0400393110521137,-0.241516261512041,-0.0303336568176746,0.0193493664264678,-0.0044692973606288,standing,2026-03-04_13-51-29
1772632295529607400,6.390607421875,-0.0285864814065396,0.1234573067121207,-0.3766758425861596,0.0018815393559634,0.0441096015274524,0.0174775309860706,standing,2026-03-04_13-51-29
1772632295539556600,6.400556640625,-0.0163892448681406,0.1618253235511481,-0.4167547549962997,0.0453195609152317,0.0496090278029441,0.0274228397756814,standing,2026-03-04_13-51-29
1772632295549504500,6.41050439453125,-0.0430659471306018,0.1053117014296352,-0.3590536766558885,0.0832900032401084,0.0363005027174949,0.0266965702176094,standing,2026-03-04_13-51-29
1772632295559453400,6.420453369140625,-0.0947363122057169,0.0304426306672394,-0.2360229247927665,0.1023095026612281,0.0154620641842484,0.0123176304623484,standing,2026-03-04_13-51-29
1772632295569401600,6.430401611328125,-0.1347217193798162,-0.0372602017275989,-0.052904491713643,0.1005108579993248,-0.0006352495402097,-0.0045637395232915,standing,2026-03-04_13-51-29
1772632295579350500,6.4403505859375,-0.1379131906311959,-0.0558655334763228,0.1114075340867042,0.0758206844329834,-0.0034760434646159,-0.0150182452052831,standing,2026-03-04_13-51-29
1772632295589298400,6.45029833984375,-0.0968976184254512,-0.0504683506079018,0.2453238371014595,0.0352479629218578,0.0041591208428144,-0.01657060906291,standing,2026-03-04_13-51-29
1772632295599247400,6.460247314453125,-0.0602274002139456,-0.0359923737488687,0.3407441129833459,-0.0085349362343549,0.0015215256717056,-0.0158041510730981,standing,2026-03-04_13-51-29
1772632295609195500,6.470195556640625,-0.0258742267731577,-0.0161177527166903,0.3638537704139947,-0.0423779487609863,-0.0118689443916082,-0.0143773015588521,standing,2026-03-04_13-51-29
1772632295619144400,6.48014453125,0.0026878143118694,-0.008282382915914,0.2832897028803825,-0.050489667803049,-0.0132324825972318,-0.0066397530026733,standing,2026-03-04_13-51-29
1772632295629092400,6.49009228515625,0.0031632863365113,0.0560040651641786,0.0772328772842884,-0.0340797118842601,0.0078377164900302,-0.0048276507295668,standing,2026-03-04_13-51-29
1772632295639041500,6.50004150390625,-0.0434683173864148,0.0839683230191469,-0.1132055234193801,-0.0039356593042612,0.0259754415601491,-0.0077621880918741,standing,2026-03-04_13-51-29
1772632295648989400,6.509989501953125,-0.0809295763777568,0.069284840889275,-0.1958715316683054,0.0242692418396472,0.0291628241539001,-0.0111391181126236,standing,2026-03-04_13-51-29
1772632295658938400,6.5199384765625,-0.0724062243128195,0.0428301108144223,-0.1587123060971498,0.0462914556264877,0.0210923813283443,-0.0142323793843388,standing,2026-03-04_13-51-29
1772632295668886500,6.529886474609375,-0.0333846572021953,0.0192450909569859,-0.0422398898363113,0.0496356934309005,0.0047793141566216,-0.0139476284384727,standing,2026-03-04_13-51-29
1772632295678835500,6.53983544921875,0.0080831522830761,0.030820962460339,0.0691191289335489,0.0364967249333858,-0.0218584220856428,-0.0107744727283716,standing,2026-03-04_13-51-29
1772632295688783400,6.549783447265625,0.053845078765694,0.0264009540610015,0.1555997270345687,0.0189023334532976,-0.0339966490864753,-0.0002167772036045,standing,2026-03-04_13-51-29
1772632295698732300,6.559732177734375,0.065665572679881,0.0413552159562706,0.142833184441924,0.0009771296754479,-0.0221136268228292,0.0025387955829501,standing,2026-03-04_13-51-29
1772632295708680400,6.569680419921875,-0.0219360288077034,0.0299433028429746,0.0739484487861394,-0.0108086923137307,-0.0001183412969112,-0.0077319359406828,standing,2026-03-04_13-51-29
1772632295718629400,6.57962939453125,-0.103094262842182,0.0006816986538469,-0.0186392340183258,-0.0198916681110858,0.0225028153508901,-0.0136665236204862,standing,2026-03-04_13-51-29
1772632295728577300,6.589577392578125,-0.1136615966238081,-0.0072157765977084,-0.0624742840915918,-0.0162864960730075,0.0396040268242359,-0.0190280992537736,standing,2026-03-04_13-51-29
1772632295738526500,6.5995263671875,-0.0924871267731301,0.01227627485767,-0.0685223320841789,-0.0104214148595929,0.0436871834099292,-0.0155457500368356,standing,2026-03-04_13-51-29
