time,seconds_elapsed,acc_x,acc_y,acc_z,gyr_x,gyr_y,gyr_z,activity,session
1772632603171506400,0.06650634765625,-0.1552954833909869,-0.459092698379606,0.2547445763975381,-0.0273639392107725,-0.0481459200382232,0.2249958962202072,standing,2026-03-04_13-56-43
1772632603181455400,0.076455322265625,-0.0880072231464088,-0.350178150152415,0.3067944971084594,-0.0753284990787506,-0.0751429051160812,0.0787611678242683,standing,2026-03-04_13-56-43
1772632603191404500,0.086404541015625,-0.1082460013158619,-0.2769713135138154,0.4084405156373977,-0.1493143141269683,-0.1614101529121399,-0.052231203764677,standing,2026-03-04_13-56-43
1772632603201353500,0.096353515625,-0.2588153329677879,-0.2878520423598587,0.4064057949393987,-0.1365821212530136,-0.2090770155191421,-0.1418427228927612,standing,2026-03-04_13-56-43
1772632603211302400,0.106302490234375,-0.4172280715964734,-0.540740761757642,0.2383715337455272,-0.0384539514780044,-0.2400596886873245,-0.1879505664110183,standing,2026-03-04_13-56-43
1772632603221250600,0.11625048828125,-0.4082281880609691,-0.6949564870879054,0.2694897255867719,0.0245349444448947,-0.3345046937465668,-0.2309207767248153,standing,2026-03-04_13-56-43
1772632603231199500,0.126199462890625,-0.2621624514386058,-0.5653579011417925,0.6431687244445086,-0.00896149687469,-0.4980648756027221,-0.2831427156925201,standing,2026-03-04_13-56-43
1772632603241148400,0.1361484375,-0.0333772958796471,-0.2332216036364436,1.0940239019632338,-0.0891389176249504,-0.698797345161438,-0.2892082035541534,standing,2026-03-04_13-56-43
1772632603251097300,0.146097412109375,0.1862839113727211,0.0907929083421826,1.14114104244709,-0.15186408162117,-0.8291308283805847,-0.2480330765247345,standing,2026-03-04_13-56-43
1772632603261045500,0.15604541015625,0.2124568288315087,0.2993487111471593,0.767504129165411,-0.2118361145257949,-0.8705828189849854,-0.1887297332286834,standing,2026-03-04_13-56-43
1772632603270994400,0.165994384765625,0.0096622199017554,0.4941856390707194,0.4730892211586237,-0.4424727857112884,-0.6431712508201599,-0.0457574091851711,standing,2026-03-04_13-56-43
1772632603280943400,0.175943359375,-0.109367552691698,1.0941862529180943,0.1241904432922601,-0.5727430582046509,0.0031606834381818,0.1047824248671531,standing,2026-03-04_13-56-43
1772632603290892500,0.185892578125,-0.3269619636073708,1.208385901941359,-0.5668371799141169,-0.621536135673523,0.6596328020095825,0.2509425580501556,standing,2026-03-04_13-56-43
1772632603300841500,0.195841552734375,-0.5488588209573179,0.6381019425742328,-0.6978887411475181,-0.6533724069595337,1.07821786403656,0.3198485672473907,standing,2026-03-04_13-56-43
1772632603310789600,0.20578955078125,-0.4901714349932968,0.1072098632011562,-0.4525087899446487,-0.6537098288536072,1.0700438022613523,0.3616468906402588,standing,2026-03-04_13-56-43
1772632603320738600,0.215738525390625,-0.2911671582572162,-0.2613675747338682,-0.237297767034173,-0.5576141476631165,0.7186355590820312,0.3567783534526825,standing,2026-03-04_13-56-43
1772632603330687500,0.2256875,-0.3941191448181867,-0.7055356757041067,-0.2413081717193126,-0.3491954207420349,0.3027216792106628,0.2405068576335907,standing,2026-03-04_13-56-43
1772632603340636400,0.235636474609375,-0.7538219330325723,-0.85770455150716,-0.2829939348042011,-0.101982370018959,-0.1149401292204856,0.1039617359638214,standing,2026-03-04_13-56-43
1772632603350584600,0.24558447265625,-0.6999468427211046,-0.9491833232216536,-0.2098591404885053,0.1614314317703247,-0.5155162811279297,0.003517685458064,standing,2026-03-04_13-56-43
1772632603360533500,0.255533447265625,-0.5641062205802649,-0.9094832540612668,-0.2225263143599033,0.3855574429035187,-0.8329758644104004,-0.1042603328824043,standing,2026-03-04_13-56-43
1772632603370482400,0.265482421875,-0.4481890270493924,-0.5592628722023218,-0.2962982375353574,0.5155522227287292,-1.0284487009048462,-0.1822643280029297,standing,2026-03-04_13-56-43
1772632603380431400,0.275431396484375,-0.2679959798976778,-0.138846891284734,-0.3824631938159465,0.555370569229126,-0.95882248878479,-0.1764023452997207,standing,2026-03-04_13-56-43
1772632603390380300,0.28538037109375,-0.0639922143738716,0.2719233094092458,-0.4027613009572028,0.5199633240699768,-0.8563192486763,-0.140743151307106,standing,2026-03-04_13-56-43
1772632603400328400,0.295328369140625,-0.1359564305402338,0.5745591524682939,-0.0724754536241292,0.42375048995018,-0.6750580072402954,-0.0275615863502025,standing,2026-03-04_13-56-43
1772632603410277600,0.305277587890625,0.0938053880311548,0.7151963612359017,0.3262064690649509,0.2409910708665847,-0.331864982843399,0.1371709108352661,standing,2026-03-04_13-56-43
1772632603420226600,0.3152265625,0.3254601807422936,0.524403374940902,0.5924924301743507,0.018722329288721,0.0956450775265693,0.2480173259973526,standing,2026-03-04_13-56-43
1772632603430175500,0.325175537109375,0.1115167666148394,-0.0661308338377624,0.703215489128232,-0.2047211527824401,0.3029196858406067,0.2446561455726623,standing,2026-03-04_13-56-43
1772632603440123600,0.33512353515625,-0.5251441103056073,-0.4156646216720342,0.7198463059335947,-0.3807669281959533,0.3614045679569244,0.1590742766857147,standing,2026-03-04_13-56-43
1772632603450072600,0.345072509765625,-0.8700789529770612,-0.3615322686638683,0.4724982695281505,-0.4715141355991363,0.4226825833320617,0.0685555636882782,standing,2026-03-04_13-56-43
1772632603460021500,0.355021484375,-0.7670384113498032,-0.2803779070869088,0.1740916615366935,-0.4493976235389709,0.431100845336914,-0.0046521360054612,standing,2026-03-04_13-56-43
1772632603469970400,0.364970458984375,-0.4776475420501083,-0.1547965939581394,-0.0264858558654785,-0.3388130664825439,0.3184288740158081,-0.0592959374189376,standing,2026-03-04_13-56-43
1772632603479918600,0.374918701171875,-0.1057041348133236,-0.036553953154385,-0.068887658265233,-0.1911972463130951,0.1067721545696258,-0.0656950771808624,standing,2026-03-04_13-56-43
1772632603489867500,0.384867431640625,0.3151956840984523,-0.0198010443393141,-0.0515226819664239,-0.0358329676091671,-0.1064266711473465,-0.0453447997570037,standing,2026-03-04_13-56-43
1772632603499816400,0.39481640625,0.5378005435872822,0.0266734143268316,-0.0926537337779998,0.1332518309354782,-0.2681315541267395,-0.0260983891785144,standing,2026-03-04_13-56-43
1772632603509765400,0.404765380859375,0.5174531174115836,0.1257344578638672,-0.1057160444468259,0.2649850845336914,-0.3780990540981293,-0.0104232896119356,standing,2026-03-04_13-56-43
1772632603519714600,0.414714599609375,0.3905911898877471,0.2178148487333208,0.1751186664968728,0.3018646836280823,-0.4395601451396942,0.002576048253104,standing,2026-03-04_13-56-43
1772632603529662700,0.424662841796875,0.3512101235486566,0.1863585109788924,0.5662000510543584,0.260304182767868,-0.4509622156620025,0.0154582904651761,standing,2026-03-04_13-56-43
1772632603539611600,0.434611572265625,0.3520630140509456,0.0416697617981582,0.7931412592470646,0.1655984222888946,-0.4273127913475036,0.0136817656457424,standing,2026-03-04_13-56-43
1772632603549560600,0.444560546875,0.2502626817431301,-0.1133420823458582,0.844305044773221,0.0297508370131254,-0.3770624101161957,-0.0162859875708818,standing,2026-03-04_13-56-43
1772632603559509500,0.454509521484375,0.0347528950817883,-0.2257503179077059,0.8138672364115714,-0.1396209001541137,-0.3019184172153473,-0.0564755387604236,standing,2026-03-04_13-56-43
1772632603569457400,0.46445751953125,-0.024547654344514,-0.2209676136758178,0.6635480801284313,-0.2874114215373993,-0.1850378513336181,-0.0788199976086616,standing,2026-03-04_13-56-43
1772632603579406600,0.474406494140625,0.0096220340218394,-0.1050161525491625,0.3423942182779312,-0.3880477845668793,-0.0583554096519947,-0.0904989093542099,standing,2026-03-04_13-56-43
1772632603589355800,0.484355712890625,-0.0330513518609106,-0.0490912901010364,-0.0257885212510824,-0.4335305690765381,0.0463829860091209,-0.1080462113022804,standing,2026-03-04_13-56-43
1772632603599304700,0.4943046875,-0.0505143817067146,-0.0687736764967441,-0.4110913224071264,-0.4319775700569153,0.1417509168386459,-0.1186868846416473,standing,2026-03-04_13-56-43
1772632603609253600,0.504253662109375,-0.0697832188654691,-0.1060842201720923,-0.753272190195322,-0.3786387145519256,0.2394196838140487,-0.1257336139678955,standing,2026-03-04_13-56-43
1772632603619201500,0.514201416015625,-0.0736196552231907,-0.0705559568036347,-0.9631628948658704,-0.2945442795753479,0.3002582788467407,-0.1246629208326339,standing,2026-03-04_13-56-43
1772632603629150700,0.524150634765625,0.0348662923283875,-0.0463493709817528,-1.005115199932456,-0.2012447118759155,0.3187733590602875,-0.104299858212471,standing,2026-03-04_13-56-43
1772632603639099600,0.534099609375,0.1905664840627461,-0.1001977924820035,-0.8714455651551485,-0.1145906075835228,0.3038238286972046,-0.0704148486256599,standing,2026-03-04_13-56-43
1772632603649048600,0.544048583984375,0.2435419951859861,-0.1492149944335222,-0.6067588559359312,-0.0428849942982196,0.2464276552200317,-0.0438649989664554,standing,2026-03-04_13-56-43
1772632603658996500,0.55399658203125,0.2352999442804604,-0.2308062861230224,-0.294131999412179,0.00316644879058,0.1573669016361236,-0.0220714099705219,standing,2026-03-04_13-56-43
1772632603668945700,0.563945556640625,0.2916919127836823,-0.3488593226388096,-0.0374427186876535,0.028201762586832,0.0314198806881904,-7.23679549992e-05,standing,2026-03-04_13-56-43
1772632603678894600,0.57389453125,0.3289559869688004,-0.4305566319860517,0.1197486614525318,0.0461644008755683,-0.0848731622099876,0.0115503259003162,standing,2026-03-04_13-56-43
1772632603688843800,0.58384375,0.2495068949397653,-0.4703947213776409,0.1462678350657224,0.0549773350358009,-0.1578533798456192,0.0115798879414796,standing,2026-03-04_13-56-43
1772632603698792700,0.593792724609375,0.1397679516524076,-0.4430320096123963,0.1440349614471197,0.0444758310914039,-0.1858832836151123,-0.0011143084848299,standing,2026-03-04_13-56-43
1772632603708740600,0.60374072265625,0.0143292618647217,-0.4322238345459103,0.0722124187737703,0.0298436246812343,-0.1667820215225219,-0.0135147850960493,standing,2026-03-04_13-56-43
1772632603718689800,0.613689697265625,-0.0731665776934474,-0.3648546180196106,-0.0249526549488306,0.0081889294087886,-0.1105903834104538,-0.0259173922240734,standing,2026-03-04_13-56-43
1772632603728638700,0.623638671875,-0.1596536786004901,-0.2783614526979625,-0.0878811125487089,-0.0144026651978492,-0.0400539003312587,-0.0523242354393005,standing,2026-03-04_13-56-43
1772632603738587600,0.633587646484375,-0.241545706802234,-0.2482671240117401,-0.2559592128843069,-0.0245066061615943,0.062731996178627,-0.0821151658892631,standing,2026-03-04_13-56-43
1772632603748535600,0.64353564453125,-0.2606851454276591,-0.1702832091644406,-0.3853951556146144,-0.030970100313425,0.1749810427427292,-0.0993319749832153,standing,2026-03-04_13-56-43
1772632603758484500,0.653484375,-0.171632212620601,-0.0620715485095977,-0.3090963443100452,-0.0382296741008758,0.2487407326698303,-0.1081692352890968,standing,2026-03-04_13-56-43
1772632603768433700,0.66343359375,-0.0385711381956934,-0.0284098096653819,-0.1520803207367658,-0.0514767728745937,0.2746993601322174,-0.1124273613095283,standing,2026-03-04_13-56-43
1772632603778382600,0.673382568359375,0.0951430663757026,-0.0455008643936365,-0.0548988804012536,-0.0605747997760772,0.2883823215961456,-0.1155539378523826,standing,2026-03-04_13-56-43
1772632603788331500,0.68333154296875,0.1285757457043975,-0.0610345336120575,0.0154880765110254,-0.0685661509633064,0.3053583800792694,-0.1139997169375419,standing,2026-03-04_13-56-43
1772632603798279400,0.693279541015625,0.1632763991422951,0.0005178863942623,0.1254284606546163,-0.0769701451063156,0.2987450659275055,-0.1105724722146987,standing,2026-03-04_13-56-43
1772632603808228600,0.703228515625,0.2269317097119987,0.0535963464353233,0.2398030278533697,-0.0815811455249786,0.2487969398498535,-0.1040325462818145,standing,2026-03-04_13-56-43
1772632603818177800,0.713177734375,0.3466436193507164,0.0481175496980547,0.2704647080987691,-0.0809306502342224,0.1555436998605728,-0.09248548746109,standing,2026-03-04_13-56-43
1772632603828126700,0.723126708984375,0.4615322735514491,0.096351346186921,0.161761172273755,-0.0654861852526664,0.0709734186530113,-0.073221243917942,standing,2026-03-04_13-56-43
1772632603838074600,0.73307470703125,0.4642991809815168,0.1971323453843593,0.0047451487004756,-0.0423763953149318,0.0318631641566753,-0.042923666536808,standing,2026-03-04_13-56-43
1772632603848023600,0.7430234375,0.4402816879909485,0.2897976234696805,-0.117388946583867,-0.0129979997873306,0.0181406941264867,-0.0158403851091861,standing,2026-03-04_13-56-43
1772632603857972700,0.75297265625,0.3276463656749576,0.3262842104762792,-0.1940361329346895,0.0186247676610946,0.0159122962504625,0.0026464534457772,standing,2026-03-04_13-56-43
1772632603867921700,0.762921630859375,0.1948383892282843,0.3073172788735478,-0.2591998022407293,0.0622872933745384,0.0250328239053487,0.0152123114094138,standing,2026-03-04_13-56-43
1772632603877870600,0.77287060546875,0.0946565249677747,0.254807266370207,-0.3617424773484468,0.0985356867313385,0.0549770034849643,-0.0004291902296245,standing,2026-03-04_13-56-43
1772632603887818500,0.782818603515625,-0.1090966267958283,0.2853906206823885,-0.4216594781726598,0.1151759177446365,0.1019290685653686,-0.0148342289030551,standing,2026-03-04_13-56-43
1772632603897767400,0.792767333984375,-0.1242403468485921,0.3408222927860915,-0.3465934235334396,0.1258775293827057,0.1650899201631546,-0.0048951562494039,standing,2026-03-04_13-56-43
1772632603907716600,0.802716552734375,0.0301161751918494,0.3109351040445268,-0.2240127535253763,0.1126312315464019,0.189434140920639,0.0076858829706907,standing,2026-03-04_13-56-43
1772632603917665800,0.812665771484375,0.059132353252545,0.2627242500398308,-0.0966506944596767,0.0857517570257186,0.1970136314630508,0.0146244131028652,standing,2026-03-04_13-56-43
1772632603927613700,0.82261376953125,0.0604324030004441,0.2083143952645361,0.0305243176013231,0.0490012019872665,0.212108701467514,0.0313237644731998,standing,2026-03-04_13-56-43
1772632603937562600,0.832562744140625,0.1008607133701443,0.1585791812367737,0.130496265438199,0.0039955000393092,0.2178218364715576,0.0534129180014133,standing,2026-03-04_13-56-43
1772632603947511600,0.842511474609375,0.1347201667435467,0.1212674685176461,0.206073776730895,-0.0356938540935516,0.220371276140213,0.0743221938610076,standing,2026-03-04_13-56-43
1772632603957460700,0.852460693359375,0.1023415265124291,0.0771962716009467,0.279146611726284,-0.0671451985836029,0.208707720041275,0.0870594829320907,standing,2026-03-04_13-56-43
1772632603967409700,0.86240966796875,0.0205175220455974,0.0046916649475693,0.2758914093226194,-0.0816261395812034,0.1665562689304351,0.0881804078817367,standing,2026-03-04_13-56-43
1772632603977357600,0.872357666015625,-0.0344048853617161,-0.0426348074380308,0.1812836188673973,-0.0733648240566253,0.1017403826117515,0.080863706767559,standing,2026-03-04_13-56-43
1772632603987306500,0.882306396484375,-0.0682646309960633,-0.0495478747621178,0.0044458734929561,-0.0408438965678215,0.0515408664941787,0.0861721858382225,standing,2026-03-04_13-56-43
1772632603997255700,0.892255615234375,-0.0915974296581,0.0216099203921854,-0.1591729093462228,0.000206611584872,0.0157157536596059,0.0929667577147483,standing,2026-03-04_13-56-43
1772632604007204600,0.90220458984375,-0.1467882787432521,0.1094927865065634,-0.2840320456802845,0.049535010010004,0.0122991856187582,0.1053009256720542,standing,2026-03-04_13-56-43
1772632604017152500,0.912152587890625,-0.1549959159225225,0.1645112746994942,-0.3870364930808544,0.0956303775310516,0.0432284697890281,0.1239195615053176,standing,2026-03-04_13-56-43
1772632604027101400,0.922101318359375,-0.1569775912590325,0.2007175834599882,-0.3865291280806064,0.1322408616542816,0.1036526635289192,0.1452368348836898,standing,2026-03-04_13-56-43
1772632604037050600,0.932050537109375,-0.1822115473672747,0.212768159803003,-0.2470019994467496,0.1452209949493408,0.1682799905538559,0.1586167812347412,standing,2026-03-04_13-56-43
1772632604046999800,0.941999755859375,-0.1632199927799403,0.1877669895373284,-0.0064016837358474,0.1391812115907669,0.1944546103477478,0.1709943562746048,standing,2026-03-04_13-56-43
1772632604056948700,0.95194873046875,-0.0742610218666493,0.1369884039364755,0.2811304790198802,0.1198628321290016,0.1318691223859787,0.1796819120645523,standing,2026-03-04_13-56-43
1772632604066896600,0.961896728515625,0.0441901471212506,0.0195526225361973,0.4873866265803575,0.0899009332060813,-0.0170862656086683,0.1836505532264709,standing,2026-03-04_13-56-43
1772632604076845600,0.971845458984375,0.1431895966641604,-0.0922450068466365,0.4620259753525257,0.074035108089447,-0.1830411553382873,0.1888498216867447,standing,2026-03-04_13-56-43
1772632604086794500,0.98179443359375,0.117419780113548,-0.1615351084329187,0.1978068836450576,0.0763850808143615,-0.2852593958377838,0.1783910542726516,standing,2026-03-04_13-56-43
1772632604096743700,0.99174365234375,-0.075927566839382,-0.1012540966019034,-0.1296358492165804,0.0888330712914466,-0.2937692701816559,0.1615349799394607,standing,2026-03-04_13-56-43
1772632604106691600,1.001691650390625,-0.3098766079675406,0.016203604369238,-0.4075198936611414,0.099067598581314,-0.2306307703256607,0.1364330947399139,standing,2026-03-04_13-56-43
1772632604116640500,1.011640625,-0.4317809861492365,0.0965160352293401,-0.5456488459348678,0.101688414812088,-0.1396364122629165,0.1143735870718956,standing,2026-03-04_13-56-43
1772632604126589400,1.02158935546875,-0.410030342112109,0.1177846679031848,-0.6783592802911996,0.1009584441781044,-0.0332098454236984,0.1104579418897628,standing,2026-03-04_13-56-43
1772632604136538600,1.03153857421875,-0.3483660592291503,0.1587431396268308,-0.7521160058975219,0.1065752953290939,0.079802855849266,0.1141092479228973,standing,2026-03-04_13-56-43
1772632604146486500,1.041486572265625,-0.3293515621576458,0.2281922311671078,-0.722234662374854,0.1100861430168151,0.1727141588926315,0.112237311899662,standing,2026-03-04_13-56-43
1772632604156435700,1.051435791015625,-0.3399303123824298,0.1874609192628413,-0.6338292336910962,0.1234564334154129,0.2382120639085769,0.1094482690095901,standing,2026-03-04_13-56-43
1772632604166384600,1.061384521484375,-0.3645349576111882,0.0679656480494886,-0.5368915389835834,0.1521589159965515,0.2746845781803131,0.0898924097418785,standing,2026-03-04_13-56-43
1772632604176333600,1.07133349609375,-0.416531321503967,-0.0065887307405471,-0.362950684094429,0.1796049773693084,0.2827040255069732,0.0597564838826656,standing,2026-03-04_13-56-43
1772632604186282800,1.08128271484375,-0.3709178635813295,-0.0039715339794754,-0.0914718305170536,0.2040059268474578,0.2619212567806244,0.0402419045567512,standing,2026-03-04_13-56-43
1772632604196230700,1.091230712890625,-0.2256708959959447,0.0375744553085416,0.1900876875698566,0.2094389647245407,0.2090013325214386,0.042905181646347,standing,2026-03-04_13-56-43
1772632604206179600,1.1011796875,-0.021947335653007,0.0896346782177686,0.4333019851714372,0.2088986039161682,0.1356512159109115,0.0677838996052742,standing,2026-03-04_13-56-43
1772632604216128500,1.11112841796875,0.1690028139650821,0.1472123493742197,0.5847609591394662,0.1984097063541412,0.0544591546058654,0.1015139073133468,standing,2026-03-04_13-56-43
1772632604226077400,1.121077392578125,0.2518850953131914,0.2007124688934534,0.6657400372147559,0.1806229948997497,-0.0287585034966468,0.1316619515419006,standing,2026-03-04_13-56-43
1772632604236025600,1.131025634765625,0.2232470298498868,0.1984351716112345,0.7137795532405377,0.1560027450323104,-0.1156503930687904,0.1487227380275726,standing,2026-03-04_13-56-43
1772632604245974500,1.140974609375,0.1399026839479804,0.1636105995327234,0.6698141547858715,0.130731463432312,-0.1730098128318786,0.150450587272644,standing,2026-03-04_13-56-43
1772632604255923500,1.15092333984375,-0.0508690403632819,0.1074266477569937,0.5468336718052625,0.1042533442378044,-0.191397875547409,0.1319421678781509,standing,2026-03-04_13-56-43
1772632604265872600,1.16087255859375,-0.2868802747182548,0.0574133474402129,0.4204857582181692,0.0740277990698814,-0.1898745596408844,0.0885052233934402,standing,2026-03-04_13-56-43
1772632604275821600,1.170821533203125,-0.4438707254588603,-0.003694470603764,0.276406957629323,0.0495806783437728,-0.1808333843946457,0.0430029034614563,standing,2026-03-04_13-56-43
1772632604285769700,1.180769775390625,-0.4767923134602606,-0.0141325702488422,0.0863864900767803,0.0353426225483417,-0.1532600820064544,0.0117861283943057,standing,2026-03-04_13-56-43
1772632604295718700,1.19071875,-0.4092120114665478,0.0545602960966527,-0.0642465544611215,0.0241701081395149,-0.113782450556755,0.0035956453066319,standing,2026-03-04_13-56-43
1772632604305667600,1.20066748046875,-0.3021920448143035,0.1443704770117998,-0.1526274332255125,0.0165731757879257,-0.0620950274169445,0.0126820839941501,standing,2026-03-04_13-56-43
1772632604315616500,1.210616455078125,-0.2362562220919877,0.2362828909032046,-0.1977332338869571,0.0166162010282278,-0.0137490630149841,0.0306228622794151,standing,2026-03-04_13-56-43
1772632604325564700,1.220564697265625,-0.2532004887606948,0.3059956018157303,-0.1656675320625305,0.0186319481581449,0.01830873824656,0.0408006645739078,standing,2026-03-04_13-56-43
1772632604335513600,1.230513671875,-0.3315617855530232,0.2407072832167148,-0.0990028105437755,0.0253956392407417,0.0167834162712097,0.0307090207934379,standing,2026-03-04_13-56-43
1772632604345462500,1.240462646484375,-0.4102770834147929,0.1589825013406574,-0.0343564431101083,0.0371031612157821,-0.0046960436739027,0.0153391221538186,standing,2026-03-04_13-56-43
1772632604355411500,1.250411376953125,-0.3455545089397579,0.1617125108264386,0.0145130939990282,0.0493313334882259,-0.0247536413371562,0.0181575436145067,standing,2026-03-04_13-56-43
1772632604365360400,1.2603603515625,-0.2273328378587961,0.184988026343286,0.0387929642528295,0.0673212558031082,-0.0282991081476211,0.0288365520536899,standing,2026-03-04_13-56-43
1772632604375308500,1.27030859375,-0.1617422483775764,0.1904071287825703,0.0873842689424753,0.0812899619340896,-0.0242228731513023,0.0332000628113746,standing,2026-03-04_13-56-43
1772632604385257700,1.2802578125,-0.162937084185332,0.1141812365837395,0.1906044049203395,0.082362949848175,-0.0252529866993427,0.0313720628619194,standing,2026-03-04_13-56-43
1772632604395206700,1.29020654296875,-0.1478935365714132,0.0355630424208939,0.2884446014255285,0.0669710859656333,-0.0370246842503547,0.0231706667691469,standing,2026-03-04_13-56-43
1772632604405155600,1.300155517578125,-0.0944240313861519,-0.0684836075089871,0.3846960674345493,0.0406864844262599,-0.0666259825229644,0.0162184853106737,standing,2026-03-04_13-56-43
1772632604415103700,1.310103759765625,-0.0009979249961674,-0.1375229492045938,0.4225052813470363,0.0145110981538891,-0.089958481490612,0.0175259411334991,standing,2026-03-04_13-56-43
1772632604425052700,1.320052734375,0.0828343505531549,-0.127750035469979,0.4027905270516872,-0.0079406816512346,-0.1019640117883682,0.0238522794097661,standing,2026-03-04_13-56-43
1772632604435001600,1.330001708984375,0.0768999190028756,-0.1006825803242623,0.3440706270575523,-0.0257445964962244,-0.1103529706597328,0.020201226696372,standing,2026-03-04_13-56-43
1772632604444950500,1.339950439453125,-0.0232918821297585,-0.0807730341091752,0.2755009487003088,-0.0347961485385894,-0.1357185095548629,0.0070822276175022,standing,2026-03-04_13-56-43
1772632604454899500,1.3498994140625,-0.0408984120994806,-0.0795221572652459,0.2217243503272533,-0.0427136160433292,-0.1677396893501281,-0.0046597328037023,standing,2026-03-04_13-56-43
1772632604464847600,1.35984765625,-0.0712302758686244,-0.0775982034653425,0.1798795972883701,-0.0473208837211132,-0.1973852068185806,-0.0270148403942585,standing,2026-03-04_13-56-43
1772632604474796500,1.369796630859375,-0.1531483152944594,-0.0828134538955986,0.0462123005986213,-0.0408622957766056,-0.2110604047775268,-0.0606187917292118,standing,2026-03-04_13-56-43
1772632604484745500,1.379745361328125,-0.1867847005017101,-0.02655292975232,-0.176698044642806,-0.0255704242736101,-0.1894525736570358,-0.0810020864009857,standing,2026-03-04_13-56-43
1772632604494694700,1.389694580078125,-0.1249573360115289,0.1118295588910579,-0.3763870887726545,-0.0051825451664626,-0.1214602142572403,-0.0744583904743194,standing,2026-03-04_13-56-43
1772632604504642800,1.399642822265625,-0.0145960961073637,0.2843438881084322,-0.4489660027712583,0.0105444863438606,-0.0289302803575992,-0.04337078332901,standing,2026-03-04_13-56-43
1772632604514591700,1.409591796875,0.0808621736973524,0.3858592659950256,-0.3775140469759702,0.013926850631833,0.0365571193397045,-0.0037689195014536,standing,2026-03-04_13-56-43
1772632604524540700,1.419540771484375,0.15410780797638,0.3641640054069459,-0.1718511891335248,0.0090186446905136,0.0593449883162975,0.0322886854410171,standing,2026-03-04_13-56-43
1772632604534489600,1.429489501953125,0.1955269560143351,0.2557834179259836,0.0385714304566383,-0.0035153967328369,0.0390931144356727,0.0543377622961998,standing,2026-03-04_13-56-43
1772632604544437800,1.439437744140625,0.1715667461689561,0.1533785438537597,0.2236199548155069,-0.0169678218662738,-0.0029555344954133,0.0677960515022277,standing,2026-03-04_13-56-43
1772632604554386700,1.44938671875,0.0965695920474827,0.0841473328478634,0.3117360451638698,-0.0258153174072504,-0.0533189810812473,0.0646644383668899,standing,2026-03-04_13-56-43
1772632604564335900,1.4593359375,-0.0033743718039244,0.0311159998841583,0.3370832523882389,-0.0287455935031175,-0.090074323117733,0.0509126745164394,standing,2026-03-04_13-56-43
1772632604574284800,1.469284912109375,-0.0838055336728692,0.0016501052945852,0.3183440651267766,-0.0333190746605396,-0.1178486943244934,0.0319764204323291,standing,2026-03-04_13-56-43
1772632604584233700,1.479233642578125,-0.0945371363718062,0.0055158408120274,0.2976601735383272,-0.0401500798761844,-0.1650918424129486,0.0203011222183704,standing,2026-03-04_13-56-43
1772632604594182000,1.489181884765625,0.0128271867386996,0.0664905339956283,0.1767828003168106,-0.0359074585139751,-0.1842241287231445,0.0340884327888488,standing,2026-03-04_13-56-43
1772632604604130800,1.499130859375,0.1396544813405722,0.1874140844464302,0.0278653275251388,-0.0272465925663709,-0.1521040052175521,0.0703092887997627,standing,2026-03-04_13-56-43
1772632604614079700,1.509079833984375,0.1520054288696497,0.3464180669665336,-0.0134755676448345,-0.0194281488656997,-0.1209054663777351,0.1020607724785804,standing,2026-03-04_13-56-43
1772632604624028700,1.519028564453125,0.06596292992495,0.3427881860315799,-0.0379822323918342,-0.009580579586327,-0.1006787568330764,0.1031031385064125,standing,2026-03-04_13-56-43
1772632604633976600,1.5289765625,-0.1252240971889346,0.130240829372406,-0.06421206766963,0.0023148208856582,-0.1068591624498367,0.0746221542358398,standing,2026-03-04_13-56-43
1772632604643925800,1.53892578125,-0.2514124363001436,0.0165526370026171,-0.0428629901707172,-0.001411740668118,-0.1078503876924514,0.0423611514270305,standing,2026-03-04_13-56-43
1772632604653874700,1.548874755859375,-0.2053077607944607,-0.0082120941586792,-0.0035462943047285,-0.0153112215921282,-0.0918144285678863,0.0228039901703596,standing,2026-03-04_13-56-43
1772632604663824000,1.558823974609375,-0.1034646853234618,0.0267516671948134,0.0380932915508747,-0.0364881455898284,-0.0754418447613716,0.0252727400511503,standing,2026-03-04_13-56-43
1772632604673772800,1.568772705078125,0.0280358617864549,0.078826283955574,0.0897194338917732,-0.051363967359066,-0.0664648711681366,0.0368115194141864,standing,2026-03-04_13-56-43
1772632604683720700,1.578720703125,0.1290775577466935,0.0691693978160619,0.0537093783557415,-0.0562495328485965,-0.0592048205435276,0.0537090077996254,standing,2026-03-04_13-56-43
1772632604693670000,1.588669921875,0.1299626700181514,0.0582256867364048,0.0158428812980651,-0.0538561902940273,-0.0530133694410324,0.062426920980215,standing,2026-03-04_13-56-43
1772632604703618800,1.598618896484375,0.073633245357126,0.0350244054995477,-0.0086626144051551,-0.0506902262568473,-0.0449847392737865,0.0631350576877594,standing,2026-03-04_13-56-43
1772632604713567700,1.608567626953125,0.024765315683186,-0.0092317925952374,0.0219943896651268,-0.0528524369001388,-0.0430606082081794,0.063334584236145,standing,2026-03-04_13-56-43
1772632604723515600,1.618515625,0.02832943790555,-0.05436944969967,0.0789022718012332,-0.0569963082671165,-0.0539774373173713,0.0590812489390373,standing,2026-03-04_13-56-43
1772632604733464800,1.62846484375,0.0193901985161006,-0.0877824744798243,0.1154734683513641,-0.0621331930160522,-0.0623319111764431,0.052175123244524,standing,2026-03-04_13-56-43
1772632604743413800,1.638413818359375,0.0206527657978236,-0.1059561368130147,0.1097708727955818,-0.0692784562706947,-0.0581478178501129,0.0530094914138317,standing,2026-03-04_13-56-43
1772632604753362700,1.64836279296875,0.0145624860987067,-0.1057278079498559,0.1300935298562049,-0.0767915025353431,-0.0847855508327484,0.0472554638981819,standing,2026-03-04_13-56-43
1772632604763310600,1.658310546875,0.0217416570130735,-0.126942883805558,0.0906534998714923,-0.0623398572206497,-0.1478228271007537,0.0355050675570964,standing,2026-03-04_13-56-43
1772632604773259500,1.668259521484375,0.0243707634076476,-0.181203831629455,-0.1512011998146772,-0.0255910977721214,-0.1704083085060119,0.0273961052298545,standing,2026-03-04_13-56-43
1772632604783209000,1.678208984375,-0.0244433171872049,-0.1233785423874855,-0.4226210166811943,0.015104666352272,-0.1471005976200103,0.0208295490592718,standing,2026-03-04_13-56-43
1772632604793158000,1.688157958984375,-0.0776910693805664,-0.0365664473097771,-0.5188023400634527,0.0429211929440498,-0.0997571870684623,0.0191050842404365,standing,2026-03-04_13-56-43
1772632604803106800,1.69810693359375,-0.126197033874318,-0.021762626735866,-0.4982996502608061,0.0511242598295211,-0.0460044704377651,0.0160943791270256,standing,2026-03-04_13-56-43
1772632604813054700,1.7080546875,-0.1301809158787131,-0.0682607585385441,-0.393648604696989,0.0449445135891437,-0.0021938742138445,0.0126260183751583,standing,2026-03-04_13-56-43
1772632604823003600,1.718003662109375,-0.1479580531749874,-0.1076253121342509,-0.2520762339711189,0.0257838666439056,0.0372565947473049,0.0055137798190116,standing,2026-03-04_13-56-43
1772632604832952800,1.727952880859375,-0.1515811390429735,-0.0895733034193515,-0.0771042824685573,0.0031831013038754,0.0550052337348461,-0.0005128269549459,standing,2026-03-04_13-56-43
1772632604842901800,1.73790185546875,-0.1550258726693689,-0.1059706037297844,0.0641261429518461,-0.0177104622125625,0.0512240789830684,-0.0021397520322352,standing,2026-03-04_13-56-43
1772632604852849700,1.747849609375,-0.1641398110385984,-0.1367880590587854,0.0935153190433979,-0.0208820607513189,0.032167699187994,-0.0089904107153415,standing,2026-03-04_13-56-43
1772632604862798600,1.757798583984375,-0.1824371728166937,-0.1734952300135046,0.0191559513688087,-0.009995324537158,0.0157831348478794,-0.0203248243778944,standing,2026-03-04_13-56-43
1772632604872747800,1.767747802734375,-0.1965421244062483,-0.1502548588752746,-0.046574704170227,0.0074392897076904,0.0018673143349587,-0.0247310120612382,standing,2026-03-04_13-56-43
1772632604882696700,1.77769677734375,-0.1479832606814801,-0.1266884706530719,-0.0759954444438219,0.0298697650432586,0.0058008027262985,-0.0233986321836709,standing,2026-03-04_13-56-43
1772632604892646000,1.78764599609375,-0.1338000562239438,-0.1054391272015869,-0.0698246468544006,0.0466242283582687,0.0200236830860376,-0.0217003896832466,standing,2026-03-04_13-56-43
1772632604902593800,1.79759375,-0.1445485369924455,-0.1168381808333098,0.0091676413178443,0.0494170859456062,0.0232655499130487,-0.0255127046257257,standing,2026-03-04_13-56-43
1772632604912542700,1.807542724609375,-0.142201024018228,-0.1274191960804164,0.1302542733758687,0.0371638461947441,0.0244783498346805,-0.0334752760827541,standing,2026-03-04_13-56-43
1772632604922492000,1.817491943359375,-0.1440993319202214,-0.1484013399630785,0.2087070478439331,0.0201521050184965,0.0239494461566209,-0.0421630404889583,standing,2026-03-04_13-56-43
1772632604932440800,1.82744091796875,-0.1629647759098559,-0.1618666784748434,0.2702712313532829,-0.0072109755128622,0.0145479552447795,-0.0559149868786335,standing,2026-03-04_13-56-43
1772632604942388700,1.837388671875,-0.1682157552406191,-0.1370396957322955,0.3139402772098779,-0.03345562890172,-0.0213626399636268,-0.0705317482352256,standing,2026-03-04_13-56-43
1772632604952337700,1.847337646484375,-0.0990370050743222,-0.1331535019487142,0.2661374925494194,-0.044488787651062,-0.059162076562643,-0.075816698372364,standing,2026-03-04_13-56-43
1772632604962286600,1.85728662109375,-0.0430239528860896,-0.1046488536067307,0.0920049144804477,-0.0371973179280757,-0.0778494775295257,-0.0808412879705429,standing,2026-03-04_13-56-43
1772632604972235800,1.86723583984375,-0.0513357810921967,-0.0404351054366678,-0.1111497599333524,-0.0184800755232572,-0.0676893964409828,-0.0827385112643241,standing,2026-03-04_13-56-43
1772632604982184700,1.877184814453125,-0.0761363142192363,0.0241585819616913,-0.2552227153033018,0.0078378152102231,-0.0347120054066181,-0.0840695574879646,standing,2026-03-04_13-56-43
1772632604992132600,1.887132568359375,-0.0629532267149537,0.0167909758031368,-0.3218009275823831,0.0297854840755462,0.0079687479883432,-0.0853392034769058,standing,2026-03-04_13-56-43
1772632605002081500,1.89708154296875,-0.0613076514650136,0.0074579878557473,-0.2450637248605489,0.0384455509483814,0.0360105000436306,-0.0833551436662674,standing,2026-03-04_13-56-43
1772632605012030700,1.90703076171875,-0.0256926596611738,0.0032816520191729,-0.0973404302895069,0.0302533097565174,0.0326851494610309,-0.0851903185248375,standing,2026-03-04_13-56-43
1772632605021980000,1.91697998046875,0.0477713666088879,-0.0162592070139944,0.0331499899297952,0.0123957488685846,0.0094988690689206,-0.0792533382773399,standing,2026-03-04_13-56-43
1772632605031927800,1.926927734375,0.1222968115653842,-0.0179566585816442,0.1100958669662475,-0.0066240644082427,-0.0275060199201107,-0.0723544582724571,standing,2026-03-04_13-56-43
1772632605041876700,1.936876708984375,0.1527254137072712,-0.0015957447588443,0.0613543401509523,-0.0168447457253932,-0.0502004139125347,-0.0597055070102214,standing,2026-03-04_13-56-43
1772632605051825700,1.94682568359375,0.1403000127024948,0.0788921887986361,-0.0817436327069997,-0.0111335851252079,-0.0399529673159122,-0.0456140898168087,standing,2026-03-04_13-56-43
1772632605061774800,1.95677490234375,0.0735891870196908,0.1482971489362418,-0.2230208198785781,0.0065926811657845,-0.0200354512780904,-0.0357228443026542,standing,2026-03-04_13-56-43
1772632605071722800,1.96672265625,0.0273187264930456,0.1790847936488687,-0.2433463995486497,0.0212787594646215,0.0067733936011791,-0.0262303408235311,standing,2026-03-04_13-56-43
1772632605081671700,1.976671630859375,0.0319128493502736,0.1701151591211557,-0.2013379803806543,0.0338616631925106,0.0258943568915128,-0.0158208440989255,standing,2026-03-04_13-56-43
1772632605091620600,1.98662060546875,0.0055824763074517,0.1423198280923068,-0.0707522830933332,0.0376974195241928,0.0241173561662435,-0.0105491606518626,standing,2026-03-04_13-56-43
1772632605101569500,1.996569580078125,-0.004279138623923,0.1079540326319634,0.0384381594657897,0.0442975312471389,0.0157731398940086,-0.0015996075235307,standing,2026-03-04_13-56-43
1772632605111519000,2.00651904296875,0.0349414764564484,0.0884146349035203,0.0819131440550088,0.0511499680578708,0.0051147723570466,0.0074039795435965,standing,2026-03-04_13-56-43
1772632605121466600,2.016466552734375,0.0078789897467941,0.0706479459360241,0.1473293268173933,0.0495510064065456,-0.0216350834816694,0.0046982080675661,standing,2026-03-04_13-56-43
1772632605131415800,2.026415771484375,-0.054001712365821,0.0137391870170831,0.2026519855886697,0.0495559126138687,-0.0419905520975589,-0.0075316429138183,standing,2026-03-04_13-56-43
1772632605141364700,2.03636474609375,-0.0936417219020426,-0.0815353967837989,0.1660293511122465,0.0473361685872077,-0.040389459580183,-0.013351715169847,standing,2026-03-04_13-56-43
1772632605151313700,2.046313720703125,-0.0783374775253236,-0.0790951640248298,0.1433791278868913,0.040537666529417,-0.0477580204606056,-0.0219163428992033,standing,2026-03-04_13-56-43
1772632605161261800,2.05626171875,-0.031527284098789,-0.043503041639924,0.1729080047100782,0.0212811455130577,-0.0616243034601211,-0.0233712270855903,standing,2026-03-04_13-56-43
1772632605171210800,2.066210693359375,0.0405504023794084,-0.0030604104839265,0.1782283229500055,-0.0016845995560288,-0.0638203546404838,-0.0126359146088361,standing,2026-03-04_13-56-43
1772632605181159700,2.07615966796875,0.0760941555779427,-0.0059488254018127,0.073973583227396,-0.009089252911508,-0.0374478660523891,-0.0050725368782877,standing,2026-03-04_13-56-43
1772632605191108600,2.086108642578125,-0.0372010919515043,0.0065777709551155,-0.142518127143383,0.0017255702987313,0.0057958746328949,-0.0113965785130858,standing,2026-03-04_13-56-43
1772632605201057800,2.096057861328125,-0.1481343595899641,0.0045133857712149,-0.2455944707363843,0.0166041180491447,0.0343721248209476,-0.0167655106633901,standing,2026-03-04_13-56-43
1772632605211005700,2.106005615234375,-0.1095608833067119,-0.0165969145357608,-0.2284340770989656,0.0317439213395118,0.0515255481004715,-0.0159511156380176,standing,2026-03-04_13-56-43
1772632605220954600,2.11595458984375,-0.0461272526636719,-0.029747634140402,-0.1378349377632141,0.0362947322428226,0.0498075410723686,-0.012603523209691,standing,2026-03-04_13-56-43
1772632605230903600,2.125903564453125,-0.017637728825584,-0.0365631593741476,0.0469803623616695,0.0314551442861557,0.0232483763247728,-0.0138953635469079,standing,2026-03-04_13-56-43
1772632605240852700,2.135852783203125,-0.014705036374554,-0.0763449885338544,0.2168061831474304,0.0124476291239261,-0.0128390537574887,-0.0172456204891204,standing,2026-03-04_13-56-43
1772632605250801000,2.14580078125,-0.0218276547960937,-0.1123297634981572,0.2940489973038435,-0.0063626077026128,-0.0394961014389991,-0.0235238969326019,standing,2026-03-04_13-56-43
1772632605260749800,2.155749755859375,-0.0648310763508081,-0.1159421087764203,0.2514963882565498,-0.0154527751728892,-0.059316411614418,-0.0336279310286045,standing,2026-03-04_13-56-43
1772632605270698800,2.16569873046875,-0.1286029990375042,-0.0359986573591828,0.0772369689375162,-0.0130693223327398,-0.057178296148777,-0.0390250235795974,standing,2026-03-04_13-56-43
1772632605280647700,2.175647705078125,-0.075041723915562,0.0404879316024482,-0.0420364762187004,-0.0012733824551105,-0.0258605852723121,-0.0308334063738584,standing,2026-03-04_13-56-43
1772632605290596600,2.1855966796875,-0.0159697225481271,0.1040012033529579,-0.087464932963252,0.0074597438797354,0.0001462528016418,-0.0170754864811897,standing,2026-03-04_13-56-43
1772632605300544800,2.195544677734375,0.0016456483151763,0.1339374919332563,-0.0386678765684366,0.0127900606021285,-0.0024268934503197,-0.0157289914786815,standing,2026-03-04_13-56-43
1772632605310493700,2.20549365234375,-0.0534472933534532,0.0707486298315227,-0.0589817658007144,0.0161154121160507,-0.0151165956631302,-0.0249585136771202,standing,2026-03-04_13-56-43
1772632605320442600,2.215442626953125,-0.0746564509250223,0.0307981661066412,-0.076978025740385,0.017467763274908,0.0019577292259782,-0.0281907953321933,standing,2026-03-04_13-56-43
1772632605330391600,2.2253916015625,-0.0340026612363755,0.0648128100417554,-0.0336199455291032,0.0091162174940109,0.0361027866601944,-0.0172777194529771,standing,2026-03-04_13-56-43
1772632605340339700,2.235339599609375,0.0356838923215866,0.100339027583599,0.0852384890854358,-0.0037487149238586,0.0457612723112106,-0.0037416713312268,standing,2026-03-04_13-56-43
1772632605350288600,2.24528857421875,0.05149981254749,0.0534771770350635,0.1937614076465368,-0.0143265202641487,0.0128551293164491,-0.0019170949235558,standing,2026-03-04_13-56-43
1772632605360237800,2.25523779296875,0.0729698860775679,-0.0035815117485821,0.1459527777671813,-0.0122985243797302,-0.018747005611658,-0.0004281215369701,standing,2026-03-04_13-56-43
1772632605370186800,2.265186767578125,0.0418346700362861,0.0177903621040284,0.0441910239040851,-0.0050063738599419,-0.0226313658058643,0.0035445978865027,standing,2026-03-04_13-56-43
1772632605380135000,2.275135009765625,-0.0236322930652648,0.0396545495182275,-0.0269534733772277,-0.0020409440621733,-0.0226854290813207,-0.0029356719460338,standing,2026-03-04_13-56-43
1772632605390083800,2.285083740234375,-0.0408277580160647,0.0277690275438129,-0.0580167201608419,-0.0005323900841176,-0.0236677359789609,-0.002792099956423,standing,2026-03-04_13-56-43
1772632605400032800,2.29503271484375,-0.0080918287798762,-0.0318736863836646,-0.0681757106035947,-0.0004442394711077,-0.0129053713753819,-0.0036954442039132,standing,2026-03-04_13-56-43
1772632605409981700,2.304981689453125,-0.0141704180411994,-0.0440421169526875,-0.0672065733104944,0.0003387555480003,-0.0048270709812641,-0.0024217662867158,standing,2026-03-04_13-56-43
1772632605419930600,2.3149306640625,-0.0234008223969489,-0.0303302563339471,-0.0216851775854825,0.008865131996572,-0.0132573079317808,-0.0020627721678465,standing,2026-03-04_13-56-43
1772632605429878800,2.324878662109375,-0.006463935317099,-0.050213352933526,-0.1661462554901838,0.0400345921516418,-0.0068749105557799,0.0014714943245053,standing,2026-03-04_13-56-43
1772632605439827700,2.33482763671875,0.0027619389940053,-0.0020252222172915,-0.2804980263352394,0.0774397552013397,0.0142519464716315,0.0083762723952531,standing,2026-03-04_13-56-43
1772632605449776600,2.344776611328125,-0.0200309075724333,0.0620541589833796,-0.2347042434096336,0.1044835001230239,0.0231217350810766,0.0153204910457134,standing,2026-03-04_13-56-43
1772632605459725800,2.354725830078125,-0.0062954468823969,0.0391848861798644,-0.0384644629508256,0.1044957488775253,-0.0104436809197068,0.015180142596364,standing,2026-03-04_13-56-43
1772632605469673700,2.364673828125,0.0137232587955892,-0.0627666911669075,0.1617389604419469,0.0812209844589233,-0.0641726851463317,0.0045750723220407,standing,2026-03-04_13-56-43
1772632605479623000,2.374622802734375,-0.0017533464733511,-0.1345990245819091,0.1955050364434719,0.0520844087004661,-0.0512747317552566,0.0014059105888009,standing,2026-03-04_13-56-43
1772632605489571800,2.38457177734375,-0.0583386455915868,-0.0931099531129002,0.0862701702207326,0.0338581129908561,0.024810979142785,-0.0021924129687249,standing,2026-03-04_13-56-43
1772632605499520800,2.394520751953125,-0.1066602664943784,0.0059074704781174,0.0605722498625516,0.0082081444561481,0.0816694721579551,-0.0046949852257966,standing,2026-03-04_13-56-43
1772632605509468700,2.40446875,-0.104261169463396,0.0045503567807376,0.1991068603277206,-0.0192038752138614,0.0937366560101509,-0.0068146358244121,standing,2026-03-04_13-56-43
1772632605519417900,2.41441796875,-0.0142118460301309,-0.0755048844479024,0.3552811723798513,-0.0444495789706707,0.0588527098298072,-0.00776112312451,standing,2026-03-04_13-56-43
1772632605529366800,2.42436669921875,0.026081951239705,-0.103881668626517,0.4666477899342775,-0.0628376677632331,-0.0084652127698063,-0.0134316803887486,standing,2026-03-04_13-56-43
1772632605539315700,2.434315673828125,0.0087737466294318,-0.0821484141156077,0.4574398166060447,-0.0756796970963478,-0.0729677751660347,-0.0214880090206861,standing,2026-03-04_13-56-43
1772632605549264600,2.4442646484375,-0.0548632245659828,-0.0407550581060349,0.260725988894701,-0.0643907412886619,-0.0818206593394279,-0.0255025718361139,standing,2026-03-04_13-56-43
1772632605559212800,2.454212890625,-0.114531803587079,0.0347236689873039,-0.0319335998773574,-0.0342629328370094,-0.0701046139001846,-0.0292440466582775,standing,2026-03-04_13-56-43
1772632605569161500,2.464161376953125,-0.1070395481355488,0.1246557227164506,-0.1869283467561006,-0.0085804369300603,-0.0604826100170612,-0.0226657856255769,standing,2026-03-04_13-56-43
1772632605579110400,2.4741103515625,-0.0124375298339873,0.1904742026694119,-0.2155529682159423,0.0070813465863466,-0.0421166494488716,0.001867787213996,standing,2026-03-04_13-56-43
1772632605589059300,2.484059326171875,0.0597721124608069,0.2232872157298028,-0.1844733548194169,0.0199620574712753,-0.0325852036476135,0.024135373532772,standing,2026-03-04_13-56-43
1772632605599007500,2.494007568359375,0.0448720649708062,0.1947724843852221,-0.1845575259715318,0.0327454954385757,-0.0275824535638093,0.0330106243491172,standing,2026-03-04_13-56-43
1772632605608956400,2.503956298828125,-0.0086999507408589,0.1569257149413228,-0.2243067680358886,0.053405575454235,-0.0106643224135041,0.0329410471022129,standing,2026-03-04_13-56-43
1772632605618905300,2.5139052734375,-0.078113386445865,0.0919650208614766,-0.2916968812197447,0.0729395970702171,0.001168634975329,0.023252198472619,standing,2026-03-04_13-56-43
1772632605628854300,2.523854248046875,-0.1024709981109947,0.0628551001027226,-0.2169558207511901,0.0723586827516555,0.0045895976945757,0.0141663616523146,standing,2026-03-04_13-56-43
1772632605638803500,2.533803466796875,-0.030152780875191,0.0388192677378654,-0.0657008449226617,0.0562702640891075,0.0182782467454671,0.0215734131634235,standing,2026-03-04_13-56-43
1772632605648751400,2.54375146484375,0.0383959277592599,-0.0111574999608099,0.0721329237967729,0.030796680599451,0.0232564974576234,0.0270656775683164,standing,2026-03-04_13-56-43
1772632605658700500,2.553700439453125,0.0536360208585858,-0.0257642635926604,0.1931289549618959,0.0037621343508362,0.0134169170632958,0.0297533404082059,standing,2026-03-04_13-56-43
1772632605668649500,2.5636494140625,0.0484302689090371,-0.0649739919528365,0.2437351066052913,-0.0162640996277332,0.0038965104613453,0.0293454714119434,standing,2026-03-04_13-56-43
1772632605678598400,2.573598388671875,-0.0007536679115146,-0.115966950956732,0.212599379107356,-0.0277314037084579,-0.0049545052461326,0.02041881904006,standing,2026-03-04_13-56-43
1772632605688546300,2.58354638671875,-0.0672329498607665,-0.1477672798432409,0.1632411816984414,-0.0265410728752613,-0.0190809778869152,0.0084709962829947,standing,2026-03-04_13-56-43
1772632605698495500,2.59349560546875,-0.111793537729606,-0.1265356912441551,0.0658639265298843,-0.0197721160948276,-0.026374576613307,0.0027180358301848,standing,2026-03-04_13-56-43
1772632605708444400,2.6034443359375,-0.0918507468320429,-0.0952725379742682,-0.0331096579194068,-0.0071945912204682,-0.0262745693325996,-0.0012601925991475,standing,2026-03-04_13-56-43
1772632605718393300,2.613393310546875,-0.0656202539671212,-0.0691401717215776,-0.0850216314643621,0.0057979063130915,-0.0131909921765327,0.0009060227312147,standing,2026-03-04_13-56-43
1772632605728342300,2.62334228515625,-0.0448915733888745,-0.0135582774922251,-0.0788064102113246,0.0096332021057605,0.0017530643381178,0.0036449700128287,standing,2026-03-04_13-56-43
1772632605738290400,2.63329052734375,-0.0482206447463482,0.0109536479517817,-0.0177519297897815,0.003782769665122,0.0110853128135204,0.0081600928679108,standing,2026-03-04_13-56-43
1772632605748239400,2.6432392578125,-0.0498584020160138,0.0096913729310035,0.0375017553985118,-0.0013695610687136,0.0102594625204801,0.0053482153452932,standing,2026-03-04_13-56-43
1772632605758188300,2.653188232421875,-0.0962258201111108,-0.0073649758100509,0.0297813902795314,0.0017641810700297,0.0072543518617749,-0.0019786737393587,standing,2026-03-04_13-56-43
1772632605768137500,2.663137451171875,-0.1174727524098008,0.0259754221253097,0.0168348149448633,0.0058881742879748,-0.0114446273073554,-0.012253288179636,standing,2026-03-04_13-56-43
1772632605778085400,2.67308544921875,-0.1034710419990122,0.0457302161701023,0.0155669869661331,0.0097737265750765,-0.0364511795341968,-0.0171865280717611,standing,2026-03-04_13-56-43
1772632605788034600,2.68303466796875,-0.0525952796339988,0.077744626198709,-0.0172691147089004,0.0171563755720853,-0.0329840071499347,-0.0103021720424294,standing,2026-03-04_13-56-43
1772632605797983500,2.6929833984375,-0.0092665716476738,0.1559238444223999,-0.0544447068929672,0.0177590493112802,-0.0101231662556529,0.0027885960880666,standing,2026-03-04_13-56-43
1772632605807932400,2.702932373046875,-0.0082915160704404,0.2076765357524156,-0.0070323828548192,0.0094669181853532,0.0027228603139519,0.0128802396357059,standing,2026-03-04_13-56-43
1772632605817880300,2.71288037109375,-0.0188576260093599,0.1645202617235481,0.0539484478086233,-0.0019364720210433,0.0085301492363214,0.0161047950387001,standing,2026-03-04_13-56-43
1772632605827829200,2.722829345703125,-0.0283438317570835,0.080013301783055,0.0215741184264421,-0.0063992687501013,0.0273283328860998,0.0141291916370391,standing,2026-03-04_13-56-43
1772632605837778400,2.7327783203125,-0.0719273182220757,0.0764630619555711,-0.010488660788536,-0.0045478385873138,0.0412401519715786,0.0071250768378376,standing,2026-03-04_13-56-43
1772632605847727400,2.742727294921875,-0.0926867592647671,0.0534372834160923,0.0556798016458749,-0.015743650496006,0.0232009626924991,-0.0012328482698649,standing,2026-03-04_13-56-43
1772632605857676300,2.75267626953125,-0.064112260556966,0.0002254793189465,0.1444640005141496,-0.0224164668470621,-0.0050362665206193,-0.0004413567949086,standing,2026-03-04_13-56-43
1772632605867624200,2.762624267578125,0.0066246057715266,-0.0447474887430667,0.0889946267485618,-0.012701260857284,-0.0148698491975665,0.0029273193795233,standing,2026-03-04_13-56-43
1772632605877573400,2.772573486328125,-0.0262570886109024,-0.0384283687241375,-0.0445382299065589,0.0191477481275796,-0.0194097403436899,0.0039936490356922,standing,2026-03-04_13-56-43
1772632605887522600,2.7825224609375,-0.060277431634441,0.0218697403721511,-0.138381465730071,0.0427235104143619,-0.0379501394927501,0.0047539100050926,standing,2026-03-04_13-56-43
1772632605897471500,2.792471435546875,-0.018329145155847,0.0196510414093732,-0.1249567514896392,0.0573304146528244,-0.0415033288300037,0.0117542957887053,standing,2026-03-04_13-56-43
1772632605907419400,2.80241943359375,0.0181461898043751,0.0058564709432423,-0.1281418112665414,0.0580447502434253,-0.0291043147444725,0.018491756170988,standing,2026-03-04_13-56-43
1772632605917368300,2.812368408203125,-0.0781944157928228,0.0087666593015193,-0.0849608411878347,0.0462389588356018,-0.0208178907632827,0.0073520205914974,standing,2026-03-04_13-56-43
1772632605927317500,2.8223173828125,-0.1719239621087908,-0.0434454662337899,-0.0303998144388198,0.025141105055809,-0.0117289219051599,-0.0134327746927738,standing,2026-03-04_13-56-43
1772632605937266400,2.832266357421875,-0.1310381902951747,-0.0830500391304493,0.0146282448112964,-0.0021118205040693,0.0220402274280786,-0.0164496023207902,standing,2026-03-04_13-56-43
1772632605947215400,2.84221533203125,-0.0605311141345649,-0.0465926782183349,0.0644786096513271,-0.0297689661383628,0.071143589913845,-0.0129986368119716,standing,2026-03-04_13-56-43
1772632605957163300,2.852163330078125,-0.0766208828657865,0.0146012106738984,0.1474900703370571,-0.0533089116215705,0.085182711482048,-0.0149254333227872,standing,2026-03-04_13-56-43
1772632605967112200,2.8621123046875,-0.0616818916048854,0.0301177826270461,0.2149018108308315,-0.0642326548695564,0.0652056783437728,-0.0173879601061344,standing,2026-03-04_13-56-43
1772632605977061400,2.872061279296875,0.0107871322784572,-0.0179242176167666,0.2579734753161669,-0.0571443811058998,0.0367615222930908,-0.0112608252093195,standing,2026-03-04_13-56-43
1772632605987010600,2.882010498046875,0.0188681474033743,0.0230377612382173,0.2271832002550363,-0.0375841110944747,-0.0029294309206306,-0.011544058099389,standing,2026-03-04_13-56-43
1772632605996958200,2.891958251953125,-0.0426964014321565,0.0483807306788861,0.1787853723108768,-0.0086978692561388,-0.0496676415205001,-0.0186142176389694,standing,2026-03-04_13-56-43
1772632606006907400,2.901907470703125,-0.033171763370186,0.0144314070649445,0.0158335289478302,0.027406832203269,-0.0582837685942649,-0.0186597444117069,standing,2026-03-04_13-56-43
1772632606016856300,2.911856201171875,-0.0062014849886298,0.0572656095325946,-0.0805687437087297,0.0518559850752353,-0.0320910513401031,-0.010146951302886,standing,2026-03-04_13-56-43
1772632606026805500,2.921805419921875,0.0140931150212883,0.095709175825864,0.0182762459248304,0.0476391464471817,-0.0171295385807752,-0.008753752335906,standing,2026-03-04_13-56-43
1772632606036753400,2.93175341796875,-0.0147498253643512,0.0499808593519032,0.2046533885389566,0.0098920352756977,-0.0347346328198909,-0.0129977660253643,standing,2026-03-04_13-56-43
1772632606046702300,2.941702392578125,0.0454875665206462,-0.0299370192326605,0.3328068902432918,-0.0393498130142688,-0.0457177758216857,-0.004161131568253,standing,2026-03-04_13-56-43
1772632606056651300,2.9516513671875,0.0850491039931774,-0.0317863003611564,0.3101122433543205,-0.0770591124892234,-0.0431638024747371,0.0004258970730006,standing,2026-03-04_13-56-43
1772632606066600400,2.961600341796875,0.0012407207760959,0.0321785145491361,0.1712766041159629,-0.0951182171702385,-0.0610193721950054,-0.0055180136114358,standing,2026-03-04_13-56-43
1772632606076549400,2.97154931640625,-0.0353867360059171,0.060280573439598,-0.0520879146337509,-0.0912648886442184,-0.0566145032644271,-0.0008375083561986,standing,2026-03-04_13-56-43
1772632606086497300,2.981497314453125,-0.0106906131014227,0.0894448547340929,-0.2915349686563014,-0.0622972324490547,-0.0268657989799976,0.0078119761310517,standing,2026-03-04_13-56-43
1772632606096446200,2.9914462890625,-0.0408274657551199,0.1243580549441277,-0.4507727599322795,-0.0181420184671878,0.0146771175786852,0.0178917739540338,standing,2026-03-04_13-56-43
1772632606106395400,3.0013955078125,-0.042698301128298,0.1379350371368229,-0.450893171441555,0.0251308307051658,0.043972298502922,0.0270410645753145,standing,2026-03-04_13-56-43
1772632606116344600,3.011344482421875,-0.0144588065285235,0.0894137289434671,-0.2888976058900356,0.0489717163145542,0.042360283434391,0.0346582420170307,standing,2026-03-04_13-56-43
1772632606126292500,3.02129248046875,-0.0154090929906815,0.0120303372725844,-0.0449941569805145,0.0554837323725223,0.0144896311685442,0.0341514386236667,standing,2026-03-04_13-56-43
1772632606136241400,3.031241455078125,0.0053615270331501,-0.0717279962576925,0.1713496693521738,0.0507403761148452,-0.0316858515143394,0.0285313688218593,standing,2026-03-04_13-56-43
1772632606146190300,3.0411904296875,0.0011008008487522,-0.1372333186082542,0.2649479905039071,0.0352472960948944,-0.0599431879818439,0.0171375386416912,standing,2026-03-04_13-56-43
1772632606156139300,3.05113916015625,-0.0456367657329887,-0.1377551505252718,0.2677203778266906,0.0196166690438985,-0.0598188191652298,0.0073552159592509,standing,2026-03-04_13-56-43
1772632606166088400,3.06108837890625,-0.0815779207512736,-0.1134181432567536,0.2329565229594707,0.0002885614521801,-0.0483270138502121,-0.0029106950387358,standing,2026-03-04_13-56-43
1772632606176036400,3.071036376953125,-0.1166051757950335,-0.0863553642861545,0.2087076323658228,-0.0216596145182847,-0.0368330776691436,-0.0080007947981357,standing,2026-03-04_13-56-43
1772632606185985300,3.0809853515625,-0.0807614167366176,-0.0640948710307478,0.1914174748688936,-0.0426418259739875,-0.0350761860609054,-0.0110064521431922,standing,2026-03-04_13-56-43
1772632606195934200,3.090934326171875,-0.0402559494774788,-0.0370351608000695,0.1600333255678415,-0.0609459951519966,-0.0367308035492897,-0.0090199997648596,standing,2026-03-04_13-56-43
1772632606205883400,3.10088330078125,-0.0089534871105104,0.0232496504232287,0.1099655185848474,-0.0688681602478027,-0.0322610922157764,-0.0006530211539939,standing,2026-03-04_13-56-43
1772632606215831300,3.110831298828125,0.0257095377307385,0.0533187716029584,-0.0040846389651298,-0.0598720051348209,-0.0151220541447401,0.0082243597134947,standing,2026-03-04_13-56-43
1772632606225780200,3.1207802734375,-0.0314993731785565,0.0670502137050032,-0.1342944886773824,-0.0427050292491912,-0.0017358087934553,0.0022510015405714,standing,2026-03-04_13-56-43
1772632606235729400,3.1307294921875,-0.1084268377754837,0.0396902053534984,-0.1922515876054763,-0.0238264128565788,0.0036653482820838,-0.0073270569555461,standing,2026-03-04_13-56-43
1772632606245678300,3.14067822265625,-0.1086996633674949,0.0177468152232468,-0.1619721846759319,-0.00825463142246,-0.0040233270265161,-0.0102702835574746,standing,2026-03-04_13-56-43
1772632606255627500,3.15062744140625,-0.0487676111046224,0.0138273036919534,-0.1332885265052318,0.0015591173432767,-0.0141606498509645,-0.0119589939713478,standing,2026-03-04_13-56-43
1772632606265575400,3.160575439453125,-0.0194779498647898,0.0224557235665619,-0.0719540600985288,-0.0017668912187218,-0.0235850475728511,-0.0095844641327857,standing,2026-03-04_13-56-43
1772632606275524400,3.1705244140625,-0.0186308315161615,0.0434308531865477,-0.0037532150536775,-0.0081124054268002,-0.0336824208498001,-0.0074699148535728,standing,2026-03-04_13-56-43
1772632606285473300,3.180473388671875,0.0203912653174251,0.0208057644024491,-0.0075683894276618,-0.0109356865286827,-0.0331034511327743,3.50419431924e-05,standing,2026-03-04_13-56-43
1772632606295422200,3.190422119140625,0.0202695386338979,0.0269775849051773,-0.1158288576602935,0.0037172923330217,-0.0166227426379919,0.0086655477061867,standing,2026-03-04_13-56-43
1772632606305370400,3.200370361328125,-0.0367653308827429,0.0851078484430909,-0.1967389621526002,0.0230281949043273,0.0023196504916995,0.0087568927556276,standing,2026-03-04_13-56-43
1772632606315319300,3.2103193359375,-0.0305558817833662,0.0781530608691275,-0.1897340518265962,0.0362089797854423,0.0291049238294363,0.0177807472646236,standing,2026-03-04_13-56-43
1772632606325268200,3.220268310546875,-0.0182940007772296,0.0462821509644389,-0.1126326919674873,0.0361831411719322,0.0371858961880207,0.0177821237593889,standing,2026-03-04_13-56-43
1772632606335217400,3.230217529296875,-0.0544669917900115,-0.0023909867897629,0.0571902062088251,0.022025242447853,0.029939167201519,0.0081784985959529,standing,2026-03-04_13-56-43
1772632606345166300,3.240166259765625,-0.0905089768342673,-0.060562312990427,0.1967880619913339,0.0022693057544529,0.014296157285571,-0.0039832899346947,standing,2026-03-04_13-56-43
1772632606355114500,3.250114501953125,-0.0539328849133104,-0.0945433469168841,0.2704927651494741,-0.0185715276747941,-0.0058165681548416,-0.0083082634955644,standing,2026-03-04_13-56-43
1772632606365063400,3.2600634765625,-0.0303363938137888,-0.0715755821749568,0.2570008308917283,-0.0265842825174331,-0.0290084425359964,-0.0098101049661636,standing,2026-03-04_13-56-43
1772632606375012400,3.270012451171875,-0.0246377437807619,-0.0190951610922813,0.1447019009232521,-0.0211450401693582,-0.030696352943778,-0.0063003245741128,standing,2026-03-04_13-56-43
1772632606384961300,3.279961181640625,-0.0236454448077827,0.0364110375523567,0.0270253695696592,-0.0083053326234221,-0.0263536684215068,-0.0035573381464928,standing,2026-03-04_13-56-43
1772632606394909400,3.289909423828125,-0.0377360025458037,0.0490156675815582,-0.0160948102325201,-0.0023944471031427,-0.032640591263771,-0.0039251204580068,standing,2026-03-04_13-56-43
1772632606404858400,3.2998583984375,-0.0536586710818111,0.0081941201105713,-0.0537508794099092,0.0010563763789832,-0.020054493099451,-0.0050940662622451,standing,2026-03-04_13-56-43
1772632606414807300,3.309807373046875,-0.0760806385092437,0.0017643793240189,-0.0844429547935724,0.0083196153864264,0.0069475620985031,-0.0088637713342905,standing,2026-03-04_13-56-43
1772632606424756200,3.319756103515625,-0.1580713778451085,-0.0011015315011143,-0.0699690237611532,0.0066571864299476,0.0145785799250006,-0.0221598986536264,standing,2026-03-04_13-56-43
1772632606434704400,3.329704345703125,-0.1664184234950691,-0.0293146495506167,-0.0181757081598043,0.0011713407002389,0.0048591066151857,-0.0223319381475448,standing,2026-03-04_13-56-43
1772632606444653300,3.3396533203125,-0.0289245542544871,-0.0295725698344409,0.0025929391026496,-0.0049059223383665,0.0107843820005655,-0.0109264440834522,standing,2026-03-04_13-56-43
1772632606454602500,3.3496025390625,0.0153337627321481,-0.0018980887062847,0.0313560922503471,-0.0133239077404141,0.0097920875996351,-0.0083026979118585,standing,2026-03-04_13-56-43
1772632606464551400,3.359551513671875,-0.0283191357072442,-0.0008098550781607,0.0582838466644287,-0.0157281961292028,0.0025845048949122,-0.0123538440093398,standing,2026-03-04_13-56-43
1772632606474500400,3.369500244140625,-0.046532764724642,-0.0408158483825623,0.0073053545773029,-0.0121760722249746,-0.0017117065144702,-0.0152992997318506,standing,2026-03-04_13-56-43
1772632606484448500,3.379448486328125,-0.0495500667192041,-0.0338598917648196,-0.0552963552862405,-0.0035127461887896,0.0023249848745763,-0.0198523644357919,standing,2026-03-04_13-56-43
1772632606494397400,3.3893974609375,-0.0500178303614258,0.0140785019740462,-0.0506476526975631,0.0011674934066832,0.0007057827897369,-0.0175300873816013,standing,2026-03-04_13-56-43
1772632606504346400,3.399346435546875,-0.0026876316487789,0.0374212375082075,-0.0484697241365909,0.0087777040898799,0.0017337587196379,-0.0135782100260257,standing,2026-03-04_13-56-43
1772632606514295300,3.40929541015625,0.02612389068529,0.0417342784017324,-0.055095864278078,0.016325369477272,0.0115706771612167,-0.0056598340161144,standing,2026-03-04_13-56-43
1772632606524243500,3.419243408203125,0.0233007960885763,0.0574637624531984,-0.0325999548316001,0.0204104166477918,0.0326223000884056,0.0004842327907681,standing,2026-03-04_13-56-43
1772632606534192400,3.4291923828125,0.0133554483965039,0.0576934795558452,0.0461772292852401,0.0194285102188587,0.0386160090565681,0.0027090373914688,standing,2026-03-04_13-56-43
1772632606544141300,3.439141357421875,-0.031984745542705,-0.0043596565142273,0.1394102242559194,0.0151508394628763,0.0201208870857954,-0.007490687072277,standing,2026-03-04_13-56-43
1772632606554090200,3.44909033203125,-0.0568052985444664,-0.0588465951137244,0.2025719060897827,0.0069264653138816,-0.0242156852036714,-0.0202416367828845,standing,2026-03-04_13-56-43
1772632606564040000,3.4590400390625,-0.0585198473773896,-0.0868451936297118,0.2398503741264343,-0.007084590382874,-0.0649290233850479,-0.0287455562502145,standing,2026-03-04_13-56-43
1772632606573987800,3.46898779296875,-0.0506405653696507,-0.0706122901007533,0.1947580174684524,-0.021516527980566,-0.0793894529342651,-0.0344678945839405,standing,2026-03-04_13-56-43
1772632606583937000,3.47893701171875,-0.0634716245658695,0.0001443769067525,0.0989583868801593,-0.0375278443098068,-0.0557713471353054,-0.0265646688640117,standing,2026-03-04_13-56-43
1772632606593886000,3.488885986328125,-0.0702501057248562,0.0598037497080862,0.0227022456735372,-0.0502391122281551,-0.0179323554039001,-0.0152648752555251,standing,2026-03-04_13-56-43
1772632606603835100,3.498835205078125,-0.0949722398534417,0.076519176056981,-0.0557820929765701,-0.0516659431159496,0.0139418188482522,-0.0075707510113716,standing,2026-03-04_13-56-43
1772632606613782800,3.50878271484375,-0.11360679769665,0.066114394159615,-0.1508469795495271,-0.0430061407387256,0.0451407507061958,-0.0038457876071333,standing,2026-03-04_13-56-43
1772632606623732000,3.51873193359375,-0.1712292578428983,0.0170851364441215,-0.1428022047817707,-0.0289343558251857,0.0510104931890964,-0.0162656903266906,standing,2026-03-04_13-56-43
1772632606633681200,3.52868115234375,-0.2056494138389825,-0.0436557479836046,-0.0895697962880134,-0.0169088505208492,0.0390912517905235,-0.026294358074665,standing,2026-03-04_13-56-43
1772632606643630000,3.538630126953125,-0.1302292119998484,-0.0560955428399145,-0.029181670820713,-0.0074320677667856,0.0191813241690397,-0.0298224426805973,standing,2026-03-04_13-56-43
1772632606653578000,3.548577880859375,-0.050812926261872,-0.0606375701837241,0.0089431849122047,-8.04117880761e-05,-0.0025031995028257,-0.029613384976983,standing,2026-03-04_13-56-43
1772632606663527000,3.55852685546875,-0.0043725159958004,-0.0446165558397769,0.0281534968167543,0.0041104387491941,-0.017036335542798,-0.0264326874166727,standing,2026-03-04_13-56-43
1772632606673476000,3.56847607421875,0.0380655998263508,-0.0328068755805492,0.0285094706475734,0.0078607024624943,-0.0178001299500465,-0.0224403422325849,standing,2026-03-04_13-56-43
1772632606683425000,3.578425048828125,0.0379640391480177,-0.0163951083533465,-0.0026285949379205,0.0105452314019203,-0.0049475762061774,-0.0192084554582834,standing,2026-03-04_13-56-43
1772632606693374000,3.5883740234375,-0.0508529660113155,-0.0190584823437035,-0.0154658646792173,0.0121955927461385,0.005111183039844,-0.0280014146119356,standing,2026-03-04_13-56-43
1772632606703321900,3.59832177734375,-0.1201619914937764,-0.0640779198959469,-0.0015641805768013,0.0118435099720954,0.000167686259374,-0.043945588171482,standing,2026-03-04_13-56-43
1772632606713270800,3.608270751953125,-0.0880010126013308,-0.094636870419234,0.0749503193050623,0.001197790261358,-0.0344483479857444,-0.0558781549334526,standing,2026-03-04_13-56-43
1772632606723220200,3.61822021484375,0.0073641720924526,-0.0855867180012166,0.0273918647944927,-0.005774772260338,-0.0405449904501438,-0.0524538867175579,standing,2026-03-04_13-56-43
1772632606733169200,3.628169189453125,0.0707747141208499,0.0219058345988392,-0.1297340488940477,0.0003414433449506,0.0124812126159667,-0.0326735228300094,standing,2026-03-04_13-56-43
1772632606743117000,3.638116943359375,0.0784731596689671,0.1590147961750626,-0.2464005264222621,0.0131890047341585,0.0671403259038925,-0.0130743980407714,standing,2026-03-04_13-56-43
1772632606753066000,3.64806591796875,0.0705849637024104,0.1636355878435075,-0.174251236012578,0.0195504985749721,0.0717726275324821,-0.0057594929821789,standing,2026-03-04_13-56-43
1772632606763015000,3.658014892578125,0.0771198453638702,0.0662567252397537,-0.0318301395028829,0.0190869159996509,0.0394656881690025,-0.0061055072583258,standing,2026-03-04_13-56-43
1772632606772964000,3.667964111328125,0.0507503093544393,-0.0124088151961565,0.0509112720698118,0.0271855890750885,0.0115424459800124,-0.0156127260997891,standing,2026-03-04_13-56-43
1772632606782913000,3.6779130859375,-0.0361849737115204,-0.0284368438027799,0.0342646731734275,0.0395739190280437,0.0093313651159405,-0.028248231858015,standing,2026-03-04_13-56-43
1772632606792861000,3.68786083984375,-0.0986987860959023,0.0203906077302992,0.0037029461711645,0.0482840538024902,0.0087598506361246,-0.0366145521402359,standing,2026-03-04_13-56-43
1772632606802809900,3.697809814453125,-0.0758590316478163,0.04316548024863,0.0452870024472475,0.0466831438243389,-0.008448576554656,-0.0360819920897483,standing,2026-03-04_13-56-43
1772632606812759000,3.707759033203125,0.0631879122536629,0.0835043587692081,0.0583925677359104,0.0424503162503242,-0.0059244316071271,-0.0158954970538616,standing,2026-03-04_13-56-43
1772632606822708000,3.7177080078125,0.1122263761889189,0.1692366227209568,0.0787204854935407,0.0300753843039274,0.0121014425531029,0.0011161866132169,standing,2026-03-04_13-56-43
1772632606832656000,3.72765576171875,0.0191623811095952,0.1717386686697602,0.1119645834475755,0.0189774613827466,0.0230648778378963,0.0039172992110252,standing,2026-03-04_13-56-43
1772632606842604800,3.737604736328125,-0.0111215518645942,0.1126430672310292,0.161065591225028,0.0018334612250328,0.019523674622178,0.0047325771301984,standing,2026-03-04_13-56-43
1772632606852554000,3.747553955078125,-0.0252243114970624,0.0419394455850124,0.2108826383173465,-0.0146823991090059,0.0111046228557825,0.0005801764782518,standing,2026-03-04_13-56-43
1772632606862503200,3.757503173828125,-0.0703009591292589,0.0124352648116648,0.2528255910336971,-0.0268046762794256,0.0085722217336297,-0.0073113869875669,standing,2026-03-04_13-56-43
1772632606872452000,3.7674521484375,-0.1252301616035401,-0.0123817810587584,0.2347983514338731,-0.0396536253392696,0.0063223838806152,-0.0158976837992668,standing,2026-03-04_13-56-43
1772632606882400000,3.77739990234375,-0.1237725101411342,-0.0180120420306921,0.2500344990104436,-0.0516121610999107,-0.0027500730939209,-0.02197877317667,standing,2026-03-04_13-56-43
1772632606892349000,3.787348876953125,-0.0789111126948148,-0.0216525904901325,0.2395844166666269,-0.0535072647035121,-0.0265299715101718,-0.0238523073494434,standing,2026-03-04_13-56-43
1772632606902297900,3.7972978515625,-0.0800570678595453,-0.0259498492926359,0.1024976669222116,-0.0420441962778568,-0.0442923232913017,-0.0262154415249824,standing,2026-03-04_13-56-43
1772632606912247000,3.8072470703125,-0.0882296337254345,-0.0019809446841478,-0.0309685542374849,-0.0220467876642942,-0.0474899820983409,-0.0260093137621879,standing,2026-03-04_13-56-43
1772632606922195000,3.81719482421875,-0.1030022554434835,0.0298620543003082,-0.1530856983870267,-0.0001187357120215,-0.0359515696763992,-0.0285133440047502,standing,2026-03-04_13-56-43
1772632606932143900,3.827143798828125,-0.119960842898488,0.0430177423410117,-0.231831318321824,0.011318209581077,-0.0214376095682382,-0.0313938185572624,standing,2026-03-04_13-56-43
1772632606942092800,3.8370927734375,-0.1006469975542277,0.0280278246104717,-0.2351695228338241,0.0112983994185924,-0.0110735120251774,-0.0309403240680694,standing,2026-03-04_13-56-43
1772632606952042000,3.8470419921875,-0.0596797580022364,0.0165726568773388,-0.215786776971817,0.0021970462985336,0.0055739069357514,-0.0251972172409296,standing,2026-03-04_13-56-43
1772632606961991200,3.8569912109375,-0.0338347573235631,0.0323848507761955,-0.154500825881958,-0.0067998990416526,0.0209528598934412,-0.0217523630708456,standing,2026-03-04_13-56-43
1772632606971939000,3.86693896484375,-0.025311843650043,0.0437498560078442,-0.115783264952898,-0.0159031152725219,0.0305370427668094,-0.0222008395940065,standing,2026-03-04_13-56-43
1772632606981888000,3.876887939453125,-0.02114434870705,0.0325689751714468,-0.0977092636018991,-0.0146394371986389,0.034575056284666,-0.0183744542300701,standing,2026-03-04_13-56-43
1772632606991837000,3.8868369140625,-0.0239233849663287,0.0363579921908676,-0.100053780901432,-0.0082289418205618,0.0368166416883468,-0.0224277842789888,standing,2026-03-04_13-56-43
1772632607001786000,3.8967861328125,-0.0506434149138629,0.0155314772613346,-0.0979541782736778,-0.0009085545316338,0.0232311934232711,-0.0266904812306165,standing,2026-03-04_13-56-43
1772632607011734000,3.906734130859375,-0.0583375496130436,0.0095776834234595,-0.068788874065876,0.0076862652786076,0.0199456512928009,-0.0303952042013406,standing,2026-03-04_13-56-43
1772632607021683000,3.916682861328125,-0.0192917065776884,0.0207883748762309,-0.0662836132466793,0.0154889971017837,0.0368553958833217,-0.0237957220524549,standing,2026-03-04_13-56-43
1772632607031632000,3.9266318359375,0.0181724202241748,0.0615238514989614,-0.0156575878590345,0.0214970875531435,0.0461018905043602,-0.014675460755825,standing,2026-03-04_13-56-43
1772632607041580800,3.936580810546875,0.0245518921282142,0.0401037545904517,0.0774286921173334,0.026101566851139,0.0322746224701404,-0.0057961880229413,standing,2026-03-04_13-56-43
1772632607051529000,3.946529052734375,0.0239746036969125,0.0006958733096718,0.1772539249598979,0.0230011139065027,0.0046821450814604,-0.0067309574224054,standing,2026-03-04_13-56-43
1772632607061478000,3.956477783203125,-0.0156646751869469,-0.0578112607166171,0.2479156071603298,0.0113702025264501,-0.0298472009599208,-0.0194781627506017,standing,2026-03-04_13-56-43
1772632607071427000,3.966427001953125,-0.098648444148153,-0.1006143373936414,0.2454039166003465,-0.0076274564489722,-0.0672765970230102,-0.0383224226534366,standing,2026-03-04_13-56-43
1772632607081376000,3.9763759765625,-0.1437871241658926,-0.1170648291960358,0.190648244062066,-0.0260171797126531,-0.0786894410848617,-0.0504609867930412,standing,2026-03-04_13-56-43
1772632607091325000,3.986324951171875,-0.1355410546723753,-0.0835335848636925,0.0507201334118843,-0.0371696949005126,-0.0512186735868454,-0.0505850911140441,standing,2026-03-04_13-56-43
1772632607101273000,3.996273193359375,-0.1670405739814043,-9.06008929014e-05,-0.104486794912815,-0.0384466312825679,-0.0140139060094952,-0.0534681417047977,standing,2026-03-04_13-56-43
1772632607111222000,4.006221923828125,-0.1506836787465959,0.0710997813567519,-0.2325099482357502,-0.025648545473814,0.0290171857923269,-0.0417544953525066,standing,2026-03-04_13-56-43
1772632607121171000,4.0161708984375,-0.0520570811040699,0.1345312200427055,-0.3082540482670068,0.0014480766840279,0.0636646375060081,-0.0220443308353424,standing,2026-03-04_13-56-43
1772632607131119900,4.026119873046875,0.020019728591293,0.1790977992609143,-0.277162159910798,0.0274634324014186,0.0594307444989681,-0.0051622856408357,standing,2026-03-04_13-56-43
1772632607141068000,4.036068115234375,0.0544698413342237,0.1639915616743266,-0.1945551883727312,0.0588273778557777,0.0370018631219863,0.0099489381536841,standing,2026-03-04_13-56-43
1772632607151017000,4.046016845703125,0.0469772936217486,0.1141943883262574,-0.0794645818591117,0.0810804888606071,-0.0007564320694655,0.0067241173237562,standing,2026-03-04_13-56-43
1772632607160966000,4.0559658203125,-0.0087581106688827,0.0601432107955217,0.0578629909038543,0.0863925218582153,-0.0370306856930255,-0.005059054121375,standing,2026-03-04_13-56-43
1772632607170914800,4.065914794921875,-0.0370377911485731,0.0218415371909737,0.1878045450687408,0.075647197663784,-0.0659571439027786,-0.0155740128830075,standing,2026-03-04_13-56-43
1772632607180864000,4.075864013671875,0.0129424106162041,0.0082538874737918,0.2638099263846874,0.0541928745806217,-0.0797765478491783,-0.0184730440378189,standing,2026-03-04_13-56-43
1772632607190812200,4.085812255859375,0.0476228249836713,0.0501394109144806,0.2346066282540559,0.0329307280480861,-0.0656639263033866,-0.0164466463029384,standing,2026-03-04_13-56-43
1772632607200761000,4.095760986328125,0.0559131720103323,0.1240212242051959,0.1258364569336175,0.0169600155204534,-0.0320154204964637,-0.0115842465311288,standing,2026-03-04_13-56-43
1772632607210710000,4.1057099609375,0.0195968270041048,0.1703257331319153,0.0204524209201335,0.0048010880127549,0.0037340559065341,-0.0050802747718989,standing,2026-03-04_13-56-43
1772632607220659000,4.115658935546875,0.0205414143778383,0.1796542640998959,-0.013618190985918,-0.007265327963978,0.0266481600701808,0.0047442112118005,standing,2026-03-04_13-56-43
1772632607230607000,4.125607177734375,0.090736209718883,0.1586206822909414,0.0065086512416601,-0.0120800584554672,0.0316477119922637,0.0153414625674486,standing,2026-03-04_13-56-43
1772632607240556000,4.13555615234375,0.1240400750361382,0.1502361541748046,0.0065992521345615,-0.0080171022564172,0.0227130688726902,0.0233057551085948,standing,2026-03-04_13-56-43
1772632607250505000,4.1455048828125,0.137189260270819,0.1333088386408984,0.0215185888469219,0.0001904941163957,0.0036416410002857,0.0291583184152841,standing,2026-03-04_13-56-43
1772632607260454000,4.155453857421875,0.1084006804209202,0.1192116319663822,0.0421755924284458,0.0065787476487457,-0.0191797818988561,0.0332516655325889,standing,2026-03-04_13-56-43
1772632607270402800,4.16540283203125,0.0941720293864607,0.0999086733423173,0.085538348814845,0.0039416858926415,-0.030496085062623,0.0324998572468757,standing,2026-03-04_13-56-43
1772632607280351000,4.17535107421875,0.0675128627806901,0.0535651475794613,0.0794669199466705,-0.0010096286423504,-0.0326825380325317,0.0307490825653076,standing,2026-03-04_13-56-43
1772632607290300000,4.1852998046875,0.0052854661222547,0.0493679881505668,0.0435252534717321,-0.0088409204035997,-0.0245119594037532,0.0215313509106636,standing,2026-03-04_13-56-43
1772632607300249000,4.1952490234375,-0.067183557761088,0.0331092195279896,-0.0395528427094221,-0.0141722206026315,-0.0074855769053101,0.0130389481782913,standing,2026-03-04_13-56-43
1772632607310198000,4.205197998046875,-0.0460826828695833,0.0578584608592092,-0.1013935050725936,-0.0093372501432895,0.0230054873973131,0.0160456579178571,standing,2026-03-04_13-56-43
1772632607320146200,4.215146240234375,0.0010268588297069,0.0662830287247896,-0.1297001466244459,0.0013770363293588,0.0404794216156005,0.0231634601950645,standing,2026-03-04_13-56-43
1772632607330095000,4.22509521484375,0.0267738059613853,0.0631967531472444,-0.1229693770647048,0.0147815253585577,0.0158270709216594,0.0259195659309625,standing,2026-03-04_13-56-43
1772632607340044000,4.2350439453125,0.0297702843636274,0.0261617384776473,-0.1209405015856027,0.0302292648702859,0.00695635471493,0.0292114708572626,standing,2026-03-04_13-56-43
1772632607349993000,4.244992919921875,0.0415106257136911,0.0049463703610002,-0.1148912845492362,0.043317899107933,0.008092725649476,0.0344933196902275,standing,2026-03-04_13-56-43
1772632607359941000,4.254941162109375,0.0097839465852826,0.0123638070106506,-0.0466746574133634,0.0466569736599922,-0.0010986416600644,0.032102070748806,standing,2026-03-04_13-56-43
1772632607369890000,4.26489013671875,-0.0057713499430567,-0.0197450033031404,0.0099368721246719,0.0453797206282615,-0.0056806104257702,0.0321958139538764,standing,2026-03-04_13-56-43
1772632607379839000,4.2748388671875,-0.0451779160495847,-0.048443420651555,-0.0008341127365827,0.045251190662384,0.0115320589393377,0.0303766466677188,standing,2026-03-04_13-56-43
1772632607389788000,4.284787841796875,-0.1006567882958799,-0.0305694719173014,0.0071492872327566,0.0406471192836761,0.0198579002171754,0.0233509615063667,standing,2026-03-04_13-56-43
1772632607399736800,4.29473681640625,-0.1309403559438884,-0.0294753930702805,0.1268359893649816,0.0232430808246135,-0.0088877249509096,0.0166181679815053,standing,2026-03-04_13-56-43
1772632607409685000,4.30468505859375,-0.0498144167438149,-0.0502962089113891,0.1855856999754905,0.0091160768643021,-0.0295607801526784,0.0191566925495862,standing,2026-03-04_13-56-43
1772632607419634200,4.31463427734375,0.0417209074635058,-0.0156686937749385,0.0992068086832761,0.0029012891463935,-0.0107924211770296,0.0323092602193355,standing,2026-03-04_13-56-43
1772632607429583000,4.3245830078125,-0.0294172331422567,0.0592066605977714,0.0102174426317214,0.0078212125226855,0.0211551245301961,0.0295012220740318,standing,2026-03-04_13-56-43
1772632607439532000,4.334531982421875,-0.1371962014682591,0.0847528975255787,0.0202495918244123,0.0098064327612519,0.0244353413581848,0.0182100366801023,standing,2026-03-04_13-56-43
1772632607449480000,4.34447998046875,-0.1141053218033164,0.0175290808193385,0.0809171187549829,0.0059629590250551,0.0117600271478295,0.0113513311371207,standing,2026-03-04_13-56-43
1772632607459429000,4.35442919921875,-0.0528979889076203,-0.0014193652786314,0.1607645624518394,-0.0006590667180716,-0.0027818910311907,0.0095958895981311,standing,2026-03-04_13-56-43
1772632607469378000,4.3643779296875,-0.0425022670995444,0.0324981018923223,0.2066723271459341,-0.008031228557229,-0.0133117632940411,0.0060605434700846,standing,2026-03-04_13-56-43
1772632607479327000,4.374326904296875,-0.031560528781265,0.0506400539129972,0.1763964313477277,-0.0106942523270845,-0.019758079200983,0.0074837640859186,standing,2026-03-04_13-56-43
1772632607489276000,4.38427587890625,0.0192380036290734,0.0768592216663062,0.1343856740921735,-0.0186890605837106,-0.0216851439327001,0.009946122765541,standing,2026-03-04_13-56-43
1772632607499224000,4.39422412109375,0.0288192672491073,0.1116185464888811,0.0959019219189882,-0.0245864242315292,-0.0132304029539227,0.0145173408091068,standing,2026-03-04_13-56-43
1772632607509173000,4.404173095703125,0.0091578505761921,0.1149260636016726,0.0402823260277509,-0.0178475640714168,-0.0007223340217024,0.0190199483186006,standing,2026-03-04_13-56-43
1772632607519122000,4.414121826171875,-0.0083624624148011,0.1158902324587106,-0.0439285735756158,-0.0094536878168582,0.0036404493730515,0.0191493052989244,standing,2026-03-04_13-56-43
1772632607529071000,4.424071044921875,-0.0082554949089884,0.0920176278315484,-0.0618681348919868,0.0012436974793672,0.0096408175304532,0.0191607568413019,standing,2026-03-04_13-56-43
1772632607539019000,4.43401904296875,0.0238908709362149,0.0583409836791455,-0.0364162982493639,0.0047834566794335,0.0120669594034552,0.0250925421714782,standing,2026-03-04_13-56-43
1772632607548968200,4.44396826171875,0.0245087836388498,0.048534898327291,0.052259179547429,-0.0032361205667257,-0.0032163888681679,0.0251215696334838,standing,2026-03-04_13-56-43
1772632607558917000,4.453917236328125,0.0009014058191329,-0.0042293081328272,0.1197024842232465,-0.0217209905385971,-0.023167198523879,0.0211784243583679,standing,2026-03-04_13-56-43
1772632607568866300,4.4638662109375,0.0011106646556407,-0.0560557953514158,0.1419815360486507,-0.0401372835040092,-0.0239648148417472,0.015891782939434,standing,2026-03-04_13-56-43
1772632607578815200,4.473815185546875,-0.0342626273468136,-0.087010905585438,0.0692529844462871,-0.0494188964366912,-0.0190249141305685,0.0061603123322129,standing,2026-03-04_13-56-43
1772632607588763100,4.48376318359375,-0.0896069864932447,-0.0617252192899584,-0.0499777906119823,-0.0470651946961879,-0.0151505479589104,-0.0001801415346562,standing,2026-03-04_13-56-43
1772632607598712300,4.49371240234375,-0.0421861868876963,-0.0051670273743569,-0.1640232719868421,-0.0338995158672332,0.0094358902424573,0.0109323607757687,standing,2026-03-04_13-56-43
1772632607608661200,4.5036611328125,0.016306187960878,0.0757308021582663,-0.2515916653245687,-0.0079182488843798,0.0408478751778602,0.0271329022943973,standing,2026-03-04_13-56-43
1772632607618610200,4.513610107421875,-0.0317454568941146,0.098999157281965,-0.28407763838768,0.0262619312852621,0.0534082688391208,0.0336462371051311,standing,2026-03-04_13-56-43
1772632607628558000,4.52355810546875,-0.0660499506212771,0.0730297265060246,-0.1964788499116897,0.054081842303276,0.0356998480856418,0.0308957211673259,standing,2026-03-04_13-56-43
1772632607638507000,4.533507080078125,-0.0334814138412475,0.0048012628018856,-0.0600771598219871,0.0676970481872558,0.0117890574038028,0.0289685353636741,standing,2026-03-04_13-56-43
1772632607648456200,4.543456298828125,-0.008672624342516,-0.0363534621462225,0.0888029035687446,0.0643166974186897,-0.0076786503195762,0.0234701726585626,standing,2026-03-04_13-56-43
1772632607658405000,4.553405029296875,-0.0483140951834619,-0.0576120848827064,0.2377081014007329,0.040955264121294,-0.0297546628862619,0.0118560139089822,standing,2026-03-04_13-56-43
1772632607668354300,4.563354248046875,-0.048725525528565,-0.0887169788509607,0.3132055331945419,0.003810825292021,-0.0373888798058033,0.0039498871192336,standing,2026-03-04_13-56-43
1772632607678302000,4.573302001953125,-0.0152077251996845,-0.0975621102161705,0.3389484617382288,-0.0341113619506359,-0.0304762423038482,0.0047381427139043,standing,2026-03-04_13-56-43
1772632607688251100,4.583251220703125,-0.0316199308183044,-0.0576785742476582,0.2471522215723991,-0.0609866566956043,-0.0196635425090789,0.0055346935987472,standing,2026-03-04_13-56-43
1772632607698200300,4.593200439453125,-0.0464713899262249,0.0055539808653295,0.0785182409197092,-0.0692057758569717,0.0128995953127741,0.0120339412242174,standing,2026-03-04_13-56-43
1772632607708149200,4.603149169921875,-0.0616727584503591,0.0693833328276872,-0.0584632948845624,-0.0594389028847217,0.0350805297493934,0.0140156000852584,standing,2026-03-04_13-56-43
1772632607718097200,4.61309716796875,-0.0892808963440358,0.0748944974645972,-0.1066863507837057,-0.0440018251538276,0.035626083612442,0.0081197693943977,standing,2026-03-04_13-56-43
1772632607728046000,4.623046142578125,-0.1106686984181404,0.0349829044453799,-0.1149818854421377,-0.02454742975533,0.0234431866556406,0.0076116379350423,standing,2026-03-04_13-56-43
1772632607737995300,4.632995361328125,-0.0586341944720596,0.0111383568689227,-0.0808089822053909,-0.0051050973124802,0.0166358724236488,0.0064731622114777,standing,2026-03-04_13-56-43
1772632607747944200,4.642944091796875,-0.041518224498257,0.0093869831569492,-0.0453022000163793,0.0111031662672758,0.0014220324810594,0.0035601973067969,standing,2026-03-04_13-56-43
1772632607757892000,4.65289208984375,-0.0138151748627424,0.0262114228382706,-0.0014443535894155,0.0130584444850683,-0.0099099818617105,0.0080275945365428,standing,2026-03-04_13-56-43
1772632607767841000,4.662841064453125,0.0290223155405372,0.0243250245697796,0.0357563730359077,0.0078588891774415,-0.0116836465895175,0.0150133315473794,standing,2026-03-04_13-56-43
1772632607777790000,4.6727900390625,0.0477547077350318,0.0211252056151628,0.0788981801480054,-0.0025838329456746,-0.0112058781087398,0.0203397516161203,standing,2026-03-04_13-56-43
1772632607787739400,4.682739501953125,0.017998524961993,0.0090578973330557,0.1262771864384412,-0.0196975711733102,-0.0118929734453558,0.0195202957838773,standing,2026-03-04_13-56-43
1772632607797688300,4.692688232421875,-0.0186595461539924,-0.0026207038924098,0.138976509013772,-0.0356667265295982,-0.0072623994201421,0.0193459168076515,standing,2026-03-04_13-56-43
1772632607807636200,4.70263623046875,-0.0656595630642026,-0.0189577984482049,0.110794370624423,-0.0403823852539062,-0.0062850192189216,0.0080469232052564,standing,2026-03-04_13-56-43
1772632607817585200,4.712585205078125,-0.0757405928999185,-0.0091134269125759,0.0306932444274425,-0.0368346869945526,-0.0043622157536447,0.0040000677108764,standing,2026-03-04_13-56-43
1772632607827534000,4.7225341796875,-0.046785058985278,0.018003712593764,-0.0651250908613205,-0.0272771343588829,0.0113640166819095,0.0088214548304677,standing,2026-03-04_13-56-43
1772632607837483300,4.732483154296875,-0.0098082042437046,0.0540082151718437,-0.1113414831131696,-0.016291506588459,0.0183024797588586,0.0149413840845227,standing,2026-03-04_13-56-43
1772632607847431200,4.74243115234375,0.0025252076286822,0.0603521773710846,-0.0782429311096668,-0.0072207786142826,0.0145319774746894,0.0233407281339168,standing,2026-03-04_13-56-43
1772632607857380000,4.752380126953125,0.0001966185506433,0.0473942038595676,-0.0376993237972259,-0.0058879815042018,0.00960433203727,0.031964436173439,standing,2026-03-04_13-56-43
1772632607867329000,4.7623291015625,-0.0181420250859111,0.0100188513197004,0.0221942961513996,-0.0073918681591749,0.0017304306384176,0.0299028828740119,standing,2026-03-04_13-56-43
1772632607877278200,4.7722783203125,-0.0534510927457362,-0.0457709865719079,0.0344341845214366,-0.0090446360409259,-0.0057984618470072,0.0212150197476148,standing,2026-03-04_13-56-43
1772632607887227100,4.78222705078125,-0.121480892072618,-0.0832318254381418,0.0274275206297636,-0.0068677687086164,-0.0155714647844433,0.0102947289124131,standing,2026-03-04_13-56-43
1772632607897175000,4.792175048828125,-0.1254663815122097,-0.0787000272274017,-0.0094745153099298,-0.0016865637153387,-0.0238694734871387,0.0029248509090393,standing,2026-03-04_13-56-43
1772632607907124000,4.8021240234375,-0.0920678967140614,-0.0775404819287359,-0.0900730696350336,0.0127038266509771,-0.0112186605110764,0.0019866193179041,standing,2026-03-04_13-56-43
1772632607917073200,4.8120732421875,-0.0971317559748888,-0.0349555780470371,-0.1504547653615474,0.0281165558844804,0.0040042335167527,-0.00127472972963,standing,2026-03-04_13-56-43
1772632607927022300,4.822022216796875,-0.1144517971534282,-0.0315993994869291,-0.1351888071686029,0.0362799428403377,0.0048926649615168,-0.0067576458677649,standing,2026-03-04_13-56-43
1772632607936970200,4.83197021484375,-0.1202232932269573,-0.0361542863123118,-0.1014285763859748,0.0413076691329479,-0.0021224950905889,-0.0049120737239718,standing,2026-03-04_13-56-43
1772632607946919200,4.841919189453125,-0.0730669167112559,-0.0350317120231688,-0.048355742368102,0.040866918861866,-0.0064029935747385,-0.0050124749541282,standing,2026-03-04_13-56-43
1772632607956868000,4.8518681640625,-0.0470650449704378,-0.0234575940854847,-0.0234381587326526,0.0405722185969352,0.0039135571569204,-0.0016887101810425,standing,2026-03-04_13-56-43
1772632607966817000,4.861817138671875,-0.0548601558260619,-0.000538929182291,0.0123725748389959,0.0334298871457576,0.0162258837372064,-0.0004032023716717,standing,2026-03-04_13-56-43
1772632607976766200,4.87176611328125,-0.0673805416379123,-0.0079800389684736,0.0748451053649187,0.0257322285324335,0.0206817463040351,-0.003816716838628,standing,2026-03-04_13-56-43
1772632607986714000,4.881714111328125,-0.0554608251329511,-0.0140866852805018,0.128079267424345,0.0137810260057449,0.0034108816180378,-0.004847093950957,standing,2026-03-04_13-56-43
1772632607996663000,4.8916630859375,-0.033964375052601,-0.0018482582151889,0.1485217514723539,0.0027402425184845,-0.0131395980715751,-0.0053953118622303,standing,2026-03-04_13-56-43
1772632608006612000,4.901612060546875,-0.071054773171246,0.0248521171838045,0.1321498778641223,-0.0034462809562683,-0.0070084678009152,-0.0049580209888517,standing,2026-03-04_13-56-43
1772632608016561200,4.91156103515625,-0.0588663957927376,0.0520860149376094,0.1215910744488239,-0.0035374625585973,0.0061093373224139,-0.0039226245135068,standing,2026-03-04_13-56-43
1772632608026509000,4.921509033203125,-0.0326788652867078,0.0421469508558511,0.0748375065803527,0.0025505237281322,0.0150953754782676,-0.0036288776900619,standing,2026-03-04_13-56-43
1772632608036458200,4.931458251953125,-0.0666215399641543,0.0330531054265797,0.0617775339990854,0.0102110048756003,0.0137832351028919,-0.0054593533277511,standing,2026-03-04_13-56-43
1772632608046407200,4.9414072265625,-0.0439743124134838,0.0367215648062527,0.1141384203553199,0.005479366518557,-0.0013283404987305,-0.0039613251574337,standing,2026-03-04_13-56-43
1772632608056356000,4.951356201171875,0.0233667739968746,0.0233737151943147,0.214037302955985,-0.0069102933630347,-0.0271125361323356,-0.0005600203294306,standing,2026-03-04_13-56-43
1772632608066305300,4.96130517578125,0.0701879272088408,-0.0318684256866574,0.2661778245598077,-0.0227459818124771,-0.0610444024205207,0.0001358636654913,standing,2026-03-04_13-56-43
1772632608076253200,4.971253173828125,0.0174020934388041,-0.0249913795240223,0.1881763009905815,-0.0300996620208024,-0.0869086310267448,-0.0082746241241693,standing,2026-03-04_13-56-43
1772632608086202000,4.9812021484375,-0.095600673950091,-0.007749006691575,0.0080693246871232,-0.0258548501878976,-0.0795271471142768,-0.019014086574316,standing,2026-03-04_13-56-43
1772632608096151000,4.991151123046875,-0.1133059150539338,0.0254489140331745,-0.1956897453606128,-0.013080202974379,-0.0336849465966224,-0.0144121013581752,standing,2026-03-04_13-56-43
1772632608106100000,5.001099853515625,-0.0440408017784357,0.0957239350035786,-0.3094154932618141,0.0016305660828948,0.008700325153768,-0.0013221325352787,standing,2026-03-04_13-56-43
1772632608116048100,5.011048095703125,-0.0265613322544842,0.1114814761057496,-0.3140489982813597,0.0216589719057083,0.0355919860303401,0.009776365943253,standing,2026-03-04_13-56-43
1772632608125997000,5.0209970703125,-0.0354945802945643,0.0753114077024161,-0.2647761410683393,0.0421850197017192,0.0483362786471843,0.0136462058871984,standing,2026-03-04_13-56-43
1772632608135946200,5.0309462890625,-0.0092092154372483,0.0077839318744838,-0.1882429364860057,0.0583504177629947,0.0383138731122016,0.0139706768095493,standing,2026-03-04_13-56-43
1772632608145895200,5.040895263671875,0.001546060398221,-0.0417334016188979,-0.0241658884853124,0.0596926510334014,0.0069314511492848,0.0104060359299182,standing,2026-03-04_13-56-43
1772632608155844000,5.050843994140625,-0.0074313921097666,-0.0745922996476292,0.1276975746303796,0.0461985655128955,-0.0291517153382301,0.0032134973444044,standing,2026-03-04_13-56-43
1772632608165792300,5.060792236328125,-0.0021947335653007,-0.0908959303252398,0.175640644544363,0.0285146459937095,-0.0385068655014038,-0.0021719471551477,standing,2026-03-04_13-56-43
1772632608175741200,5.0707412109375,-0.0174061120267957,-0.0617446546427905,0.1763590219467878,0.0094666769728064,-0.0207264050841331,-0.0005981307476758,standing,2026-03-04_13-56-43
1772632608185690000,5.080690185546875,-0.0451154452726244,-0.0249793968252837,0.1619938119858503,-0.0118817556649446,-0.0083389785140752,-0.0030559620354324,standing,2026-03-04_13-56-43
1772632608195639000,5.09063916015625,-0.1067940489418804,-0.0104039051145315,0.1131897413283586,-0.0229653622955083,0.0023412250448018,-0.0130078038200736,standing,2026-03-04_13-56-43
1772632608205587200,5.100587158203125,-0.1481906198218464,-0.0129852999098598,0.0309352364897727,-0.0284400228410959,0.0083194887265563,-0.0222838595509529,standing,2026-03-04_13-56-43
1772632608215536000,5.1105361328125,-0.12324424848333,-0.0048990240879356,0.0045592707395553,-0.0214028730988502,0.0192236714065074,-0.0197854507714509,standing,2026-03-04_13-56-43
1772632608225485000,5.120485107421875,-0.0510824639182537,0.0379224650286138,-0.0578863717794418,-0.0011766981333494,0.0356274135410785,-0.0102894166484475,standing,2026-03-04_13-56-43
1772632608235434000,5.13043408203125,-0.0404538832023739,0.0891590235300362,-0.1015232689321041,0.0236005187034606,0.0315639600157737,-0.0074012046679854,standing,2026-03-04_13-56-43
1772632608245383200,5.140383056640625,-0.0629635289132595,0.0570855767905712,-0.0251630828291177,0.0373994186520576,0.0077310628257691,-0.0084643391892313,standing,2026-03-04_13-56-43
1772632608255331000,5.1503310546875,-0.0297008723892271,-0.0011038695886731,0.0833142430245876,0.0398360081017017,-0.0264747068285942,-0.0050188666209578,standing,2026-03-04_13-56-43
1772632608265280300,5.1602802734375,0.0156106069121509,-0.023773089775443,0.1314262397646904,0.0352825373411178,-0.0551702678203582,-0.0092274602502584,standing,2026-03-04_13-56-43
1772632608275229200,5.170229248046875,-0.0269274621531367,-0.0082478961244225,0.1108715275138616,0.0293200798332691,-0.0525321476161479,-0.0132179977372288,standing,2026-03-04_13-56-43
1772632608285178000,5.18017822265625,-0.0588796206004917,0.0495014052718877,0.0519324318110942,0.0115322954952716,-0.0304689239710569,-0.0123319644480943,standing,2026-03-04_13-56-43
1772632608295126300,5.190126220703125,-0.0160362849783152,0.049691082625091,0.0577513472229242,-0.0127406762912869,-0.0047809956595301,-0.0037012887187302,standing,2026-03-04_13-56-43
1772632608305075200,5.2000751953125,0.0230400262605398,0.0235011409662663,0.0978863737344741,-0.0350097604095935,0.0018430848140269,-0.005078675225377,standing,2026-03-04_13-56-43
1772632608315024100,5.210024169921875,-0.0119163555040955,0.0100657592013478,0.0537198997497558,-0.0479220077395439,-0.0008039667736738,-0.0061889616772532,standing,2026-03-04_13-56-43
1772632608324973000,5.21997314453125,-0.0005157675024121,0.0234378664717078,-0.079529463788867,-0.0431253872811794,0.0355519093573093,0.000791183207184,standing,2026-03-04_13-56-43
1772632608334922000,5.229921875,0.0102199268497526,0.0722796387910842,-0.2226975792735815,-0.0179091673344373,0.0729059278964996,0.0095158517360687,standing,2026-03-04_13-56-43
1772632608344870100,5.2398701171875,-0.0161282741107046,0.0715469406023621,-0.222351542314887,0.006910961586982,0.0586439073085784,0.0062912963330745,standing,2026-03-04_13-56-43
1772632608354819000,5.249819091796875,0.0008840162929147,0.0172853351913392,-0.1612000312596559,0.0298620592802763,0.01577939838171,0.0025027957744896,standing,2026-03-04_13-56-43
1772632608364768300,5.259768310546875,0.0608696253739297,-0.0198329738475382,-0.0948655646085739,0.0499518811702728,-0.0016334138344973,0.0105974730104208,standing,2026-03-04_13-56-43
1772632608374717200,5.26971728515625,0.0425588926576077,0.0013065525539219,-0.0508721091032028,0.0617826618254184,0.0022193908225744,0.0126692475751042,standing,2026-03-04_13-56-43
1772632608384665300,5.279665283203125,0.0012770341984927,0.0321137787498533,0.0554471619337797,0.0570763237774372,-0.0016696234233677,0.0118330148980021,standing,2026-03-04_13-56-43
1772632608394614300,5.2896142578125,-0.0544028405126184,-0.0115191728800535,0.2033516582906246,0.0363989695906639,-0.0235554855316877,0.0015084843616932,standing,2026-03-04_13-56-43
1772632608404563200,5.299563232421875,-0.1140817947972565,-0.1100903140082955,0.2193243034482002,0.0189424827694892,-0.0263177156448364,-0.0173080805689096,standing,2026-03-04_13-56-43
1772632608414512000,5.30951220703125,-0.1660510514874011,-0.0867731513068079,0.1648790120333433,0.0013989740982651,-0.0162488389760255,-0.0290503911674022,standing,2026-03-04_13-56-43
1772632608424461000,5.3194609375,-0.1340483318965881,0.0017692016296088,0.1187806932032108,-0.0126702385023236,-0.0005441780667752,-0.0278082937002182,standing,2026-03-04_13-56-43
1772632608435031300,5.33003125,-0.096344770315662,0.0450550933875143,0.1003086324453353,-0.0227783322334289,0.0083060413599014,-0.0196604486554861,standing,2026-03-04_13-56-43
1772632608444980200,5.339980224609375,-0.0113728962771594,0.0649703386910259,0.0546346765071153,-0.0242380499839782,0.0155888572335243,-0.0061829341575503,standing,2026-03-04_13-56-43
1772632608454929200,5.34992919921875,0.0552262857247143,0.1076204167634248,-0.0112023620158433,-0.0208739452064037,0.0308532994240522,0.0081563238054513,standing,2026-03-04_13-56-43
1772632608464878000,5.359878173828125,0.0339734351418912,0.1459942788213491,-0.0141781629562377,-0.0140194995328783,0.0295821707695722,0.0131641309708356,standing,2026-03-04_13-56-43
1772632608474826000,5.369825927734375,-0.0245998229231685,0.1053453114382922,0.0224468096077442,-0.0065591866150498,0.0191673468798398,0.0129137951880693,standing,2026-03-04_13-56-43
1772632608484775200,5.379775146484375,-0.0362497095108032,0.0644241029851138,0.052022448182106,0.0004638885147869,0.0054029263556003,0.00937045738101,standing,2026-03-04_13-56-43
1772632608494724400,5.389724365234375,-0.0474610585507005,0.0330979674816131,0.0822375537037849,0.0057819550856947,-0.012420012615621,-0.0010662042768672,standing,2026-03-04_13-56-43
1772632608504673300,5.39967333984375,-0.0473792985513806,0.024421178420633,0.0830354260832071,0.0034190823789685,-0.0135774202644824,-0.0029747649095952,standing,2026-03-04_13-56-43
1772632608514622200,5.409622314453125,-0.0021207915462553,0.0389066537603735,0.0668944386214017,-9.36272554099e-05,0.0041445842944085,0.0012737759388983,standing,2026-03-04_13-56-43
1772632608524570000,5.419570068359375,0.0245711813505738,0.0427750196263194,0.0977156933426856,-0.0075946343131363,0.0094864945858716,0.0043402258306741,standing,2026-03-04_13-56-43
1772632608534519300,5.429519287109375,0.0548971999008208,0.0414494701109826,0.1536672976672649,-0.0166027769446373,-0.0028809588402509,0.0091195348650217,standing,2026-03-04_13-56-43
1772632608544468200,5.43946826171875,0.0793286805197596,-0.0038311025954782,0.1275397537201643,-0.0190480928868055,-0.0245041027665138,0.01020472869277,standing,2026-03-04_13-56-43
1772632608554417200,5.449417236328125,0.0314352219011634,-0.0567236116103827,0.0440823028326034,-0.0157977044582366,-0.0479114279150962,-0.0020479429513216,standing,2026-03-04_13-56-43
1772632608564365000,5.459364990234375,-0.0770434191267937,-0.0720611737348139,-0.0828559778630733,-0.011831784620881,-0.0552789308130741,-0.0128884809091687,standing,2026-03-04_13-56-43
1772632608574313500,5.4693134765625,-0.0705843791805207,-0.0375761358089745,-0.1643780767738819,-0.011812075972557,-0.0355291925370693,-0.0144757255911827,standing,2026-03-04_13-56-43
1772632608584262400,5.479262451171875,-0.0371754460535943,0.0207345988623797,-0.2043120277553796,-0.0158272068947553,-0.0058866157196462,-0.0048415996134281,standing,2026-03-04_13-56-43
1772632608594211300,5.48921142578125,0.0003027823388576,0.0686146865427494,-0.190206345513463,-0.0189180709421634,0.0170261580497026,0.0101309586316347,standing,2026-03-04_13-56-43
1772632608604159200,5.4991591796875,0.017477277566865,0.0807701114997267,-0.2303191601932048,-0.01034068595618,0.0449980124831199,0.0228634346276521,standing,2026-03-04_13-56-43
1772632608614108400,5.5091083984375,0.0054657180599868,0.0775157858788967,-0.276074949195981,0.0094671081751585,0.0818977057933807,0.0343464538455009,standing,2026-03-04_13-56-43
1772632608624057300,5.519057373046875,-0.0373594973836094,0.0822642955802381,-0.2296539742827415,0.029865488409996,0.0892815887928009,0.0329934805631637,standing,2026-03-04_13-56-43
1772632608634006300,5.52900634765625,-0.0885024593174457,0.0235131236650049,-0.0486316367000341,0.0359681248664855,0.0455386340618133,0.0203157700598239,standing,2026-03-04_13-56-43
1772632608643955200,5.538955078125,-0.0608822656597942,-0.0315565832585096,0.1451625041723251,0.0311605427414178,-0.0049358671531081,0.0124156847596168,standing,2026-03-04_13-56-43
1772632608653903400,5.5489033203125,0.0114822018705308,-0.0288305192954838,0.2192699429124593,0.0183225087821483,-0.0110864378511905,0.0161281302571296,standing,2026-03-04_13-56-43
1772632608663852300,5.558852294921875,0.0182991884090006,0.0310236454255878,0.2535802087932824,5.2714254707e-05,0.0035874466411769,0.0215707197785377,standing,2026-03-04_13-56-43
1772632608673801200,5.56880126953125,-0.0338904330335557,0.0608725479833781,0.298330035623908,-0.0254891291260719,-0.0022318265400826,0.0172753073275089,standing,2026-03-04_13-56-43
1772632608683750400,5.57875048828125,-0.0256465554971247,0.0103419457942247,0.2948229042857885,-0.0436928682029247,-0.008677065372467,0.0192343611270189,standing,2026-03-04_13-56-43
1772632608693698000,5.588697998046875,-0.0270128754142671,-0.0165317403450608,0.1863350570380687,-0.0381537601351738,0.0055607268586754,0.0140515826642513,standing,2026-03-04_13-56-43
1772632608703647500,5.5986474609375,-0.1416289232186973,-0.0007889584206044,0.0324544088810682,-0.0210952796041965,-0.0019798830617219,-0.0041481670923531,standing,2026-03-04_13-56-43
1772632608713596400,5.608596435546875,-0.1920422557037323,0.0174820268072187,-0.0453875402122735,-0.0060164602473378,-0.0219258945435285,-0.0137826846912503,standing,2026-03-04_13-56-43
1772632608723545300,5.61854541015625,-0.0677929218310862,0.0053651802949607,-0.05723696796,0.0071415985003113,-0.0188688561320304,-0.003621156560257,standing,2026-03-04_13-56-43
1772632608733494300,5.628494384765625,0.0416806485183537,0.0316039295315742,-0.0550824202746152,0.0155923413112759,-0.0041128136217594,0.0130792604759335,standing,2026-03-04_13-56-43
1772632608743442200,5.638442138671875,0.0083390084739774,0.0538448413036763,-0.0460404511630535,0.0212059020996093,-0.0018893383676186,0.0167249888181686,standing,2026-03-04_13-56-43
1772632608753391400,5.648391357421875,-0.0779812114335596,0.0158354286439716,-0.0053396074622869,0.0121122729033231,-0.0194187965244054,0.004862735979259,standing,2026-03-04_13-56-43
1772632608763340300,5.65834033203125,-0.0814885619673878,-0.0809578891567885,0.0365197586238384,-0.0044664214365184,-0.0208036452531814,-0.0009194640442728,standing,2026-03-04_13-56-43
1772632608773909200,5.6689091796875,-0.113910749079287,-0.1223150048092007,-0.0103764325857162,-0.0175108499825,-0.0050249472260475,-0.0126855764538049,standing,2026-03-04_13-56-43
1772632608783858200,5.678858154296875,-0.1484452521700412,-0.061540364242345,-0.0500128619253635,-0.0292907413095235,0.0051741590723395,-0.0181135330349206,standing,2026-03-04_13-56-43
1772632608793807400,5.688807373046875,-0.0864796482529491,-0.000577069235593,-0.0576940640777349,-0.0381673276424407,0.0185237862169742,-0.0162474568933248,standing,2026-03-04_13-56-43
1772632608803756300,5.69875634765625,-0.0506801667276769,0.0105266547113656,-0.0995738884299993,-0.0368651375174522,0.033638022840023,-0.0115025863051414,standing,2026-03-04_13-56-43
1772632608813705200,5.708705322265625,-0.0256010358549654,0.0333591026358306,-0.1414881995737552,-0.0233077853918075,0.0448605827987194,-0.0042832889594137,standing,2026-03-04_13-56-43
1772632608823653000,5.718653076171875,-0.0224811502687633,0.0476572387099266,-0.1446323428183794,-0.000853553880006,0.045839037746191,-0.0003754482604563,standing,2026-03-04_13-56-43
1772632608833602300,5.728602294921875,-0.040921427648887,0.0372816829070448,-0.0899321998596191,0.0157994590699672,0.0344742648303508,-0.001905700424686,standing,2026-03-04_13-56-43
1772632608843551500,5.738551513671875,-0.0095311408679932,0.0255285551406443,-0.0205102885872125,0.0251960083842277,0.0139749748632311,-0.0036553016398102,standing,2026-03-04_13-56-43
1772632608853500400,5.74850048828125,0.002436068040505,0.0370312152773141,0.0697726244062185,0.0273217447102069,-0.0043395841494202,-0.0017830993747338,standing,2026-03-04_13-56-43
1772632608863448300,5.7584482421875,0.0153838124189525,0.0265238497883081,0.1213175182044506,0.0199834536761045,-0.0192767214030027,-0.00192180799786,standing,2026-03-04_13-56-43
1772632608873397200,5.768397216796875,0.0172392310272902,0.0213766961582005,0.1516536197572946,0.0101942056789994,-0.0218567922711372,-0.0016805256018415,standing,2026-03-04_13-56-43
1772632608883346400,5.778346435546875,0.0027124738290905,0.0410272991761565,0.1186234568148851,0.0055016614496707,-0.0122639555484056,-0.0006774532375857,standing,2026-03-04_13-56-43
1772632608893295400,5.78829541015625,-0.0221208655890077,0.0498055027849972,0.0368891764581203,0.0034174714237451,0.0047869328409433,0.003561234101653,standing,2026-03-04_13-56-43
1772632608903244300,5.798244384765625,-0.052427594916895,0.069091802535206,-0.0001911386579275,0.0045568263158202,0.0207444652915,-0.0010671996278688,standing,2026-03-04_13-56-43
1772632608913192200,5.808192138671875,-0.086398180514574,0.0551449641168117,-0.0059352352678775,0.0086852591484785,0.0131493946537375,-0.0124309081584215,standing,2026-03-04_13-56-43
1772632608923141000,5.81814111328125,-0.0847499749161303,0.0201810566328465,0.0071101242661476,0.0047476585023105,-0.0015616386663168,-0.0165869109332561,standing,2026-03-04_13-56-43
1772632608933090300,5.82809033203125,-0.0406113387864083,0.0319859145864844,0.040921792975068,0.0040373932570219,-0.0100688403472304,-0.0140774138271808,standing,2026-03-04_13-56-43
1772632608943039200,5.838039306640625,-0.0021785130828619,0.0658252019546926,8.0079498887e-05,0.0058484687469899,-0.0138405412435531,-0.0043851332738995,standing,2026-03-04_13-56-43
1772632608952988400,5.847988525390625,0.0135433721840381,0.102188308712095,-0.0231400525689125,0.0085561042651534,-0.0082103516906499,0.0047106272540986,standing,2026-03-04_13-56-43
1772632608962936300,5.857936279296875,0.0129986708480864,0.100635672442615,-0.0272919115513563,0.0077059334143996,0.0073825917206704,0.0091482670977711,standing,2026-03-04_13-56-43
1772632608972885200,5.86788525390625,-0.0144977502994239,0.0693906393513083,-0.0138227736473083,0.0035716420970857,0.0107719972729682,0.0090268272906541,standing,2026-03-04_13-56-43
1772632608982834400,5.87783447265625,-0.0821901343654841,-0.0082565178222954,0.017668927681446,-0.0030146641656756,0.0150662036612629,-0.0001915241591632,standing,2026-03-04_13-56-43
1772632608992783400,5.887783447265625,-0.1333354343868792,-0.0355757557719945,0.028847908821702,-0.0050549125298857,0.0206069089472293,-0.0092167109251022,standing,2026-03-04_13-56-43
1772632609002731300,5.897731201171875,-0.1398520497392863,-0.0412079164400696,0.0001402852535247,-0.002872203476727,0.0346289873123168,-0.0142267048358917,standing,2026-03-04_13-56-43
1772632609012680200,5.90768017578125,-0.1001741193454712,-0.0033859891764819,-0.0242284323275089,0.0048975693061947,0.0428685434162616,-0.0111038824543356,standing,2026-03-04_13-56-43
1772632609022629400,5.91762939453125,-0.0299696063280105,0.0256393220387399,-0.0001157353341579,0.0174742620438337,0.040004439651966,-0.0047635552473366,standing,2026-03-04_13-56-43
1772632609032578300,5.927578369140625,0.0111759854655712,0.0065407999455928,0.0666068538516759,0.0237215049564838,0.0154740642756223,-0.0037523531354963,standing,2026-03-04_13-56-43
1772632609042527200,5.93752734375,0.0060675564106553,-0.0466088987007737,0.1586900942653417,0.0175472851842641,-0.0228947605937719,-0.0106069231405854,standing,2026-03-04_13-56-43
1772632609052475100,5.94747509765625,-0.0287304929871112,-0.0921098361596465,0.255278244882822,-0.003081027418375,-0.0639343410730362,-0.0235799793154001,standing,2026-03-04_13-56-43
1772632609062424000,5.957424072265625,-0.0692790687356144,-0.1063040734678506,0.2732452787280082,-0.0307097062468528,-0.0850332230329513,-0.0352667979896068,standing,2026-03-04_13-56-43
1772632609072373500,5.96737353515625,-0.081592606863752,-0.071588149395585,0.1597568467140197,-0.0533186122775077,-0.0705552175641059,-0.0364793352782726,standing,2026-03-04_13-56-43
1772632609082322400,5.977322509765625,-0.078695277987048,0.0090038290582597,-0.0732061059862375,-0.0549778528511524,-0.0207505151629447,-0.0307486057281494,standing,2026-03-04_13-56-43
1772632609092270300,5.987270263671875,-0.0965161813598126,0.1021647817060351,-0.290933495631814,-0.0415336824953556,0.0405197627842426,-0.0180077776312828,standing,2026-03-04_13-56-43
1772632609102219300,5.99721923828125,-0.0705198625769466,0.1527110198557376,-0.3793716575413942,-0.0210443399846553,0.0794368013739585,-0.0070935687981545,standing,2026-03-04_13-56-43
1772632609112168200,6.007168212890625,-0.037511180813983,0.1376001060940325,-0.3005646628081798,0.0035187941975891,0.0884864926338195,0.0058981296606361,standing,2026-03-04_13-56-43
1772632609122117400,6.017117431640625,-0.0243541045337915,0.0853000100143253,-0.1828372780501842,0.0258524268865585,0.0721437335014343,0.0079927900806069,standing,2026-03-04_13-56-43
1772632609132066300,6.02706640625,-0.049403059463948,0.0305631883069872,-0.0406482367306947,0.0435579232871532,0.0373695120215415,-0.001694191712886,standing,2026-03-04_13-56-43
1772632609142014200,6.03701416015625,-0.0659339230261743,-0.0201468621022999,0.0926642551720142,0.0510537512600421,-0.0032805800437927,-0.0147759187966585,standing,2026-03-04_13-56-43
1772632609151963100,6.046963134765625,-0.052874681097269,-0.0523912814944982,0.2021282539755106,0.0490734241902828,-0.0359093658626079,-0.0261340346187353,standing,2026-03-04_13-56-43
1772632609161912300,6.056912353515625,-0.0362890916731208,-0.0489426023453474,0.2247445749312639,0.0401465073227882,-0.0532563962042331,-0.028793467208743,standing,2026-03-04_13-56-43
1772632609171861200,6.066861328125,-0.0073709671594202,-0.0044127018757164,0.212129423508048,0.0264655463397502,-0.0579198487102985,-0.0297917332500219,standing,2026-03-04_13-56-43
1772632609181810400,6.076810546875,0.04184365706034,0.0439493241026997,0.154207980415225,0.0069523639976978,-0.0379163175821304,-0.0231244098395109,standing,2026-03-04_13-56-43
1772632609191758300,6.08675830078125,0.044611733534187,0.0682497987531125,0.0936655411690473,-0.0158291142433881,-0.0056744925677776,-0.0173613298684358,standing,2026-03-04_13-56-43
1772632609201707300,6.096707275390625,-2.08966575562e-05,0.0763110862642526,0.0317108970373868,-0.0361391566693782,0.0223507583141326,-0.0163512602448463,standing,2026-03-04_13-56-43
1772632609211656400,6.106656494140625,-0.0179242906820029,0.0636579409182071,-0.0164320793628692,-0.0480109937489032,0.0429902523756027,-0.0161656383424997,standing,2026-03-04_13-56-43
1772632609221605400,6.11660546875,0.0039203152488917,0.0592448006510734,-0.0682557901024818,-0.0413997247815132,0.0569855645298957,-0.0121023412793874,standing,2026-03-04_13-56-43
1772632609231553300,6.12655322265625,0.0371997037120163,0.0771584968738257,-0.1132698208272457,-0.0253179632127285,0.0581459030508995,-0.0047400332987308,standing,2026-03-04_13-56-43
1772632609241502200,6.136502197265625,0.0688015143517404,0.0936098654590547,-0.0722381377369165,-0.0074670119211077,0.0357878617942333,0.0018040523864328,standing,2026-03-04_13-56-43
1772632609251451100,6.146451171875,0.1069096381455659,0.0787792299434542,0.0028846155256032,0.0096083786338567,0.0006003121379762,0.0093461237847805,standing,2026-03-04_13-56-43
1772632609261400300,6.156400390625,0.1107158985607325,0.044543782864511,0.0490016390562057,0.025350421667099,-0.0307416301220655,0.0136349638924002,standing,2026-03-04_13-56-43
1772632609271349200,6.166349365234375,0.0652754591174423,0.0531308478154242,0.063096799904108,0.0376965701580047,-0.0498340986669063,0.0126099120825529,standing,2026-03-04_13-56-43
1772632609281297200,6.176297119140625,-0.0267279940582811,0.0368143576562404,0.0258230080425739,0.0404908806085586,-0.0479907914996147,0.0030486036557704,standing,2026-03-04_13-56-43
1772632609291246000,6.18624609375,-0.08429587447308,0.012303308995068,0.005255436310172,0.0353363342583179,-0.0360390581190586,-0.0078559750691056,standing,2026-03-04_13-56-43
1772632609301195300,6.1961953125,-0.087514471193403,0.0097298052452504,0.018987609064579,0.0225883591920137,-0.0238067600876092,-0.0129762254655361,standing,2026-03-04_13-56-43
1772632609311144400,6.20614453125,-0.02224712231718,0.0311078165777027,0.0169902977675199,-0.0007212245836853,-0.0021102533210068,-0.0022484799847006,standing,2026-03-04_13-56-43
1772632609321092400,6.21609228515625,0.0280639188371598,0.0745809014707803,0.0290396320015192,-0.0214774869382381,0.0270199365913867,0.0127487052232027,standing,2026-03-04_13-56-43
1772632609331041300,6.226041259765625,0.020596067174524,0.0767379333741963,0.0097287823319435,-0.0354108810424804,0.0401285476982593,0.0208481773734092,standing,2026-03-04_13-56-43
1772632609340990200,6.235990234375,-0.0034210604898631,0.0412368502736091,-0.0340682738184928,-0.0386215187609195,0.0417253784835338,0.0203286930918693,standing,2026-03-04_13-56-43
1772632609350939400,6.245939453125,-0.0367435574423521,-0.0020139701709151,-0.0504892472654581,-0.0309811756014823,0.0351047590374946,0.0166383497416973,standing,2026-03-04_13-56-43
1772632609360888300,6.255888427734375,-0.0771417649347335,-0.0342503523871302,-0.0733113199263811,-0.0153413889929652,0.0319226831197738,0.010136691853404,standing,2026-03-04_13-56-43
1772632609370836200,6.265836181640625,-0.1250502019267529,-0.035671909622848,-0.0657914458155632,0.0021579749882221,0.0276584308594465,0.0046420572325587,standing,2026-03-04_13-56-43
1772632609380785200,6.27578515625,-0.1168720831029117,-0.0342833778738975,-0.0459317300915718,0.0220641307532787,0.0187585446983575,-0.005309390835464,standing,2026-03-04_13-56-43
1772632609390734000,6.285734130859375,-0.1237650574870407,-0.0065726563885807,0.0272585938036441,0.0301260519772768,-0.0008708166424185,-0.0147241977974772,standing,2026-03-04_13-56-43
1772632609400683300,6.295683349609375,-0.0672717475011944,0.0061466860614717,0.0957832639753818,0.025600004941225,-0.0112705966457724,-0.0149834211915731,standing,2026-03-04_13-56-43
1772632609410632400,6.305632568359375,-0.0408191363181918,0.0017348609685897,0.1054331358522176,0.0160376578569412,0.0007205528672784,-0.0148835536092519,standing,2026-03-04_13-56-43
1772632609420580400,6.315580322265625,-0.0505634815454483,0.019753186609596,0.1238286242425441,-0.0003511188551783,0.0134211685508489,-0.0179701149463653,standing,2026-03-04_13-56-43
1772632609430529300,6.325529296875,-0.0395591993849724,0.0209802441865205,0.1417956580877304,-0.017870457842946,0.0167759526520967,-0.0200700163841247,standing,2026-03-04_13-56-43
1772632609440478200,6.335478271484375,-0.0005906593695282,0.0021560089901089,0.1346457863330841,-0.0294005088508129,0.0193263310939073,-0.012788220308721,standing,2026-03-04_13-56-43
1772632609450427400,6.345427490234375,0.0429154510103166,0.0137510235853493,0.1016641387075185,-0.0309462063014507,0.0249171052128076,-0.0005134439561516,standing,2026-03-04_13-56-43
1772632609460375300,6.355375244140625,0.0546736933432519,0.0358330915339291,0.0825970346659421,-0.0274177715182304,0.0151442335918545,0.0058914152905344,standing,2026-03-04_13-56-43
1772632609470324200,6.36532421875,0.0200179019603878,0.0011855565227568,0.0921937150508165,-0.0251809805631637,-0.0079927779734134,0.0007091704756021,standing,2026-03-04_13-56-43
1772632609480273200,6.375273193359375,5.3045361489e-05,-0.021455898874253,0.0451730206787586,-0.0172579921782016,-0.027514673769474,-0.0011647687060758,standing,2026-03-04_13-56-43
1772632609490222300,6.385222412109375,-0.0199621531851589,-0.0082375208608806,0.0171358437180519,-0.010038960725069,-0.0292145702987909,0.0001987696159631,standing,2026-03-04_13-56-43
1772632609500171300,6.395171142578125,-0.0473157317958772,0.0234767371773719,-0.025052608191967,-0.0072453198954463,-0.025943549349904,-0.000872382428497,standing,2026-03-04_13-56-43
1772632609510119200,6.405119140625,-0.0256832342457026,0.0399355584166944,-0.0483341150581836,-0.0047842925414443,-0.0062420172616839,0.0082002077251672,standing,2026-03-04_13-56-43
1772632609520068000,6.415068115234375,0.012484218519926,0.0761354374364018,-0.0701812052071094,-0.0016035479493439,0.0107842423021793,0.0127631705254316,standing,2026-03-04_13-56-43
1772632609530017300,6.425017333984375,0.0125568453647196,0.0825697082675993,-0.0342144042909145,-0.000570508185774,0.0163063071668148,0.01484842505306,standing,2026-03-04_13-56-43
1772632609539966500,6.434966552734375,0.0169365217536687,0.0753626994982361,-0.0172597623586654,0.0016344231553375,0.007854233495891,0.010095833800733,standing,2026-03-04_13-56-43
1772632609549915400,6.444915283203125,0.029643662309274,0.033661446583271,0.0175689744383096,0.0011934037320315,-0.0108459508046507,0.0045271636918187,standing,2026-03-04_13-56-43
1772632609559863300,6.45486328125,0.0108703535825014,0.0221362823538482,0.0565191750794649,-0.009459912776947,-0.031406220048666,-0.0062991469167172,standing,2026-03-04_13-56-43
1772632609569812700,6.464812744140625,-0.0196386203192174,0.0272596167169511,0.0782569596350193,-0.0229711942374706,-0.0455856882035732,-0.011295236647129,standing,2026-03-04_13-56-43
1772632609579761700,6.47476171875,0.0019466040231287,0.0485911585591733,0.0345125104546546,-0.0365861803293228,-0.0382568053901195,-0.0055778794921934,standing,2026-03-04_13-56-43
1772632609589710600,6.484710693359375,0.0081754154101014,0.0998646880701184,-0.0608686024606227,-0.0417700223624706,-0.008669352158904,0.0043117692694067,standing,2026-03-04_13-56-43
1772632609599658800,6.49465869140625,-0.0035818040095269,0.1221538228981196,-0.176423903876543,-0.030464731156826,0.0233158785849809,0.014398505911231,standing,2026-03-04_13-56-43
1772632609609607700,6.504607666015625,0.0012011194180697,0.1260387015074491,-0.2474941668778657,-0.0087738167494535,0.0468803308904171,0.0288930274546146,standing,2026-03-04_13-56-43
1772632609619556600,6.514556640625,-0.0373786404754966,0.1441327227331698,-0.2666676539033651,0.0179794747382402,0.0676411315798759,0.0410451404750347,standing,2026-03-04_13-56-43
1772632609629505500,6.524505615234375,-0.105315793082863,0.0812776226304471,-0.205887314248085,0.0430091954767704,0.0569658540189266,0.034951563924551,standing,2026-03-04_13-56-43
1772632609639454700,6.534454833984375,-0.1438894885618239,-0.0030509120032191,-0.0690168376028537,0.0560719929635524,0.0258293692022562,0.0224026516079902,standing,2026-03-04_13-56-43
1772632609649402600,6.544402587890625,-0.12354023575522,-0.0821940068230032,0.0833680190384388,0.0555785074830055,0.0050668325275182,0.014269889332354,standing,2026-03-04_13-56-43
1772632609659351600,6.5543515625,-0.1197544336061924,-0.1123582589402794,0.20707155559659,0.0432615540921688,-0.0062089832499623,0.0038567204028367,standing,2026-03-04_13-56-43
1772632609669300500,6.564300537109375,-0.130556909584254,-0.1164079727225005,0.3149842333048582,0.0151425702497363,-0.0247714817523956,-0.0079264361411333,standing,2026-03-04_13-56-43
1772632609679249700,6.574249755859375,-0.0906265387993305,-0.1314656949922442,0.3733025667607784,-0.0160395186394453,-0.0347410291433334,-0.010740234516561,standing,2026-03-04_13-56-43
1772632609689197600,6.584197509765625,-0.0380840122658759,-0.1260004153236746,0.3233797212064266,-0.0455939508974552,-0.0237626805901527,-0.0119314659386873,standing,2026-03-04_13-56-43
1772632609699146800,6.594146728515625,-0.1115604596260935,-0.1024832000054419,0.2033347071558237,-0.0616178885102272,-0.0116442367434501,-0.0238311570137739,standing,2026-03-04_13-56-43
