time,seconds_elapsed,acc_x,acc_y,acc_z,gyr_x,gyr_y,gyr_z,activity,session
1772632614642384000,0.0603837890625,-0.0640836189843714,0.06719605191648,-0.0070166007637977,-0.0029389234259724,0.0560420006513595,0.0395435579121112,standing,2026-03-04_13-56-54
1772632614652332800,0.070332763671875,-0.037587753181532,0.0130346920095384,0.0991413422316312,-0.0012680562213063,0.0274356584995985,0.0308315549045801,standing,2026-03-04_13-56-54
1772632614662281700,0.08028173828125,0.0070100979577749,-0.0180004977233707,0.1557604705542326,0.0086683994159102,-0.0120036229491233,0.0303720645606517,standing,2026-03-04_13-56-54
1772632614672230700,0.090230712890625,0.0162085728053003,-0.0002330781035125,0.1707218928426504,0.0214212127029895,-0.0485480539500713,0.0246230978518724,standing,2026-03-04_13-56-54
1772632614682179600,0.1001796875,0.0136363111644983,0.0128594815731048,0.1159276418596506,0.0365275368094444,-0.0642781555652618,0.020470218732953,standing,2026-03-04_13-56-54
1772632614692127700,0.110127685546875,0.0225106686241924,0.0191724641121923,0.0619213263839483,0.0406370609998703,-0.0596141628921031,0.0221725106239318,standing,2026-03-04_13-56-54
1772632614702076700,0.12007666015625,0.0113569315230473,0.0429896852903068,0.0476882183700799,0.0323763564229011,-0.0486724264919757,0.0256462972611188,standing,2026-03-04_13-56-54
1772632614712025600,0.130025634765625,-0.0074688745759427,0.0538688067011535,0.0790600927114486,0.0146900378167629,-0.0341067984700202,0.0251903645694255,standing,2026-03-04_13-56-54
1772632614721974500,0.139974609375,-0.0178270043199881,0.041877632395178,0.0893313113570213,-0.0045435028150677,-0.0173963941633701,0.0245266333222389,standing,2026-03-04_13-56-54
1772632614731922700,0.149922607421875,-0.0587499663388356,-0.0032958266749978,0.0409030882745981,-0.0198612064123153,0.0049057160504162,0.0173669904470443,standing,2026-03-04_13-56-54
1772632614741871600,0.15987158203125,-0.065365110162273,-0.021288871744275,-0.0236795662730932,-0.0248212441802024,0.0289026610553264,0.0194693766534328,standing,2026-03-04_13-56-54
1772632614751820800,0.16982080078125,-0.0530506221860647,0.0029098960973322,-0.056934770143032,-0.0245746374130249,0.04169861972332,0.0232159104198217,standing,2026-03-04_13-56-54
1772632614761769700,0.179769775390625,-0.012744476891309,0.0188182438470423,-0.0876110634356737,-0.0097863934934139,0.0371471419930458,0.0300670061260461,standing,2026-03-04_13-56-54
1772632614771718700,0.18971875,0.0285218917377293,0.0403391707815229,-0.0654553457289934,0.0064418455585837,0.016662374138832,0.0311040412634611,standing,2026-03-04_13-56-54
1772632614781666800,0.199666748046875,0.0289735810279846,0.0192072431646287,-0.0370680401563644,0.0196813829243183,-0.0099247628822922,0.0272903069853782,standing,2026-03-04_13-56-54
1772632614791615700,0.20961572265625,0.0182302513586357,-0.0026877777792513,-0.0073848495543003,0.033769242465496,-0.0288063082844018,0.0288724936544895,standing,2026-03-04_13-56-54
1772632614801564700,0.219564697265625,0.0144665514435619,0.0055031274609267,0.000137947165966,0.034489668905735,-0.0318914502859115,0.027951780706644,standing,2026-03-04_13-56-54
1772632614811513600,0.229513671875,-0.0216697608206421,0.0033836510889232,0.0311485869795083,0.028811540454626,-0.0222305674105882,0.0260761156678199,standing,2026-03-04_13-56-54
1772632614821461800,0.239461669921875,-0.0592568564150482,0.0291012990608811,0.0273123698174953,0.0236527062952518,-0.0128776784986257,0.022465780377388,standing,2026-03-04_13-56-54
1772632614831410700,0.24941064453125,-0.0695825086615979,0.0343827465951442,0.005078326177597,0.0240455232560634,-0.0082600237801671,0.0225723069161176,standing,2026-03-04_13-56-54
1772632614841359600,0.259359619140625,-0.0655439738605171,0.0406099505469203,-0.0890542479813098,0.0503124631941318,0.0027966273482888,0.0218949131667614,standing,2026-03-04_13-56-54
1772632614851308500,0.26930859375,-0.0897512172695249,0.0468878617726266,-0.2461544427067041,0.098161481320858,0.004724490456283,0.0181284043937921,standing,2026-03-04_13-56-54
1772632614861257700,0.2792578125,-0.0807406662095338,0.0902928498655557,-0.322910934650898,0.1405232548713684,-0.0066276378929615,0.0192851386964321,standing,2026-03-04_13-56-54
1772632614871206000,0.289205810546875,-0.0166501425603404,0.1401174957424402,-0.2682511237025261,0.1668829619884491,-0.0239373855292797,0.0327966883778572,standing,2026-03-04_13-56-54
1772632614881154800,0.29915478515625,0.0467556867603212,0.1154679153934121,-0.124089905527234,0.1682416349649429,-0.0360108241438865,0.042036697268486,standing,2026-03-04_13-56-54
1772632614891103700,0.309103759765625,0.0413388128107413,0.070479457501322,0.0198018480569124,0.1429101824760437,-0.0407842732965946,0.040866233408451,standing,2026-03-04_13-56-54
1772632614901052700,0.319052734375,-0.0297265548197552,0.0150415017873048,0.1430921276390552,0.0973097905516624,-0.033189333975315,0.034409049898386,standing,2026-03-04_13-56-54
1772632614911000800,0.329000732421875,-0.0826348093930631,-0.016666618771106,0.2176250983148813,0.0462655164301395,-0.0130342626944184,0.0261865425854921,standing,2026-03-04_13-56-54
1772632614920949800,0.33894970703125,-0.0900730696350336,-0.0141039286762475,0.2517909872889519,-0.0087325777858495,0.013610266149044,0.0219017975032329,standing,2026-03-04_13-56-54
1772632614930898700,0.348898681640625,-0.0589664586337283,-0.011379326017946,0.2324719543129205,-0.0506651103496551,0.0407396219670772,0.0206469148397445,standing,2026-03-04_13-56-54
1772632614940847600,0.35884765625,-0.0493814686866477,-0.0044626784972846,0.2192021383732557,-0.07691290974617,0.0533743165433406,0.0181872174143791,standing,2026-03-04_13-56-54
1772632614950796500,0.368796630859375,-0.0644431730117648,0.0181422442816197,0.2145546048283576,-0.0917589738965034,0.0540848486125469,0.0145559972152113,standing,2026-03-04_13-56-54
1772632614960744700,0.37874462890625,-0.0589278071237727,0.0039842473305761,0.1989689131617546,-0.0901874005794525,0.0378604680299758,0.0131615102291107,standing,2026-03-04_13-56-54
1772632614970693600,0.388693603515625,-0.0580429871132597,-0.0245803145051002,0.1709405040293931,-0.0737253352999687,0.0191139448434114,0.0095294909551739,standing,2026-03-04_13-56-54
1772632614980642800,0.398642822265625,-0.0792271198414266,-0.0230303085841238,0.112937227872014,-0.050585389137268,0.0046211592853069,0.0054136738181114,standing,2026-03-04_13-56-54
1772632614990591700,0.408591796875,-0.0799888979941606,-0.0050404783852398,0.1049742861688137,-0.0274214781820774,-0.0146966120228171,0.0028373321983963,standing,2026-03-04_13-56-54
1772632615000540000,0.418539794921875,-0.0686162209127098,-0.0208367440626025,0.0893693052798509,-0.0042305057868361,-0.0432715341448783,-0.0027151769027113,standing,2026-03-04_13-56-54
1772632615010488800,0.42848876953125,-0.0506769153246656,0.0017918518528342,0.0390261884868144,0.0146068315953016,-0.0576930828392505,-0.0067027281038463,standing,2026-03-04_13-56-54
1772632615020437800,0.438437744140625,-0.0343240021452307,0.0316917539454996,-0.0558422987312078,0.0313746593892574,-0.0500663258135318,-0.0033832527697086,standing,2026-03-04_13-56-54
1772632615030386700,0.44838671875,-0.0344389337617903,0.0963783072590828,-0.1079565168499946,0.0260786972939968,-0.0283067021518945,-2.74037010967e-05,standing,2026-03-04_13-56-54
1772632615040335600,0.458335693359375,-0.0156524367598816,0.1173714109271764,-0.0520060815691947,0.0093901976943016,-0.0052764834836125,0.0107729490846395,standing,2026-03-04_13-56-54
1772632615050283800,0.46828369140625,0.0261684604793786,0.0913182473905384,-0.0117740244239568,-0.0121710207313299,0.0161814056336879,0.0183054339140653,standing,2026-03-04_13-56-54
1772632615060232700,0.478232666015625,0.0179540282331407,0.0473687771573662,0.0328629896819591,-0.0341590866446495,0.0310590229928493,0.0211205352097749,standing,2026-03-04_13-56-54
1772632615070181600,0.488181640625,0.0240508472708985,0.04006020770967,0.0799585028558969,-0.0500762686133384,0.0306377112865448,0.0242596045136451,standing,2026-03-04_13-56-54
1772632615080130800,0.498130859375,0.0191013716373592,0.0196003341354429,0.0574918195039033,-0.0494669266045093,0.0115770623087883,0.0223434157669544,standing,2026-03-04_13-56-54
1772632615090078700,0.50807861328125,0.027737171100825,-0.0008925649255514,0.0178466223359107,-0.0348941087722778,-0.0120952436700463,0.0196323171257972,standing,2026-03-04_13-56-54
1772632615100028000,0.51802783203125,0.0296820946235209,-0.0137625678926706,-0.083296707367897,-0.0128529816865921,-0.0267653968185186,0.0195362754166126,standing,2026-03-04_13-56-54
1772632615109976800,0.527976806640625,-0.0022323621619492,-0.000177110132575,-0.184258835285902,0.0092230252921581,-0.0316435098648071,0.0115430653095245,standing,2026-03-04_13-56-54
1772632615119925800,0.53792578125,-0.0666516428414732,0.0195702312581241,-0.2224731228679418,0.0203967839479446,-0.01860280521214,0.0090169589966535,standing,2026-03-04_13-56-54
1772632615129874700,0.547874755859375,-0.0758389021752402,0.0099183135546743,-0.2185328608095645,0.0210311505943536,0.0075188102200627,0.0109637295827269,standing,2026-03-04_13-56-54
1772632615139822800,0.55782275390625,-0.0848357169708237,0.0149831957288086,-0.1515869842618703,0.0217920523136854,0.0254093986004591,0.011898485943675,standing,2026-03-04_13-56-54
1772632615149771800,0.567771728515625,-0.0658949061900377,0.0432017206057906,-0.0953261678576469,0.0205704607069492,0.0310214776545763,0.019446151331067,standing,2026-03-04_13-56-54
1772632615159720700,0.577720703125,-0.028449009164609,0.0461463957555592,-0.0332791692674159,0.0270755253732204,0.0307932365685701,0.028400607407093,standing,2026-03-04_13-56-54
1772632615169669600,0.587669677734375,-0.0046758097913116,0.0494442682571709,-0.0124579150348901,0.033953670412302,0.0166459921747446,0.0341085605323314,standing,2026-03-04_13-56-54
1772632615179617500,0.597617431640625,-0.0542595961170271,0.019653379496932,0.036264907079935,0.0310527253895998,0.0013304238673299,0.0193642228841781,standing,2026-03-04_13-56-54
1772632615189566700,0.607566650390625,-0.1567991659522056,-0.0615298428483307,0.0818476776033639,0.0206773169338703,-0.0059352125972509,-0.0047016981989145,standing,2026-03-04_13-56-54
1772632615199515600,0.617515625,-0.209135721584782,-0.1112675410941243,0.1265653557300567,0.004268430173397,0.0052268905565142,-0.0204511284828186,standing,2026-03-04_13-56-54
1772632615209464800,0.62746484375,-0.1521179858660325,-0.0701977179504931,0.1556435661762952,-0.0190520714968442,0.0137085262686014,-0.0219222586601972,standing,2026-03-04_13-56-54
1772632615219413800,0.637413818359375,-0.0647004357084631,-0.0007823825493454,0.2221720940947532,-0.041993647813797,0.0046142330393195,-0.0194806177169084,standing,2026-03-04_13-56-54
1772632615229361700,0.647361572265625,-0.0029949074996635,0.0261634920433163,0.2681009015768766,-0.053861491382122,-0.0150002148002386,-0.013389435596764,standing,2026-03-04_13-56-54
1772632615239310800,0.657310791015625,0.0411871293803676,0.0336754751086235,0.227976396459341,-0.0504524558782577,-0.0247677583247423,-0.011974960565567,standing,2026-03-04_13-56-54
1772632615249259800,0.667259765625,0.0070259165814146,0.0495297545835375,0.0681195965021848,-0.033881202340126,-0.0110354349017143,-0.0148085635155439,standing,2026-03-04_13-56-54
1772632615259208700,0.677208740234375,-0.0445645699242129,0.0796682877376675,-0.0446469509780406,-0.015657065436244,0.0039079636335372,-0.0169098246842622,standing,2026-03-04_13-56-54
1772632615269157600,0.68715771484375,-0.0348173386201262,0.0942069545693695,-0.0358592488884925,-0.0034214379265904,-0.0011254108976572,-0.0193988159298896,standing,2026-03-04_13-56-54
1772632615279105500,0.69710546875,0.0254941048817709,0.0717605833530426,-0.019243045130372,0.0045711263082921,-0.0092954542487859,-0.0122057572007179,standing,2026-03-04_13-56-54
1772632615289054700,0.7070546875,0.0526730941105633,0.0712099637329578,0.0135439567059278,0.0062736850231885,-0.0213073771446943,-0.0116981584578752,standing,2026-03-04_13-56-54
1772632615299003600,0.717003662109375,0.0233161763207986,0.041600715149939,0.0234966109216213,0.0031655598431825,-0.0299392230808734,-0.0157071147114038,standing,2026-03-04_13-56-54
1772632615308952800,0.726952880859375,-0.0097296956473961,0.0222438343815505,0.016464228066802,-0.0003263768739998,-0.0298611912876367,-0.0157542526721954,standing,2026-03-04_13-56-54
1772632615318900500,0.736900390625,-0.0128058516897261,0.0168899061329662,0.0144184014528989,-0.0065609477460384,-0.0241826623678207,-0.015575329773128,standing,2026-03-04_13-56-54
1772632615328850000,0.746849853515625,0.0152502856997773,0.0284086406216025,-0.0035790275305509,-0.0156878679990768,-0.0086524384096264,-0.0092780189588665,standing,2026-03-04_13-56-54
1772632615338798800,0.756798828125,0.0282194747250527,0.0607471680380403,0.0122784668147563,-0.0241984687745571,0.0086864754557609,0.0027098089922219,standing,2026-03-04_13-56-54
1772632615348747800,0.766747802734375,0.0490050000570714,0.0398291754327714,0.0584042581737041,-0.0306614302098751,0.0072126821614801,0.0080896606668829,standing,2026-03-04_13-56-54
1772632615358695700,0.77669580078125,0.0306948518626391,-0.0039252106197178,0.0988514193743467,-0.036680094897747,-0.0096268840134143,0.0061662560328841,standing,2026-03-04_13-56-54
1772632615368644600,0.78664453125,0.0097503000440076,-0.0520022821769118,0.0830804342687129,-0.0319971926510334,-0.0109986783936619,0.0064179245382547,standing,2026-03-04_13-56-54
1772632615378593800,0.79659375,-0.0334813773086294,-0.0533346998244523,0.0172784670591354,-0.0272231735289096,-0.011125580407679,3.21399420499e-05,standing,2026-03-04_13-56-54
1772632615388542700,0.806542724609375,-0.0646967459140345,-0.0587898964904248,-0.0192781164437532,-0.0205777883529663,-0.0150548079982399,-0.0052387882024049,standing,2026-03-04_13-56-54
1772632615398491600,0.81649169921875,-0.042731217017211,-0.0744590286567807,-0.0520370612293481,-0.0077967843972146,-0.0218753032386302,-0.0060479417443275,standing,2026-03-04_13-56-54
1772632615408439600,0.826439453125,-0.0358386444918811,-0.0788002727314829,-0.1239262393981218,0.0130123570561409,-0.0174890775233507,-0.0052609774284064,standing,2026-03-04_13-56-54
1772632615418388500,0.836388427734375,-0.0464437347343191,-0.0322642931364476,-0.1841173809885978,0.0291143171489238,-0.0148478848859667,-0.0042622359469532,standing,2026-03-04_13-56-54
1772632615428338000,0.846337890625,-0.0485665721071884,0.0122504097640514,-0.1812175678938627,0.0395427234470844,-0.0164702832698822,0.0001942976377904,standing,2026-03-04_13-56-54
1772632615438286800,0.856286865234375,-0.004064947883971,0.015042963092029,-0.1237725101411342,0.0378959476947784,-0.0116969645023345,0.0020587490871548,standing,2026-03-04_13-56-54
1772632615448234800,0.86623486328125,-0.033602884796448,-0.0059568625777959,-0.110630119973421,0.0339755080640316,0.0018662482034415,-0.0053485669195652,standing,2026-03-04_13-56-54
1772632615458183700,0.87618359375,-0.0868427094116807,-0.0128448685258626,-0.0787754305511713,0.0258638020604848,0.0180575978010892,-0.0106653440743684,standing,2026-03-04_13-56-54
1772632615468132600,0.886132568359375,-0.0562318095054477,0.0143842069223523,-0.018275076881051,0.0129948742687702,0.0292431414127349,-0.0092400200664997,standing,2026-03-04_13-56-54
1772632615478081800,0.896081787109375,-0.0025006942419335,0.0203268948443233,0.0591214665323495,-0.0013162093237042,0.0337705202400684,-0.0021409993059933,standing,2026-03-04_13-56-54
1772632615488030700,0.90603076171875,0.0378207582198083,0.042665714032948,0.1398404323667287,-0.0091477669775486,0.0247397422790527,0.0005658376030623,standing,2026-03-04_13-56-54
1772632615497978600,0.915978515625,0.0713467783877626,0.0447746690109372,0.1638023227125406,-0.0090153822675347,0.0145207941532135,0.0060001714155077,standing,2026-03-04_13-56-54
1772632615507927600,0.925927490234375,0.0683083970725536,0.0529373710699379,0.1788660363316535,-0.0108521645888686,0.0002313368022441,0.0061024371534585,standing,2026-03-04_13-56-54
1772632615517876700,0.935876708984375,0.0332118761848658,0.0775438429296016,0.1980687494516372,-0.0102300997823476,-0.0198760628700256,0.0045963777229189,standing,2026-03-04_13-56-54
1772632615527825700,0.94582568359375,0.011437230217643,0.0742418787747621,0.1900146223336458,-0.0127904620021581,-0.0384811721742153,-0.0014881463721394,standing,2026-03-04_13-56-54
1772632615537774800,0.95577490234375,0.001862140610069,0.0684901833802461,0.1537783568263054,-0.0164100155234336,-0.033030480146408,0.000922504812479,standing,2026-03-04_13-56-54
1772632615547722800,0.96572265625,-0.0043781420189887,0.0837650555320084,0.0811059193253517,-0.018645741045475,-0.0044678123667836,0.0095873661339282,standing,2026-03-04_13-56-54
1772632615557671700,0.975671630859375,-0.0222765310747548,0.1249682957969605,0.0018745617002248,-0.0195986181497573,0.0143048092722892,0.0160173010081052,standing,2026-03-04_13-56-54
1772632615567620900,0.985620849609375,-0.0148128441305831,0.1237729485325515,0.0235801975518465,-0.0199448280036449,0.0209816209971904,0.0206650495529174,standing,2026-03-04_13-56-54
1772632615577569800,0.99556982421875,0.0055363721434026,0.0770338475808501,0.0727607003062963,-0.0234780460596084,-0.0096021201461553,0.0171371605247259,standing,2026-03-04_13-56-54
1772632615587517400,1.005517333984375,-0.0215980472913011,-0.0044265842705965,0.1232797581881284,-0.0282759964466094,-0.0527850091457366,0.0068248687312006,standing,2026-03-04_13-56-54
1772632615597466600,1.015466552734375,-0.0354631622429937,-0.0495952210351824,0.0845212807267904,-0.0294657573103904,-0.0634423196315765,0.0055553670972585,standing,2026-03-04_13-56-54
1772632615607415600,1.02541552734375,-0.0388088194090873,-0.0276369255967438,-0.0189303259193897,-0.0276822373270988,-0.04425610601902,0.0084824478253722,standing,2026-03-04_13-56-54
1772632615617364700,1.03536474609375,-0.0622227935485541,0.0165068981647491,-0.146205291223526,-0.0216619931161403,-0.0186578035354614,0.0130550116300582,standing,2026-03-04_13-56-54
1772632615627313700,1.045313720703125,-0.0831709620963782,0.018501725243777,-0.2246498823851347,-0.0085541810840368,0.0017657130956649,0.0180566944181919,standing,2026-03-04_13-56-54
1772632615637261600,1.055261474609375,-0.0677240213133394,0.0228461841888725,-0.2661801626473665,0.0121032837778329,0.0259998142719268,0.0285737551748752,standing,2026-03-04_13-56-54
1772632615647210500,1.06521044921875,-0.057896856640838,0.0126420394301414,-0.2181383085340261,0.0290337987244129,0.0304355751723051,0.0302097350358963,standing,2026-03-04_13-56-54
1772632615657159700,1.07515966796875,-0.0783002873200923,-0.0130323539219796,-0.1110959839195013,0.0387116856873035,0.0004232178907841,0.0173320770263671,standing,2026-03-04_13-56-54
1772632615667108600,1.085108642578125,-0.101422731167078,-0.1081610995113849,-0.0531447302103042,0.0494695268571376,-0.0156625416129827,0.0045089563354849,standing,2026-03-04_13-56-54
1772632615677056500,1.095056396484375,-0.0864701132396236,-0.1473511002577841,-0.0531961681365966,0.0543629564344882,-0.0101821571588516,-0.0049428408965468,standing,2026-03-04_13-56-54
1772632615687005400,1.10500537109375,-0.1014914490217342,-0.0985420611642301,-0.022861235627532,0.0437321476638317,-0.0093203578144311,-0.0122849093750119,standing,2026-03-04_13-56-54
1772632615696954600,1.11495458984375,-0.0880168312249705,-0.0529980152159929,0.0982423475652933,0.0199065990746021,-0.0060206996276974,-0.0131356632336974,standing,2026-03-04_13-56-54
1772632615706903800,1.12490380859375,-0.0293690466189756,-0.0474824666649103,0.1617763698428869,-0.0094294529408216,0.005157652311027,-0.0097683621570467,standing,2026-03-04_13-56-54
1772632615716852700,1.134852783203125,-0.0295929915679618,-0.0414588224612176,0.1928752724617719,-0.0356911681592464,0.0146076064556837,-0.009454040788114,standing,2026-03-04_13-56-54
1772632615726800600,1.144800537109375,-0.100467585866712,-0.0176911395132541,0.2281885779052972,-0.053029678761959,-0.001701324712485,-0.0235293805599212,standing,2026-03-04_13-56-54
1772632615736749600,1.15474951171875,-0.1414310625590384,-0.0286544320762157,0.1724269431948661,-0.0515306256711483,-0.0096499267965555,-0.0314857847988605,standing,2026-03-04_13-56-54
1772632615746698500,1.164698486328125,-0.0730117889905348,-0.0275555309236049,0.0029945056408643,-0.0312823466956615,0.0165372025221586,-0.0253005921840667,standing,2026-03-04_13-56-54
1772632615756647700,1.174647705078125,-0.0431465563524514,0.0745646809883415,-0.1471644916445016,-0.0035972949117422,0.0354897268116474,-0.0188525859266519,standing,2026-03-04_13-56-54
1772632615766595600,1.184595703125,-0.0477540501479059,0.1609296898856759,-0.1255564709484577,0.0122612956911325,0.0206697676330804,-0.014273015782237,standing,2026-03-04_13-56-54
1772632615776544500,1.19454443359375,0.0217305876297876,0.1243153848461806,-0.0135065473049879,0.0240664947777986,0.0016478775069117,-0.0031464248895645,standing,2026-03-04_13-56-54
1772632615786493400,1.204493408203125,0.0948691082725301,0.037787732733041,0.0565086536854505,0.0252995379269123,-0.0157588087022304,0.0002704106736928,standing,2026-03-04_13-56-54
1772632615796442600,1.214442626953125,0.0188932087793946,0.0206463360570371,0.0958165817230939,0.0198285058140754,-0.0313432365655899,-0.0146309025585651,standing,2026-03-04_13-56-54
1772632615806391800,1.224391845703125,-0.0853767285123467,-0.0036493162877857,0.1235077217251062,0.0084349708631634,-0.0388357751071453,-0.026833239942789,standing,2026-03-04_13-56-54
1772632615816339700,1.234339599609375,-0.0546716109840199,-0.0033439036004245,0.0972071592986583,-0.0094403978437185,-0.0212807450443506,-0.0203114375472068,standing,2026-03-04_13-56-54
1772632615826288600,1.24428857421875,-0.007805486119166,0.0340549759455025,0.0561667083799839,-0.0211300775408744,-0.002278558909893,-0.011201829649508,standing,2026-03-04_13-56-54
1772632615836237600,1.254237548828125,0.0081549571439623,0.076602324295789,0.0234358206450939,-0.0225091241300106,-0.0019781517330557,-0.0060566999018192,standing,2026-03-04_13-56-54
1772632615846186800,1.264186767578125,0.0285496930601075,0.0882876475229859,-0.0802040020495653,-0.0079032843932509,0.0125006567686796,0.0059443027712404,standing,2026-03-04_13-56-54
1772632615856134700,1.274134765625,0.0384714406808838,0.0941125542841851,-0.1714706653833389,0.0129629522562026,0.0318246781826019,0.0138352904468774,standing,2026-03-04_13-56-54
1772632615866083600,1.28408349609375,-0.0017857509056106,0.0894194280318915,-0.1506464885413646,0.0231825672090053,0.0197933185845613,0.0087204221636056,standing,2026-03-04_13-56-54
1772632615876032500,1.294032470703125,-0.0600137757295742,0.0290678351826965,-0.0224514857828617,0.0244486257433891,-0.0170109048485755,-0.0030801431275904,standing,2026-03-04_13-56-54
1772632615885981400,1.3039814453125,-0.0246326657468453,-0.0516048072919249,0.0237181447178125,0.0294132903218269,-0.0261207800358533,-0.0061297286301851,standing,2026-03-04_13-56-54
1772632615895930600,1.3139306640625,0.0035777488889172,-0.0531337704248726,-0.0949216787099838,0.043446559458971,-0.0030403591226786,-0.0033924332819879,standing,2026-03-04_13-56-54
1772632615905878500,1.32387841796875,-0.0342213820209726,0.0327311799958348,-0.1427151110202074,0.0476026870310306,0.0133700408041477,-0.0059285615570843,standing,2026-03-04_13-56-54
1772632615915827500,1.333827392578125,-0.0568465804029256,0.0523988802790641,-0.0856459008425474,0.0420330688357353,0.0112751955166459,-0.0028468780219554,standing,2026-03-04_13-56-54
1772632615925776600,1.343776611328125,-0.0007719342205673,-0.0193722244679927,-0.0179699564546346,0.0322664603590965,0.0106149977073073,0.0060336990281939,standing,2026-03-04_13-56-54
1772632615935725600,1.3537255859375,0.0211955309050157,-0.0220838215142488,0.0714244832664728,0.019822733476758,0.005409987643361,0.0030354710761457,standing,2026-03-04_13-56-54
1772632615945673700,1.363673828125,-0.0599872530488297,-0.0085315353713929,0.0875537802904844,0.011491565965116,-0.0068757073022425,-0.0123059349134564,standing,2026-03-04_13-56-54
1772632615955622700,1.37362255859375,-0.1469434693049639,-0.0533677253112196,0.0377829104274511,0.0100541422143578,-0.0037760608829557,-0.0233961511403322,standing,2026-03-04_13-56-54
1772632615965571600,1.383571533203125,-0.1057904613899066,-0.0219540576547384,-0.0354296252995729,0.0107676032930612,0.0199745409190654,-0.0201212614774703,standing,2026-03-04_13-56-54
1772632615975520500,1.3935205078125,-0.0431437068082392,0.078370210751146,-0.0534036734074354,0.0101715438067913,0.0374143868684768,-0.0101386122405529,standing,2026-03-04_13-56-54
1772632615985469700,1.4034697265625,-0.0068854851974174,0.127130003875494,-0.0117021282315254,0.0131604094058275,0.0310142803937196,-0.0001536230556666,standing,2026-03-04_13-56-54
1772632615995417600,1.41341748046875,0.0102063001831993,0.1092896651498973,0.0568143586337566,0.0111090205609798,0.0212238319218158,0.0017259796150028,standing,2026-03-04_13-56-54
1772632616005366500,1.423366455078125,-0.0074208341831341,0.0771323395192623,0.1125298161149025,0.0098440190777182,0.0123120946809649,0.0007555237971246,standing,2026-03-04_13-56-54
1772632616015315500,1.4333154296875,-0.0738238725584,0.0587454728268086,0.203373285600543,0.0056970003060996,-0.0071570742875337,-0.0114738382399082,standing,2026-03-04_13-56-54
1772632616025264400,1.443264404296875,-0.108703170498833,0.0341641354084014,0.1981593503445387,0.004421878606081,-0.0129824727773666,-0.0150848180055618,standing,2026-03-04_13-56-54
1772632616035212500,1.453212646484375,-0.0722709805605933,0.0379715648673474,0.1417103178918361,0.0071445782668888,-0.0002573546953499,-0.0130124855786561,standing,2026-03-04_13-56-54
1772632616045161700,1.46316162109375,-0.0540640004796907,0.1087339309632778,0.1339952134698629,0.0019844374619424,0.0033866483718156,-0.0092363897711038,standing,2026-03-04_13-56-54
1772632616055110700,1.473110595703125,-0.0227243844401091,0.1079870581187307,0.153777187782526,-0.0040213321335613,0.0015737006906419,-0.0032111839391291,standing,2026-03-04_13-56-54
1772632616065059600,1.4830595703125,0.014839841735363,0.0417364703588187,0.1393482649356126,-0.006825107615441,0.0034629472065716,-0.0001605327706784,standing,2026-03-04_13-56-54
1772632616075008500,1.493008544921875,0.0163092932334169,-0.0030796997062861,0.099671503585577,-0.009168448857963,-0.0090849362313747,-0.0049357349053025,standing,2026-03-04_13-56-54
1772632616084956700,1.502956787109375,-0.0166491561796516,-0.0144372522838413,0.0929138460189104,-0.0131586631760001,-0.0308717228472232,-0.0141750397160649,standing,2026-03-04_13-56-54
1772632616094905600,1.512905517578125,-0.0123745110677555,-0.0589127922177314,0.1083674357384443,-0.0218285415321588,-0.0499906912446022,-0.0124099534004926,standing,2026-03-04_13-56-54
1772632616104854500,1.5228544921875,0.0145868168223649,-0.0763490801870822,0.0442512296587228,-0.0299053769558668,-0.0557492449879646,-0.0141527261584997,standing,2026-03-04_13-56-54
1772632616114803500,1.532803466796875,-0.0153730352966114,-0.0493947300270199,-0.031479426369071,-0.0324681028723716,-0.0478345938026905,-0.0141245098784565,standing,2026-03-04_13-56-54
1772632616124751600,1.542751708984375,-0.0802930685725063,-0.012285627207905,-0.111588735872507,-0.0336031429469585,-0.0249971877783536,-0.0109806479886174,standing,2026-03-04_13-56-54
1772632616134700500,1.552700439453125,-0.0940999505309388,0.0147831431120634,-0.1969604959487915,-0.0291240736842155,-0.0033938940614461,-0.0032666199840605,standing,2026-03-04_13-56-54
1772632616144649500,1.5626494140625,-0.0943334304932504,0.0226264039583504,-0.2189303356945514,-0.0194056648761034,0.0106130018830299,-0.0032437166664749,standing,2026-03-04_13-56-54
1772632616154598700,1.5725986328125,-0.1021911947889253,0.0069883975826203,-0.2132113735258579,-0.0012478660792112,0.026161603629589,-0.0025160566437989,standing,2026-03-04_13-56-54
1772632616164546800,1.582546875,-0.0867709228171035,0.0054386839225888,-0.2221995666235685,0.015451218932867,0.0403471961617469,-0.0018718380015343,standing,2026-03-04_13-56-54
1772632616174495700,1.592495849609375,-0.0719614762200042,0.0066103580504655,-0.1576204192072153,0.0245814211666584,0.0338211134076118,-0.0025412032846361,standing,2026-03-04_13-56-54
1772632616184444700,1.602444580078125,-0.0406220428435131,0.0092278470724821,-0.0464005166471004,0.0288635157048702,0.0220214463770389,-0.0046472307294607,standing,2026-03-04_13-56-54
1772632616194393600,1.6123935546875,-0.0221937116295099,-0.017253040356934,0.0386959336191415,0.028155256062746,0.0069385087117552,-0.0096306353807449,standing,2026-03-04_13-56-54
1772632616204342500,1.622342529296875,-0.0291393295163288,-0.0544878153823316,0.1254845747560262,0.0179356429725885,-0.0118423691019415,-0.0230526998639106,standing,2026-03-04_13-56-54
1772632616214290700,1.632290771484375,-0.0447232310846447,-0.0490247276708483,0.1870885057538747,0.0034909483511,-0.0281985718756914,-0.0289136301726102,standing,2026-03-04_13-56-54
1772632616224239600,1.642239501953125,-0.0048697249282151,-0.0072075932912528,0.1918564508080482,-0.0134273143485188,-0.0340226367115974,-0.0287051051855087,standing,2026-03-04_13-56-54
1772632616234188500,1.6521884765625,0.013884696434997,0.0269010125376284,0.132394792535901,-0.0180674511939287,-0.0167577695101499,-0.0232396833598613,standing,2026-03-04_13-56-54
1772632616244137500,1.662137451171875,0.0358726563593372,0.0805479931816458,-0.024485621958971,-0.014209596440196,0.0168569143861532,-0.0115524008870124,standing,2026-03-04_13-56-54
1772632616254085600,1.672085693359375,0.0270484947169199,0.1384348033525049,-0.1428980663716793,-0.0033113583922386,0.0483258925378322,-0.0026954840868711,standing,2026-03-04_13-56-54
1772632616264034600,1.68203466796875,0.0252785259023308,0.1565561509765684,-0.1514636501431465,0.0053385887295007,0.0617652647197246,0.0065755126997828,standing,2026-03-04_13-56-54
1772632616273983700,1.691983642578125,0.0527323865497484,0.1196535305149853,-0.0839782598912715,0.0118818096816539,0.0497445613145828,0.0106097534298896,standing,2026-03-04_13-56-54
1772632616283932700,1.7019326171875,0.0276543151229619,0.0682654347136616,0.0373223071783781,0.0098125329241156,0.018467329442501,0.0039939284324646,standing,2026-03-04_13-56-54
1772632616293881600,1.711881591796875,0.0163165632244199,-0.0039569209322333,0.1364092888742685,0.0047988765873014,-0.0160612240433692,-0.0026110203471034,standing,2026-03-04_13-56-54
1772632616303829800,1.721829833984375,0.0232614504588767,-0.0401924557872116,0.1498416018992662,0.0013117333874106,-0.0346833765506744,-0.000737486523576,standing,2026-03-04_13-56-54
1772632616313778700,1.73177880859375,0.0207146520528942,-0.037805414520204,0.1012239937245845,0.0018033348023891,-0.0309839788824319,-0.0017447499558329,standing,2026-03-04_13-56-54
1772632616323727600,1.7417275390625,-0.010491766061075,-0.0060636839531362,-0.0112654903799295,0.0129726324230432,-0.0141235049813985,0.0010126871056854,standing,2026-03-04_13-56-54
1772632616333676500,1.751676513671875,-0.0228754102833569,0.024120003516972,-0.1133808799862861,0.0243317056447267,0.0081534422934055,0.0058060698211193,standing,2026-03-04_13-56-54
1772632616343624700,1.761624755859375,-0.0275967762494459,0.0192879071854054,-0.176845344159007,0.0334871187806129,0.0214721765369176,0.0110453069210052,standing,2026-03-04_13-56-54
1772632616353573600,1.77157373046875,-0.0466862382533028,0.0066312547080218,-0.146960493505001,0.0418461598455905,0.0164498575031757,0.0082276966422796,standing,2026-03-04_13-56-54
1772632616363522600,1.7815224609375,-0.0490272118888795,-0.0400616690143942,-0.0616834259748458,0.0399665012955665,0.000134267611429,0.0044007343240082,standing,2026-03-04_13-56-54
1772632616373471500,1.791471435546875,-0.039534466802515,-0.0889241918608546,0.0026186580657958,0.0341269262135028,-0.0042643467895686,0.0052879583090543,standing,2026-03-04_13-56-54
1772632616383420700,1.801420654296875,-0.0407264530660584,-0.0800476424440741,0.0078431147158145,0.0288240425288677,0.0116839930415153,0.0038655640091747,standing,2026-03-04_13-56-54
1772632616393368800,1.811368896484375,-0.0778160839997231,-0.0588835661232471,0.0156470664650201,0.0195594355463981,0.0180340334773063,0.0034469154197722,standing,2026-03-04_13-56-54
1772632616403317800,1.82131787109375,-0.0880776945667341,-0.0361447878316044,0.0508960745006799,0.0179056134074926,0.0176398865878582,0.0013869602698832,standing,2026-03-04_13-56-54
1772632616413266700,1.8312666015625,-0.0614488135013729,-0.0519070051088929,0.0452817417502403,0.0208591185510158,0.0168772861361503,0.0021158666349947,standing,2026-03-04_13-56-54
1772632616423215600,1.841215576171875,-0.0793282786609605,-0.0678945555746555,0.0072644380450248,0.0316603668034076,0.0175223052501678,-0.0064208963885903,standing,2026-03-04_13-56-54
1772632616433163500,1.85116357421875,-0.1108953467808663,-0.0291873699091374,0.025287585991621,0.0324062071740627,0.0150717999786138,-0.0117280855774879,standing,2026-03-04_13-56-54
1772632616443112700,1.86111279296875,-0.1062023666590452,-0.0074167059972882,0.0791290662944316,0.0263810716569423,0.0051608458161354,-0.0188951827585697,standing,2026-03-04_13-56-54
1772632616453061600,1.8710615234375,-0.083083210747689,-0.0204281632617115,0.1334124451458454,0.0168951768428087,-0.0032251847442239,-0.0226845405995845,standing,2026-03-04_13-56-54
1772632616463010600,1.881010498046875,-0.0610759616009891,0.0149355571947991,0.149161218419671,0.0031580589711666,-0.0096431365236639,-0.0235071908682584,standing,2026-03-04_13-56-54
1772632616472959500,1.89095947265625,-0.0490923495469614,0.0504977228328585,0.1266150400906801,-0.0064964387565851,-0.0009637551847845,-0.020703637972474,standing,2026-03-04_13-56-54
1772632616482907600,1.90090771484375,-0.0064736529935151,0.1055351349219679,0.076136898741126,-0.0100754601880908,0.0107347127050161,-0.0094994530081748,standing,2026-03-04_13-56-54
1772632616492856600,1.910856689453125,0.0180377975264564,0.121241091967374,0.0351654214054346,-0.0044409716501832,0.0171993989497423,-0.0041082063689827,standing,2026-03-04_13-56-54
1772632616502805800,1.9208056640625,-0.0082617785193026,0.1092760750159621,-0.0168657946050167,0.0043575800955295,0.0182143300771713,-0.0082238558679819,standing,2026-03-04_13-56-54
1772632616512754700,1.930754638671875,-0.0546281371684744,0.123550976344943,-0.0449380428791046,0.016401344910264,0.013070436194539,-0.0163405109196901,standing,2026-03-04_13-56-54
1772632616522702600,1.94070263671875,-0.0492041028257459,0.1046194813817739,-0.0097989249587059,0.0209657363593578,0.0086434641852974,-0.0150222461670637,standing,2026-03-04_13-56-54
1772632616532651800,1.95065185546875,-0.0161196889454498,0.1008078141391277,0.0195014038056135,0.0161652229726314,0.013241147622466,-0.0117406155914068,standing,2026-03-04_13-56-54
1772632616542600700,1.9606005859375,-0.0013768413111567,0.1272726272165775,0.0360959802538156,0.0133286919444799,0.018004210665822,-0.0062177516520023,standing,2026-03-04_13-56-54
1772632616552549600,1.970549560546875,-0.0101000998623669,0.1311066524215042,0.0819289261460304,0.0071763610467314,0.0269975680857896,-0.0004011006094515,standing,2026-03-04_13-56-54
1772632616562498600,1.98049853515625,0.0255152207350358,0.1024189025975763,0.1252577802628278,0.0009272536262869,0.0289693735539913,0.0091324830427765,standing,2026-03-04_13-56-54
1772632616572446500,1.990446533203125,0.048832602632232,0.0664554626822471,0.1390419754654169,-0.0019707730971276,0.020293191075325,0.008750207722187,standing,2026-03-04_13-56-54
1772632616582396200,2.000396240234375,0.0260090686665847,0.0421478276386857,0.1811380729168653,-0.0098449401557445,-0.0026779035106301,0.0059829172678291,standing,2026-03-04_13-56-54
1772632616592345300,2.010345458984375,0.0160769823148846,-0.0122445645451545,0.2352168691068887,-0.0207064040005207,-0.0385755822062492,-0.0045356582850217,standing,2026-03-04_13-56-54
1772632616602294300,2.020294189453125,0.0069874477345496,-0.0677690294988453,0.2197615258216858,-0.0319119170308113,-0.0629989057779312,-0.0135414041578769,standing,2026-03-04_13-56-54
1772632616612242200,2.0302421875,-0.0713785982981324,-0.0858159967124462,0.1286678809672594,-0.0427132211625576,-0.0655245035886764,-0.0262891557067632,standing,2026-03-04_13-56-54
1772632616622191000,2.040191162109375,-0.121184576007165,-0.0617789953038096,0.0104155955523252,-0.0474397987127304,-0.0515764616429805,-0.0309949610382318,standing,2026-03-04_13-56-54
1772632616632140000,2.05014013671875,-0.0865107009783387,0.0101204119980335,-0.1294663378685712,-0.0458018667995929,-0.0283679496496915,-0.0203631035983562,standing,2026-03-04_13-56-54
1772632616642089200,2.060089111328125,-0.0305453969219699,0.0712437198720872,-0.3124976771861315,-0.0272577460855245,0.0115552311763167,-0.0031668066512793,standing,2026-03-04_13-56-54
1772632616652038100,2.0700380859375,-0.0328613091815263,0.1271180211767554,-0.4112526504486799,0.0014884420670568,0.0482840873301029,0.0081033129245042,standing,2026-03-04_13-56-54
1772632616661986000,2.079986083984375,-0.0766166816147044,0.1396191908314824,-0.4186754939258098,0.0294313933700323,0.0567513406276702,0.0114554334431886,standing,2026-03-04_13-56-54
1772632616671935000,2.08993505859375,-0.1077012634472921,0.07492182386294,-0.3360936568289995,0.0571245402097702,0.0418094098567962,0.0083611067384481,standing,2026-03-04_13-56-54
1772632616681884400,2.099884521484375,-0.1223930384814739,-0.0110607615880668,-0.2176917338103055,0.0749778449535369,0.0249912776052951,-0.0064391447231173,standing,2026-03-04_13-56-54
1772632616691833300,2.109833251953125,-0.1273832479842007,-0.0660560881011187,-0.0854687907099723,0.0817578807473182,0.0119606954976916,-0.0152135463431477,standing,2026-03-04_13-56-54
1772632616701781200,2.11978125,-0.1086060667999088,-0.0542513762779533,0.0635007045298814,0.0672713443636894,-0.000904768705368,-0.0216416176408529,standing,2026-03-04_13-56-54
1772632616711730200,2.129730224609375,-0.0873320272985845,-0.0653116994746029,0.2223036115199327,0.0376357324421405,-0.016134051606059,-0.0218674670904874,standing,2026-03-04_13-56-54
1772632616721679000,2.13967919921875,-0.045233810955286,-0.0809042592734098,0.3174526692450046,0.0035568561870604,-0.0202606189996004,-0.0226997043937444,standing,2026-03-04_13-56-54
1772632616731628300,2.149628173828125,-0.0324933891845867,-0.0843497235521674,0.3258925808101892,-0.0177352298051118,-0.0116496924310922,-0.0273271314799785,standing,2026-03-04_13-56-54
1772632616741576200,2.159576171875,-0.0628938977431505,-0.0461352898396551,0.2585270175457,-0.0307764634490013,-0.0067220451310276,-0.0334606580436229,standing,2026-03-04_13-56-54
1772632616751525000,2.169525146484375,-0.1169580078206956,-0.0255976748540997,0.1782289074718952,-0.0334365181624889,-0.0055232215672731,-0.0417236313223838,standing,2026-03-04_13-56-54
1772632616761474000,2.17947412109375,-0.1268748966032639,-0.0512131776258349,0.1143634612828493,-0.0275171101093292,-0.0126817980781197,-0.0512979626655578,standing,2026-03-04_13-56-54
1772632616771423000,2.189423095703125,-0.0837522691156715,-0.0339810339264571,0.0501017092525959,-0.0140335615724325,-0.0116647407412529,-0.0513288415968418,standing,2026-03-04_13-56-54
1772632616781372400,2.199372314453125,-0.0261985998893156,0.018880203167349,-0.0196276605337858,0.0018665757961571,-0.0099741658195853,-0.0433215163648128,standing,2026-03-04_13-56-54
1772632616791320000,2.209320068359375,0.0218625434463843,0.052447687856853,-0.0798363377809524,0.0134493615478277,-0.00876668933779,-0.0397694781422615,standing,2026-03-04_13-56-54
1772632616801269200,2.219269287109375,0.0351034255525097,0.0772965901702642,-0.0683247636854648,0.0182204153388738,-0.0167399272322654,-0.0334005281329155,standing,2026-03-04_13-56-54
1772632616811218200,2.22921826171875,0.0676836893029511,0.0781564218699932,-0.0356605114459991,0.0123358946293592,-0.0215203016996383,-0.028324007987976,standing,2026-03-04_13-56-54
1772632616821167000,2.2391669921875,0.0853065493529662,0.0746107120871543,0.0012789338946342,0.008758339099586,-0.0153715908527374,-0.0229653920978307,standing,2026-03-04_13-56-54
1772632616831115300,2.249115234375,0.0453428242877125,0.0692956545442342,-0.0484387444764375,0.0016619288362562,0.001163974404335,-0.0243871137499809,standing,2026-03-04_13-56-54
1772632616841064200,2.259064208984375,0.0130508759593591,0.0605918313458561,-0.0871025293916463,-0.0012939134612679,0.0145940296351909,-0.0275394972413778,standing,2026-03-04_13-56-54
1772632616851013000,2.26901318359375,0.0033753581846132,0.0605187661096453,-0.0602051701158285,-0.0077245738357305,0.0171595867723226,-0.0250116940587759,standing,2026-03-04_13-56-54
1772632616860962000,2.278962158203125,0.0263364739900454,0.0404334249362349,-0.0154483290225267,-0.0086976923048496,0.0204400680959224,-0.017936473712325,standing,2026-03-04_13-56-54
1772632616870911200,2.2889111328125,0.0566683012265712,0.0474582090064883,-0.0151893858253955,-0.0004636901430785,0.0145556787028908,-0.0104035139083862,standing,2026-03-04_13-56-54
1772632616880859100,2.298859130859375,0.0507069086041301,0.0496636100962758,-0.0260591548860073,0.0129514504224061,-0.0052803447470068,-0.0105119030922651,standing,2026-03-04_13-56-54
1772632616890808000,2.30880810546875,0.0541195300592109,0.0302180281311273,-0.0398690690517425,0.0243721511214971,-0.0143811646848917,-0.0054228696972131,standing,2026-03-04_13-56-54
1772632616900757200,2.31875732421875,0.0692134561534971,0.0334985111065208,-0.080499185603857,0.0356154851615428,-0.0003180764615535,0.0025362535379827,standing,2026-03-04_13-56-54
1772632616910706200,2.3287060546875,0.0388757106328383,0.0412057244829833,-0.0941091932833194,0.0417286045849323,0.0134685765951871,-0.0002386756241321,standing,2026-03-04_13-56-54
1772632616920654300,2.338654296875,-0.0193810653615742,0.0316990604691207,-0.0372416431576013,0.0358177199959754,0.0083228172734379,-0.0090910233557224,standing,2026-03-04_13-56-54
1772632616930603300,2.348603271484375,-0.0390801836963742,-0.0213354873649775,0.0675251377403736,0.0225766971707344,0.0018848911859095,-0.013262640684843,standing,2026-03-04_13-56-54
1772632616940552200,2.35855224609375,-0.0054577904818579,-0.0426366340689361,0.0905804346352815,0.0131842605769634,0.0115899834781885,-0.0098175760358572,standing,2026-03-04_13-56-54
1772632616950501000,2.368501220703125,-0.0319943170886486,-0.0073664371147751,0.093811671641469,0.0039280876517295,0.0147126754745841,-0.0106958709657192,standing,2026-03-04_13-56-54
1772632616960450000,2.378449951171875,-0.071819656596519,0.0331323081426322,0.121495797380805,-0.00468803755939,-0.0112424930557608,-0.0161052849143743,standing,2026-03-04_13-56-54
1772632616970398200,2.388398193359375,-0.0474203977467492,0.0240542448043823,0.1082528694480657,-0.0109910797327756,-0.0143819600343704,-0.0132778342813253,standing,2026-03-04_13-56-54
1772632616980347100,2.39834716796875,0.0045259895244613,0.0373608856230974,0.0308919818699359,-0.0059284106828272,0.0155218774452805,-0.0054582604207098,standing,2026-03-04_13-56-54
1772632616990296000,2.408296142578125,-0.0551189528927206,0.0830238817758858,-0.0485872130364179,0.0069903680123388,0.0406360179185867,-0.0057402467355132,standing,2026-03-04_13-56-54
1772632617000245000,2.418244873046875,-0.1054278751552104,0.1101467203706502,-0.0154056589245796,0.015200893394649,0.0191469732671976,-0.0112857464700937,standing,2026-03-04_13-56-54
1772632617010193200,2.428193115234375,-0.0808900846175849,0.0567298952206969,0.0360924731224775,0.020053643733263,-0.0090283434838056,-0.0138505119830369,standing,2026-03-04_13-56-54
1772632617020142300,2.438142333984375,-0.007085318618454,0.0178213417641818,0.0518242952615022,0.0248036570847034,-0.0095692314207553,-0.0095979766920208,standing,2026-03-04_13-56-54
1772632617030091300,2.44809130859375,0.0060537470810115,0.0619319939084351,0.0351736047118902,0.0228501129895448,0.001710855634883,-0.0026848169509321,standing,2026-03-04_13-56-54
1772632617040040200,2.458040283203125,-0.0206207997569814,0.0786703627415001,0.08972527911067,0.0065995045006275,-0.0049808691255748,-0.0055948533117771,standing,2026-03-04_13-56-54
1772632617049989000,2.467989013671875,-0.013502090325579,0.0384065952837467,0.1486123523652553,-0.0112319709733128,-0.0007073003798723,0.0015736469067633,standing,2026-03-04_13-56-54
1772632617059937300,2.477937255859375,0.0535279939068481,0.0056342064946889,0.1246913785517215,-0.018667783588171,0.0240217484533786,0.012838551774621,standing,2026-03-04_13-56-54
1772632617069886200,2.48788623046875,0.01219586656522,0.0297660465799272,0.074648706009984,-0.0173270013183355,0.0353388525545597,0.008780020289123,standing,2026-03-04_13-56-54
1772632617079835100,2.497835205078125,-0.0597918400745838,0.0299627381958067,0.064133741736412,-0.0131114833056926,0.0095480009913444,-0.0020190973300486,standing,2026-03-04_13-56-54
1772632617089784000,2.5077841796875,-0.0285929476799443,-0.0437760133624076,0.0887105491101741,-0.007041239645332,-0.018222376704216,-0.0031527210958302,standing,2026-03-04_13-56-54
1772632617099732200,2.517732177734375,0.0317173267781734,-0.06399301809147,0.0507686487287282,-0.0004797438159584,-0.0405276827514171,-0.0043612634763121,standing,2026-03-04_13-56-54
1772632617109681200,2.52768115234375,0.0103442108165472,-0.0301921630375087,0.0412163920074701,-0.0010310090146958,-0.0607603788375854,-0.0101559367030859,standing,2026-03-04_13-56-54
1772632617119630000,2.537630126953125,-0.0096236779896542,-0.0073228902339935,-0.0060603229522705,-0.0080172792077064,-0.0609670430421829,-0.0136388186365365,standing,2026-03-04_13-56-54
1772632617129579300,2.547579345703125,-0.0008477759357541,-0.0137102531835436,-0.0660433747500181,-0.0133458971977233,-0.0413195677101612,-0.0095268134027719,standing,2026-03-04_13-56-54
1772632617139528200,2.557528076171875,-0.0167713943198323,0.036382395979762,-0.1787023702025413,-0.0092086773365736,-0.0079352464526891,-0.0018835413502529,standing,2026-03-04_13-56-54
1772632617149476400,2.567476318359375,-0.0437612907173112,0.0986244787506759,-0.2898860324054956,0.0055141663178801,0.0246249586343765,0.0100253010168671,standing,2026-03-04_13-56-54
1772632617159425300,2.57742529296875,-0.0308249445157125,0.1214446517154574,-0.3136433400899172,0.0191753841936588,0.0566710419952869,0.0234553553164005,standing,2026-03-04_13-56-54
1772632617169374200,2.587374267578125,-0.0083956340320408,0.118459498424828,-0.2599438986063003,0.0354978218674659,0.0635088458657264,0.0330923423171043,standing,2026-03-04_13-56-54
1772632617179323100,2.5973232421875,-0.0463530973087996,0.0844128519162535,-0.1131733747154474,0.0434979572892189,0.0418866351246833,0.0279764086008071,standing,2026-03-04_13-56-54
1772632617189271300,2.607271240234375,-0.0985209453109651,0.0127339554972946,0.0700987876206636,0.0416556000709533,0.0074804564937949,0.0114960242062807,standing,2026-03-04_13-56-54
1772632617199220200,2.61722021484375,-0.0872246944665908,-0.0620744711190462,0.1838894174516201,0.0311688724905252,-0.0052800802513957,0.0032697860151529,standing,2026-03-04_13-56-54
1772632617209169200,2.627169189453125,-0.065254197133705,-0.0774298611611127,0.2191565456658601,0.019953217357397,-0.0023218381684273,-0.0041559617966413,standing,2026-03-04_13-56-54
1772632617219118000,2.6371181640625,-0.0731720210535451,-0.0432956824995577,0.2258878997474908,0.0046949023380875,-0.0053764837794005,-0.0067719845101237,standing,2026-03-04_13-56-54
1772632617229067000,2.64706689453125,-0.0352550359176471,-0.0447235233455896,0.2661947756946087,-0.0146075002849102,-0.0180901419371366,-0.0021371715702116,standing,2026-03-04_13-56-54
1772632617239015200,2.65701513671875,0.0140033543786033,-0.0477950397454202,0.2170949369609355,-0.0209151972085237,-0.0184299610555171,0.0014927168376743,standing,2026-03-04_13-56-54
1772632617248964400,2.66696435546875,-0.0185725254576653,-0.0279796015545725,0.1015063177973032,-0.0134902521967887,-0.0137317525222897,-0.0076347365975379,standing,2026-03-04_13-56-54
1772632617258913300,2.676913330078125,-0.1080649456605315,-0.01699935785681,-0.0018289689928293,-0.0016961763612926,-0.011787112802267,-0.0202219020575284,standing,2026-03-04_13-56-54
1772632617268862200,2.6868623046875,-0.1195473301941528,-0.0554639669381082,-0.0684089348375797,0.0073366085998713,-0.0014539158437401,-0.0257958695292472,standing,2026-03-04_13-56-54
1772632617278810400,2.696810302734375,-0.0708541360326111,-0.0328919235154986,-0.1177057574480772,0.0133124757558107,0.0149775221943855,-0.0183664485812187,standing,2026-03-04_13-56-54
1772632617288759300,2.70675927734375,-0.0060689811827614,0.0279717105090618,-0.0941284825056791,0.0161445308476686,0.0204362031072378,-0.0078639648854732,standing,2026-03-04_13-56-54
1772632617298708200,2.716708251953125,0.0585673763135448,0.0574811519794166,-0.0358183323562145,0.0166830215603113,0.009308717213571,0.003694420447573,standing,2026-03-04_13-56-54
1772632617308657200,2.7266572265625,0.1065912198461592,0.0487562859930098,-0.0040308629512786,0.0151054412126541,-0.008457095362246,0.0119522800669074,standing,2026-03-04_13-56-54
1772632617318606000,2.736606201171875,0.0744922002740204,0.0288522927358746,-0.0069189856082201,0.0193928629159927,-0.0138183059170842,0.0097122956067323,standing,2026-03-04_13-56-54
1772632617328554200,2.74655419921875,0.0098117113750427,0.034947248610109,-0.023870120409131,0.0170608945190906,-0.01677081361413,0.0030748585704714,standing,2026-03-04_13-56-54
1772632617338503200,2.756503173828125,-0.047512861803174,0.0261406956896185,-0.0051011225312948,0.0070892213843762,-0.0145537313073873,-0.0037851780652999,standing,2026-03-04_13-56-54
1772632617348452000,2.7664521484375,-0.0352086029600352,0.0081309917464852,0.0064630585342645,-0.0047335620038211,-0.0016612419858574,-0.0024365547578781,standing,2026-03-04_13-56-54
1772632617358401300,2.7764013671875,-0.0134418480383232,0.0192518129587173,-0.0324000483453273,-0.0063192076049745,0.0177372228354215,0.0028514177538454,standing,2026-03-04_13-56-54
1772632617368349400,2.786349365234375,-0.0104158147480338,0.0773199710458517,-0.0881663592308759,0.0007809801027178,0.0353606939315795,0.0142856016755104,standing,2026-03-04_13-56-54
1772632617378298400,2.79629833984375,0.0242320855893194,0.1250156420700252,-0.1051291844695806,0.0121343024075031,0.047251172363758,0.0263976585119962,standing,2026-03-04_13-56-54
1772632617388247300,2.806247314453125,0.0512193516382947,0.1055386420533061,-0.0716939478576183,0.0248133055865764,0.0369842946529388,0.0324023440480232,standing,2026-03-04_13-56-54
1772632617398196200,2.8161962890625,0.0153415807124227,0.078747958022356,0.0221592248380184,0.0349546261131763,0.007940923795104,0.026060827076435,standing,2026-03-04_13-56-54
1772632617408145200,2.826145263671875,-0.0011931918399408,0.0176068222306668,0.0790975021123886,0.0391480140388011,-0.0182031951844692,0.0243229586631059,standing,2026-03-04_13-56-54
1772632617418093300,2.83609326171875,0.0260442495778203,-0.0010479016177356,0.1317944885551929,0.0366707406938076,-0.0247356630861759,0.0249445401132106,standing,2026-03-04_13-56-54
1772632617428042200,2.846042236328125,0.0041833500992506,0.0350992243014276,0.1486620367258787,0.0279598962515592,-0.0197482295334339,0.0228395629674196,standing,2026-03-04_13-56-54
1772632617437991200,2.8559912109375,-0.0182794242626056,0.0475515863783657,0.1577484295010566,0.0141242416575551,-0.02022360637784,0.0221916157752275,standing,2026-03-04_13-56-54
1772632617447940000,2.865940185546875,-0.0174565270397812,0.025702450402826,0.1829571050375699,-0.0029269373044371,-0.0261552557349205,0.0212487466633319,standing,2026-03-04_13-56-54
1772632617457888000,2.875887939453125,-0.0065557417863979,0.0247790519475936,0.1773018557548522,-0.0184699445962905,-0.0229179169982671,0.0192617624998092,standing,2026-03-04_13-56-54
1772632617467837200,2.885837158203125,-0.0397394147900864,0.0180341077320277,0.0925952815890312,-0.0235557183623313,-0.0098310206085443,0.0189672708511352,standing,2026-03-04_13-56-54
1772632617477786400,2.895786376953125,-0.0693422701649367,0.0395617566682398,-0.0179722945421934,-0.016991026699543,0.0102071352303028,0.0181936211884021,standing,2026-03-04_13-56-54
1772632617487735300,2.9057353515625,-0.0627446254655718,0.0669376932412385,-0.1034744029998779,-0.0080543560907244,0.0180213805288076,0.0203272625803947,standing,2026-03-04_13-56-54
1772632617497684200,2.915684326171875,-0.0392942283058539,0.082784812323004,-0.1087304238319396,-0.0020792875438928,0.0098209762945771,0.0228625927120447,standing,2026-03-04_13-56-54
1772632617507632000,2.925632080078125,-0.0025052242865785,0.0844721808880567,-0.0554851558566093,-0.001458803191781,0.0052595199085772,0.034527126699686,standing,2026-03-04_13-56-54
1772632617517581300,2.935581298828125,0.0428681778024882,0.0724405284412205,-0.0150993694543838,-0.0002989964559674,-0.0006721389945596,0.0388552956283092,standing,2026-03-04_13-56-54
1772632617527530200,2.9455302734375,0.0228670077811926,0.0690503014810383,0.0156079034984111,-0.0036898185499012,0.0017635838594287,0.0398305170238018,standing,2026-03-04_13-56-54
1772632617537479200,2.955479248046875,-0.0086341920282691,0.0493082207873463,0.0487356815963983,-0.0062057063914835,0.0066406307741999,0.041128009557724,standing,2026-03-04_13-56-54
1772632617547427000,2.965427001953125,-0.0246744225293397,0.0282277310967445,0.0292974061548709,-0.0038638394325971,0.0156628899276256,0.0408975072205066,standing,2026-03-04_13-56-54
1772632617557376300,2.975376220703125,-0.063990606938675,0.0325765739560127,0.0212707515656948,0.0042167240753769,0.0192983709275722,0.031073635444045,standing,2026-03-04_13-56-54
1772632617567325200,2.9853251953125,-0.0866523744713515,0.0076285951822996,0.0519563972085714,0.0082153351977467,0.0039869239553809,0.0250229630619287,standing,2026-03-04_13-56-54
1772632617577273900,2.99527392578125,-0.070950107220374,-0.0191672034151852,0.0969201590508222,0.0066331508569419,-0.0075083444826304,0.0251260269433259,standing,2026-03-04_13-56-54
1772632617587223000,3.00522314453125,-0.041286023177579,-0.0309912044607102,0.1280693305522203,0.0026463335379958,-0.0155478920787572,0.0239703841507434,standing,2026-03-04_13-56-54
1772632617597171000,3.0151708984375,-0.0539751531524583,-0.0355643575951457,0.1176689325690269,0.0022188960574567,-0.0242324601858854,0.0171708017587661,standing,2026-03-04_13-56-54
1772632617607120100,3.0251201171875,-0.0700713881570845,-0.0541612137764692,0.0945177740842103,-0.0039816908538341,-0.03438176587224,0.0152419162914156,standing,2026-03-04_13-56-54
1772632617617069000,3.035069091796875,-0.0418029597237706,-0.070810443021357,0.0781143362939357,-0.0134545546025037,-0.0416135787963867,0.0146333845332264,standing,2026-03-04_13-56-54
1772632617627018000,3.04501806640625,-0.0407511125832796,-0.0762049955412745,0.051554246148467,-0.0216302685439586,-0.0459786355495452,0.0117252804338932,standing,2026-03-04_13-56-54
1772632617636966000,3.0549658203125,-0.1057064729008823,-0.0518961914539337,0.0065536594271659,-0.0293840616941452,-0.0378013998270034,0.004309975542128,standing,2026-03-04_13-56-54
1772632617646915000,3.0649150390625,-0.1301460272284224,-0.057864598339051,-0.0782896928608417,-0.0299658626317977,-0.0165344607084989,0.0049974219873547,standing,2026-03-04_13-56-54
1772632617656864000,3.074864013671875,-0.133503119103983,-0.0470958054348826,-0.1781336304038762,-0.0225343126803636,0.0122724212706089,0.0069958576932549,standing,2026-03-04_13-56-54
1772632617666813000,3.08481298828125,-0.1169135841570794,-0.0019967267751693,-0.2545440853893757,-0.0068327812477946,0.039986602962017,0.0125782079994678,standing,2026-03-04_13-56-54
1772632617676761900,3.094761962890625,-0.0887880713257938,0.0403945542305707,-0.2446709261506795,0.0109605966135859,0.0498541481792926,0.0190243907272815,standing,2026-03-04_13-56-54
1772632617686709800,3.104709716796875,-0.0701345895864069,0.0411195075042545,-0.1464455297201871,0.0278887134045362,0.0302056148648262,0.0178675130009651,standing,2026-03-04_13-56-54
1772632617696659000,3.114658935546875,-0.066633559195511,-0.0247230839766561,-0.0551964020431041,0.0435880497097969,0.0004775442648679,0.0088777448982,standing,2026-03-04_13-56-54
1772632617706608000,3.124608154296875,-0.0604702507928013,-0.0755630443759262,0.0036959319084882,0.0503797829151153,-0.014675710350275,0.0053208549506962,standing,2026-03-04_13-56-54
1772632617716557000,3.13455712890625,-0.044238808568567,-0.0678968936622142,0.0420773927509784,0.0485738925635814,-0.0140413455665111,0.0017263866029679,standing,2026-03-04_13-56-54
1772632617726505000,3.1445048828125,-0.0403662049189209,-0.025129911211878,0.1292091482371092,0.0332098938524723,-0.0147461527958512,-0.0015442980220541,standing,2026-03-04_13-56-54
1772632617736454000,3.154453857421875,-0.0268716037800535,-0.0167838154099881,0.2030629044771194,0.011702736839652,-0.0269751213490962,-0.0024955791886895,standing,2026-03-04_13-56-54
1772632617746403000,3.164403076171875,-0.0131226260213181,-0.0369179641611874,0.2442711131781339,-0.0107459537684917,-0.0398420467972755,-0.0064461533911526,standing,2026-03-04_13-56-54
1772632617756352000,3.17435205078125,-0.0360681058662012,0.0094609251759946,0.2133627646952867,-0.0218207091093063,-0.0395139455795288,-0.0079929176717996,standing,2026-03-04_13-56-54
1772632617766301000,3.184301025390625,-0.0408719624839723,0.0290052913405001,0.0894049611151218,-0.0230357702821493,-0.026400675997138,-0.0081228520721197,standing,2026-03-04_13-56-54
1772632617776248800,3.194248779296875,-0.02885276765991,0.0714629155807197,-0.0322960034489631,-0.0196607448160648,0.0020437489729374,-0.0029198341071605,standing,2026-03-04_13-56-54
1772632617786198000,3.204197998046875,-0.0103685050075873,0.1248226037159562,-0.1048708257943391,-0.0133914127945899,0.0305145401507616,0.0032956621143966,standing,2026-03-04_13-56-54
1772632617796147000,3.21414697265625,0.010100501721166,0.1152161325894296,-0.1190203471779823,-0.002807477954775,0.0402896739542484,0.0092595443129539,standing,2026-03-04_13-56-54
1772632617806096000,3.224095947265625,0.0094427319321781,0.0923171953000128,-0.0753653298467397,0.000997313298285,0.0244830083101987,0.0058909389190375,standing,2026-03-04_13-56-54
1772632617816043800,3.234043701171875,0.0407485918326303,0.0629141368135809,0.0449836355865001,0.0049345307052135,-0.0041409134864807,0.0099450685083866,standing,2026-03-04_13-56-54
1772632617825993000,3.243992919921875,0.0949736646255478,0.0542180585302412,0.1265150868475437,0.0074820010922849,-0.0233320482075214,0.0159635059535503,standing,2026-03-04_13-56-54
1772632617835942100,3.253942138671875,0.0869771494463086,0.0565427020855247,0.118189157050848,0.005965064279735,-0.0312373749911785,0.0176751185208559,standing,2026-03-04_13-56-54
1772632617845891000,3.26389111328125,0.0273609947321936,0.059421764653176,0.098097386136651,0.0070703895762562,-0.0351326428353786,0.0127745540812611,standing,2026-03-04_13-56-54
1772632617855840000,3.273840087890625,-0.0129652069699019,0.0605178893268108,0.0786456666916608,-0.0010288157500326,-0.0315371081233024,0.011347365565598,standing,2026-03-04_13-56-54
1772632617865788000,3.283787841796875,-0.0202251880355179,0.0467198117293417,0.054653965729475,-0.0101666804403066,-0.0175876040011644,0.0180543828755617,standing,2026-03-04_13-56-54
1772632617875736800,3.29373681640625,0.0086950553700327,0.0748075498335063,0.0401350265115499,-0.0178230013698339,-0.0049064303748309,0.0253170896321535,standing,2026-03-04_13-56-54
1772632617885686000,3.30368603515625,-0.014915756515786,0.0752767747804522,0.0147217683136463,-0.0221293549984693,0.0018342898692935,0.02985012345016,standing,2026-03-04_13-56-54
1772632617895635000,3.313635009765625,-0.0365968059154227,0.0495730092033743,-0.011154431220889,-0.0232212506234645,0.0104786437004804,0.0303081888705492,standing,2026-03-04_13-56-54
1772632617905582800,3.323582763671875,-0.0558390838608145,0.0262178525790572,-0.0137158061414957,-0.0250729229301214,0.020040325820446,0.02931684628129,standing,2026-03-04_13-56-54
1772632617915531800,3.33353173828125,-0.1134112020593136,-0.0122848965555429,-0.0100233813643455,-0.0249919611960649,0.0196067634969949,0.0206538513302803,standing,2026-03-04_13-56-54
1772632617925481000,3.34348095703125,-0.1303872155731543,-0.0551924565203487,0.0372451502889394,-0.0223750229924917,0.002444019075483,0.0151905147358775,standing,2026-03-04_13-56-54
1772632617935430100,3.35343017578125,-0.074233184011653,-0.0801205615498125,0.0892278509825468,-0.0195520725101232,-0.0125059019774198,0.0125835472717881,standing,2026-03-04_13-56-54
1772632617945379000,3.363379150390625,-0.0697469785083085,-0.0935622269250452,0.0747743782162666,-0.0140786478295922,-0.0241959728300571,0.0094073228538036,standing,2026-03-04_13-56-54
1772632617955327000,3.373326904296875,-0.0873091578796505,-0.0711078185327351,0.0468435842394828,-0.0113457115367054,-0.0351652652025222,0.0047057783231139,standing,2026-03-04_13-56-54
1772632617965276000,3.38327587890625,-0.0813938328886404,-0.0527063387930393,0.0268494284808635,-0.008247235789895,-0.0404784120619297,0.006505093537271,standing,2026-03-04_13-56-54
1772632617975225000,3.39322509765625,-0.0637226401848718,-0.0682316785745322,-0.0073544544160366,-0.0078493598848581,-0.0388501547276973,0.0022546879481524,standing,2026-03-04_13-56-54
1772632617985174000,3.403174072265625,-0.0806449872827157,-0.0518035447344183,-0.065756374502182,-0.0042998120188713,-0.0166527032852172,0.0005649414379149,standing,2026-03-04_13-56-54
1772632617995122000,3.413121826171875,-0.0986890318868681,-0.0191001295283436,-0.1385766960412263,-0.001211610622704,0.0091597195714712,-0.003538457211107,standing,2026-03-04_13-56-54
1772632618005070800,3.42307080078125,-0.091583583795838,0.0154876381196081,-0.131895026320219,-0.0017364555969834,0.0185124725103378,-0.0069834250025451,standing,2026-03-04_13-56-54
1772632618015019800,3.433019775390625,-0.0456714351875707,0.0156667940787971,-0.0866249750077724,-0.0045221224427223,0.0239557065069675,0.0005234931595623,standing,2026-03-04_13-56-54
1772632618024969000,3.442968994140625,0.0168153795920312,0.0149605455055832,-0.0208306065827608,-0.0097078038379549,0.0263500232249498,0.0011545503512024,standing,2026-03-04_13-56-54
1772632618034918000,3.45291796875,0.0212665503146126,0.037790509212017,0.0539174681484699,-0.0184208676218986,0.0145506206899881,-0.0015437643742188,standing,2026-03-04_13-56-54
1772632618044865800,3.46286572265625,0.003981763112545,0.0329359087876975,0.1253033729702234,-0.025611413642764,-0.0025086598470807,6.62840902805e-05,standing,2026-03-04_13-56-54
1772632618054815000,3.47281494140625,0.03748308723066,0.0351036082156002,0.1152092644572257,-0.0191247519105672,-0.0112760523334145,0.0020780358463525,standing,2026-03-04_13-56-54
1772632618064764000,3.482763916015625,0.0089879008367657,0.0593697422049939,0.0438344655513763,-0.0132718123495578,-0.0073408279567956,0.0006153448484838,standing,2026-03-04_13-56-54
1772632618074713000,3.492713134765625,-0.0258253095975145,0.0944258580170571,0.0136170219421386,-0.0071614547632634,0.0007133700419217,0.004904365632683,standing,2026-03-04_13-56-54
1772632618084661000,3.502660888671875,0.0158426255697384,0.0837196089550852,0.0060217445075511,-0.0025140736252069,0.0120291411876678,0.0121653899550437,standing,2026-03-04_13-56-54
1772632618094610000,3.51260986328125,0.0523306738810613,0.0690681293986737,0.0305272402107715,-0.0051122540608048,0.0207227636128664,0.0203325059264898,standing,2026-03-04_13-56-54
1772632618104558800,3.522558837890625,0.0417073903948068,0.0823459825143218,0.1071785182148218,-0.0127340797334909,0.0026048773434013,0.0219341591000556,standing,2026-03-04_13-56-54
1772632618114508000,3.532508056640625,0.0262009745094925,0.0503740964531898,0.2036076788783073,-0.0270493701100349,-0.0304223131388425,0.0222963504493236,standing,2026-03-04_13-56-54
1772632618124457000,3.54245703125,0.0377077262993902,-0.0237755739934742,0.1797457417756319,-0.0353277176618576,-0.0468642748892307,0.0227860901504755,standing,2026-03-04_13-56-54
1772632618134404900,3.55240478515625,0.0069578563138842,-0.0366257032163441,0.0893979468524455,-0.0372292138636112,-0.0450416058301925,0.0177918635308742,standing,2026-03-04_13-56-54
1772632618144353800,3.562353759765625,-0.0638961701208725,-0.0068554188527166,-0.0113075759559869,-0.0353061594069004,-0.033800933510065,0.0162325277924537,standing,2026-03-04_13-56-54
1772632618154302700,3.572302734375,-0.0737041917014867,0.0067708093091845,-0.0930009397804737,-0.0300964824855327,-0.0089424550533294,0.0226587355136871,standing,2026-03-04_13-56-54
1772632618164252200,3.582252197265625,-0.0130630778538063,0.0232933434344828,-0.1346837802559137,-0.0221850425004959,0.0187842510640621,0.0331411473453044,standing,2026-03-04_13-56-54
1772632618174200000,3.592199951171875,-0.0551124135540798,0.0350131534531712,-0.1348684891730547,-0.0153881246224045,0.0346963740885257,0.0335824340581893,standing,2026-03-04_13-56-54
1772632618184149000,3.60214892578125,-0.0914431889444589,0.0007283142745494,-0.0625830051630735,-0.0088645573705434,0.026202879846096,0.028173903003335,standing,2026-03-04_13-56-54
1772632618194098000,3.612097900390625,-0.0871549902312457,-0.0567947771504521,0.0465484006851911,-0.0071143270470201,-0.0017435324843972,0.0207122582942247,standing,2026-03-04_13-56-54
1772632618204046800,3.622046875,-0.0562740412119776,-0.1031453171759843,0.1056622684329748,-0.0048835226334631,-0.0287944599986076,0.0158480238169431,standing,2026-03-04_13-56-54
1772632618213996000,3.63199609375,-0.0460106405466794,-0.0899699015215039,0.1282230598092079,-0.0031937467865645,-0.0498912222683429,0.0112665863707661,standing,2026-03-04_13-56-54
1772632618223944000,3.64194384765625,-0.0245362927002832,-0.0494926374435424,0.0932493615835905,-0.0059701977297663,-0.0521672889590263,0.0066662011668086,standing,2026-03-04_13-56-54
1772632618233892900,3.651892822265625,-0.0152912022320553,-0.004987871415168,0.0334714769691228,-0.0136238569393754,-0.0368591733276844,0.0089152408763766,standing,2026-03-04_13-56-54
1772632618243841800,3.661841796875,-0.0215228996958583,0.003244973270595,-0.0069634092718362,-0.0235047023743391,-0.0164913181215524,0.0089491177350282,standing,2026-03-04_13-56-54
1772632618253791000,3.671791015625,-0.0718819447103887,0.0136852648727595,-0.043033086040616,-0.0314502418041229,0.0027904997114092,-0.0010595738422125,standing,2026-03-04_13-56-54
1772632618263739000,3.68173876953125,-0.1086443529836833,0.0090742639459669,-0.0388233593910932,-0.0382128916680812,0.0123054385185241,-0.0063222753815352,standing,2026-03-04_13-56-54
1772632618273687800,3.691687744140625,-0.0622253508318215,0.0206621181480586,-0.0671434449464082,-0.0349276177585125,0.0314639508724212,-0.0044665848836302,standing,2026-03-04_13-56-54
1772632618283637000,3.701636962890625,-0.0162767792033031,0.0443069053687155,-0.1020838254243135,-0.0250460766255855,0.0417878404259681,0.0006156954914331,standing,2026-03-04_13-56-54
1772632618293586000,3.7115859375,0.0079273954657837,0.0744498224370181,-0.1114987195014953,-0.0068162074312567,0.0328113883733749,0.0057795653119683,standing,2026-03-04_13-56-54
1772632618303535000,3.72153515625,0.0600154927626252,0.0815922415375709,-0.0694622432827949,0.0100603075698018,0.0163431949913501,0.0164850372821092,standing,2026-03-04_13-56-54
1772632618313483000,3.73148291015625,0.0921872487774118,0.0624913813568651,-0.0289005157917737,0.0227524004876613,-0.005250780377537,0.0212451722472906,standing,2026-03-04_13-56-54
1772632618323432000,3.741431884765625,0.1038419576706364,0.0636556028306484,0.0573614711225032,0.0180790610611438,-0.0238685403019189,0.0244000647217035,standing,2026-03-04_13-56-54
1772632618333380900,3.751380859375,0.0689044998021796,0.0614772358782589,0.1477460909247398,0.0008785021491348,-0.0306843686848878,0.0293641965836286,standing,2026-03-04_13-56-54
1772632618343329800,3.761329833984375,0.0443530095327645,0.0309860898941755,0.2065700358152389,-0.0209003966301679,-0.0286561045795679,0.0259699113667011,standing,2026-03-04_13-56-54
1772632618353278000,3.77127783203125,-0.0187548962872475,0.0038007074572145,0.1884264763593673,-0.0365722998976707,-0.0180516652762889,0.0191607438027858,standing,2026-03-04_13-56-54
1772632618363227000,3.781226806640625,-0.0800746035162359,-0.0088248192295432,0.1103735148638486,-0.0440372303128242,-0.0033106671180576,0.0148642798885703,standing,2026-03-04_13-56-54
1772632618373175800,3.79117578125,-0.060033795604296,-0.0032880817599594,0.015781506499648,-0.0391545929014682,0.0159690212458372,0.0183463618159294,standing,2026-03-04_13-56-54
1772632618383125000,3.801125,-0.0262492706306278,0.0406133115477859,-0.0571878681212663,-0.0254987645894289,0.0239281486719846,0.021942863240838,standing,2026-03-04_13-56-54
1772632618393073000,3.811072998046875,0.003770020058006,0.045826808412373,-0.0475567009449005,-0.0158874150365591,0.011491984128952,0.0259376056492328,standing,2026-03-04_13-56-54
1772632618403022000,3.82102197265625,-0.0020724954251199,-0.0003531973518431,-0.003435235145688,-0.0071089761331677,0.0003628947306424,0.0199914947152137,standing,2026-03-04_13-56-54
1772632618412971000,3.830970947265625,-0.071085277907364,-0.0609866758823394,0.0399053094089031,-0.0018692063167691,-0.0176326166838407,0.0098970485851168,standing,2026-03-04_13-56-54
1772632618422920000,3.840919921875,-0.0951483636053279,-0.0726572399318218,0.0700157855123281,-0.0071903560310602,-0.0334439352154731,0.0032196221873164,standing,2026-03-04_13-56-54
1772632618432868900,3.850868896484375,-0.0548481731273233,-0.0489624760895967,0.0793114371240139,-0.0157907679677009,-0.029119225218892,0.0077951992861926,standing,2026-03-04_13-56-54
1772632618442817000,3.860817138671875,-0.0182331009028479,-0.0157100486986339,0.0452776500970125,-0.0214145109057426,-0.0136384088546037,0.0134099405258893,standing,2026-03-04_13-56-54
1772632618452766000,3.870765869140625,-0.0437356448194012,0.0144208856709301,-0.0145347213089466,-0.0227189287543296,-0.0004552293103188,0.0130520109087228,standing,2026-03-04_13-56-54
1772632618462715000,3.88071484375,-0.0685252912262454,0.0403581677429378,-0.0574953266352415,-0.0195692982524633,0.0077194785699248,0.010639201849699,standing,2026-03-04_13-56-54
1772632618472663800,3.890663818359375,-0.0818184149762615,0.0195336986400187,-0.0514040240228176,-0.020559461787343,0.0064723202958703,0.0078748408704996,standing,2026-03-04_13-56-54
1772632618482612700,3.90061279296875,-0.0630693273752927,-0.0189852709770202,-0.029151860204339,-0.0183297879993915,0.0016619870439171,-0.0003820934798568,standing,2026-03-04_13-56-54
1772632618492561000,3.910560791015625,-0.0967444371577352,-0.0255938754618167,-0.0273018484234809,-0.0127757666632533,0.0053344862535595,-0.0108693558722734,standing,2026-03-04_13-56-54
1772632618502509800,3.920509765625,-0.0962634121751412,-0.0192046128161251,-0.0271761762171983,-0.0121892970055341,0.0142367649823427,-0.0099673997610807,standing,2026-03-04_13-56-54
1772632618512459000,3.930458984375,-0.0606560191558673,0.0032895430646836,-0.0081382982701063,-0.0076504717580974,0.0176077932119369,-0.0058725229464471,standing,2026-03-04_13-56-54
1772632618522408000,3.940407958984375,-0.0248239140026271,0.0213945240758359,-0.0186842422038316,0.002524260431528,0.0124451238662004,-0.0050642811693251,standing,2026-03-04_13-56-54
1772632618532356000,3.950356201171875,-0.0169061996806412,0.0401848570026457,0.0207259771645069,0.0070308614522218,-0.0060196360573172,-0.0039931577630341,standing,2026-03-04_13-56-54
1772632618542305000,3.960304931640625,-0.0012437529833987,0.0443693030804395,0.0728138917982578,0.0040756268426775,-0.0214117746800184,0.0001828749664127,standing,2026-03-04_13-56-54
1772632618552254000,3.97025390625,0.007104388645105,0.0439139605283737,0.0636427433490753,-0.0006040795706212,-0.021843472495675,0.0022699944674968,standing,2026-03-04_13-56-54
1772632618562203000,3.980202880859375,-0.0402710739813745,0.0507213024556636,0.0206330381840467,-0.0012221331708133,-0.0062701078131794,-0.0035310718230903,standing,2026-03-04_13-56-54
1772632618572151000,3.990151123046875,-0.1140587792478501,0.0300808116175234,0.002388940963149,-0.0036645182408392,0.0101829012855887,-0.0128127206116914,standing,2026-03-04_13-56-54
1772632618582099500,4.000099365234375,-0.1022747814191505,0.0170690620921552,0.0008960720568895,-0.0084579177200794,0.0196234080940485,-0.0126826046034693,standing,2026-03-04_13-56-54
1772632618592048400,4.01004833984375,-0.0564221444457769,0.0054100423499941,0.0347679465204477,-0.0152138238772749,0.0217081308364868,-0.0113321151584386,standing,2026-03-04_13-56-54
1772632618601997300,4.019997314453125,-0.020219671610184,-0.0004822305589914,0.0807429312318563,-0.0200388226658105,0.0056130485609173,-0.0116630066186189,standing,2026-03-04_13-56-54
1772632618611946200,4.0299462890625,0.0022064240030944,-0.0098551851905882,0.106862876394391,-0.0288829132914543,-0.0189125351607799,-0.0136057827621698,standing,2026-03-04_13-56-54
1772632618621894400,4.039894287109375,0.0105647582320496,-0.038080578199774,0.1065448964864015,-0.0323888398706913,-0.034447681158781,-0.0133932903409004,standing,2026-03-04_13-56-54
1772632618631843300,4.04984326171875,-0.0163797281211242,-0.043969197846949,0.0167605806648731,-0.0266175046563148,-0.0291850119829177,-0.0170527398586273,standing,2026-03-04_13-56-54
1772632618641792300,4.059792236328125,-0.0688594185514375,-0.0250055541798472,-0.114315530487895,-0.0190400630235672,-0.0174343455582857,-0.0222291685640811,standing,2026-03-04_13-56-54
1772632618651741200,4.0697412109375,-0.0889692731115966,-0.0028232407271862,-0.1910211690276861,-0.0070387939922511,0.0090699661523103,-0.0169486515223979,standing,2026-03-04_13-56-54
1772632618661690400,4.0796904296875,-0.043669411182776,0.0447767148375511,-0.2209019280284643,0.0065724737942218,0.0344890356063842,-0.0082631446421146,standing,2026-03-04_13-56-54
1772632618671638300,4.08963818359375,-0.0261005463423207,0.0579356177486479,-0.183427060636878,0.0193415321409702,0.044908121228218,-0.0020300163887441,standing,2026-03-04_13-56-54
1772632618681587500,4.09958740234375,-0.0191842641478404,0.0475499789431691,-0.1057224741876125,0.0324044935405254,0.0303897708654403,0.0003193831071257,standing,2026-03-04_13-56-54
1772632618691536400,4.109536376953125,0.027026355950348,0.0350463250704109,-0.0188935010403394,0.0326513685286045,0.0075614210218191,0.0010352407116442,standing,2026-03-04_13-56-54
1772632618701485300,4.1194853515625,0.0333013080339878,-0.0068299921505153,0.1180722526729106,0.0289935339242219,-0.0187660604715347,-0.0079464809969067,standing,2026-03-04_13-56-54
1772632618711433500,4.12943359375,0.006592858926393,-0.0448189465440809,0.1539186420798301,0.0183683205395936,-0.0242527052760124,-0.0221645664423704,standing,2026-03-04_13-56-54
1772632618721382400,4.13938232421875,-0.0423745855992659,-0.0483564730204641,0.1214127952724695,0.0028759310953319,-0.0202457141131162,-0.0297305509448051,standing,2026-03-04_13-56-54
1772632618731331300,4.149331298828125,-0.0121451227586716,0.0073243515387177,0.1238572658151388,-0.018522834405303,-0.0127909928560256,-0.0246473755687475,standing,2026-03-04_13-56-54
1772632618741280300,4.1592802734375,0.0453721599800512,0.0597502659551799,0.1064718312501907,-0.0354758016765117,0.0009455955587327,-0.0162274111062288,standing,2026-03-04_13-56-54
1772632618751229200,4.169229248046875,0.0296904605930671,0.097211543212831,0.0655570525377988,-0.0430322550237178,0.0117305992171168,-0.0122246798127889,standing,2026-03-04_13-56-54
1772632618761177300,4.17917724609375,-0.0027198534179478,0.0786513657800853,-0.0108703535825014,-0.0368279404938221,0.0220602005720138,-0.0124135399237275,standing,2026-03-04_13-56-54
1772632618771126300,4.189126220703125,-0.0172961853789165,0.084851097203046,-0.0978694225996732,-0.0177024491131305,0.035406369715929,-0.0081665972247719,standing,2026-03-04_13-56-54
1772632618781075500,4.199075439453125,-0.0191481699211522,0.1018655064985156,-0.1587292572319507,0.005049827042967,0.0379314422607421,-0.0040237987414002,standing,2026-03-04_13-56-54
1772632618791024400,4.2090244140625,-0.0034959523569792,0.1004524248301982,-0.1501736103326082,0.0291389171034097,0.0259256456047296,-0.0023081903345882,standing,2026-03-04_13-56-54
1772632618800972500,4.21897265625,0.031943500216864,0.0840603852167725,-0.0961684639006853,0.0475850105285644,0.0010265528690069,0.0055354638025164,standing,2026-03-04_13-56-54
1772632618810921500,4.22892138671875,0.0398136125374585,0.0609872604042291,-0.0103285017907619,0.052830372005701,-0.018766326829791,0.0082572139799594,standing,2026-03-04_13-56-54
1772632618820870400,4.238870361328125,0.0198586562780663,0.0243844996720552,0.0724959118902683,0.0447636693716049,-0.0371044501662254,0.0038223508745431,standing,2026-03-04_13-56-54
1772632618830819300,4.2488193359375,-0.0188139329981058,-0.0111607148312032,0.1405816061228513,0.0284573994576931,-0.0403266102075576,0.0008257620502263,standing,2026-03-04_13-56-54
1772632618840767500,4.258767578125,-0.0369736764037981,-0.0134488257683813,0.1526671807140112,0.0041305888444185,-0.0241891834884881,-0.0040208403952419,standing,2026-03-04_13-56-54
1772632618850716400,4.26871630859375,-0.0883351399265229,-0.0138670511804521,0.1308808808416128,-0.0217630602419376,-0.0017512526828795,-0.0140662845224142,standing,2026-03-04_13-56-54
1772632618860665300,4.278665283203125,-0.1018582365075126,-0.0267778245493769,0.1136322243988513,-0.0381451025605201,0.0176412221044302,-0.0169451888650655,standing,2026-03-04_13-56-54
1772632618870614300,4.2886142578125,-0.0596065101029351,-0.0068321841076016,0.0371872826218605,-0.0444413460791111,0.0338609404861927,-0.0139358164742589,standing,2026-03-04_13-56-54
1772632618880563200,4.298563232421875,-0.0153765058953315,0.0422726230621337,-0.0143669635266065,-0.0318181104958057,0.0403831452131271,-0.0075286868959665,standing,2026-03-04_13-56-54
1772632618890511400,4.308511474609375,-0.0067417293451726,0.073313365752995,-0.0628700054109096,-0.0098118754103779,0.023485654965043,-0.0054780533537268,standing,2026-03-04_13-56-54
1772632618900460500,4.31846044921875,-0.0026886910947039,0.0680086834736168,-0.0714601391017436,0.0115842195227742,-0.007106470875442,-0.0051829316653311,standing,2026-03-04_13-56-54
1772632618910409500,4.328409423828125,0.0112385293077677,0.038140199432522,-0.0542851324170827,0.0264342725276947,-0.0231605377048254,-0.0013865955406799,standing,2026-03-04_13-56-54
1772632618920358400,4.3383583984375,0.0314622925711795,0.0465364179864525,-0.0327244579941034,0.0301139932125806,-0.0223512090742588,0.0005477692466229,standing,2026-03-04_13-56-54
1772632618930307300,4.348307373046875,0.0259583979252725,0.0759809775270521,0.0059282210052013,0.0212398096919059,-0.0153383063152432,0.0004545587580651,standing,2026-03-04_13-56-54
1772632618940255500,4.35825537109375,-0.0124096554463729,0.0642136751048266,0.0426285968929529,0.0040889522060751,-0.0085448501631617,-0.0010635270737111,standing,2026-03-04_13-56-54
1772632618950204400,4.368204345703125,-0.0267770573643967,0.0347717459127306,0.0672533350616693,-0.0114745618775486,0.0004289376083761,-0.0021064209286123,standing,2026-03-04_13-56-54
1772632618960153300,4.3781533203125,-0.0234009319948032,0.0504554911263287,0.0358849678516387,-0.0217324681580066,0.011749105527997,0.0001976201310753,standing,2026-03-04_13-56-54
1772632618970102300,4.388102294921875,-0.0051133609583601,0.0858050369270145,-0.0027829087167978,-0.022477887570858,0.017725771293044,0.0026924691628664,standing,2026-03-04_13-56-54
1772632618980050400,4.398050537109375,-0.0080267641870304,0.0972584510944783,-0.036705052062869,-0.0182176679372787,0.017559727653861,0.0026089025195688,standing,2026-03-04_13-56-54
1772632618989999400,4.407999267578125,-0.0105822938887402,0.0856619751945138,-0.0395978508949279,-0.0077972523868083,0.0144669972360134,0.0003284378908574,standing,2026-03-04_13-56-54
1772632618999948300,4.4179482421875,-0.0122288555193692,0.0733592507213354,-0.0297106631308794,-0.0028661340475082,0.0073546208441257,0.0018511903472244,standing,2026-03-04_13-56-54
1772632619009897500,4.4278974609375,-0.0045508682373911,0.0470924444340169,0.0091927757591009,0.0031134611926972,-0.0001227362081408,0.0002833872567862,standing,2026-03-04_13-56-54
1772632619019846400,4.437846435546875,-0.0183916889980435,0.0619391543015837,-0.0031634324669837,0.0120128113776445,0.0002759431954473,0.004424141254276,standing,2026-03-04_13-56-54
1772632619029794600,4.447794677734375,-0.0101957422565668,0.1236826399005949,-0.0066559507578611,0.0187402218580245,0.0009585113730281,0.0098553914576768,standing,2026-03-04_13-56-54
1772632619039743500,4.457743408203125,-0.002626695241779,0.1403961665533483,0.0089835169225931,0.0179493986070156,-0.0091761527583003,0.0106851626187562,standing,2026-03-04_13-56-54
1772632619049692400,4.4676923828125,-0.0417242319317534,0.0981133143581449,0.0321878668993711,0.0155421672388911,-0.0082523021847009,0.0052067730575799,standing,2026-03-04_13-56-54
1772632619059641300,4.477641357421875,-0.0692682185480371,0.0373310750067234,-0.0020931728869676,0.0137382596731185,0.0201119687408208,0.0024906306061893,standing,2026-03-04_13-56-54
1772632619069589500,4.487589599609375,-0.0838164934583008,0.0196902043759822,-0.011210545322299,0.0048182676546275,0.0540536902844905,0.0017542669083923,standing,2026-03-04_13-56-54
1772632619079538400,4.497538330078125,-0.0972935224078595,0.0138552146121859,0.0695633655697107,-0.0137350363656878,0.0405262969434261,-0.0044716438278555,standing,2026-03-04_13-56-54
1772632619089487400,4.5074873046875,-0.0588695741305127,-0.0380370313189923,0.2146504664182663,-0.0341915749013423,-0.0045788646675646,-0.0057124104350805,standing,2026-03-04_13-56-54
1772632619099436300,4.517436279296875,0.0363488590363413,-0.1125051200650632,0.2551081490129232,-0.0430192574858665,-0.0318549610674381,-0.0053961109369993,standing,2026-03-04_13-56-54
1772632619109385200,4.52738525390625,0.0447002155352383,-0.097720661778748,0.1600011768639087,-0.0420978032052516,-0.0475947745144367,-0.008545565418899,standing,2026-03-04_13-56-54
1772632619119333400,4.53733349609375,-0.0357289370397105,-0.0472802220910787,0.0511760604858398,-0.0380702055990695,-0.059140644967556,-0.0152976596727967,standing,2026-03-04_13-56-54
1772632619129282600,4.547282470703125,-0.0788224114980548,-0.0247711609020829,-0.0797545047163963,-0.0279485955834388,-0.0417560599744319,-0.0170513503253459,standing,2026-03-04_13-56-54
1772632619139231500,4.5572314453125,-0.083688337033987,-0.0052096974723041,-0.2477507719874382,-0.0064469394274055,0.0066451588645577,-0.0095079615712165,standing,2026-03-04_13-56-54
1772632619149180400,4.567180419921875,-0.086483447645232,0.0605563216410577,-0.3588128536373376,0.0155576951801776,0.0347825214266777,-0.0097934529185295,standing,2026-03-04_13-56-54
1772632619159128300,4.57712841796875,-0.1113644621299579,0.0890804053358733,-0.3199807264178991,0.034657672047615,0.0334493443369865,-0.0066325045190751,standing,2026-03-04_13-56-54
1772632619169077500,4.587077392578125,-0.0057408817395567,0.0581489682383835,-0.2654045020997524,0.0535163134336471,0.0302471593022346,0.0111875049769878,standing,2026-03-04_13-56-54
1772632619179026400,4.5970263671875,0.0702869671365246,0.0753229520097374,-0.1848643999636173,0.0670165568590164,0.0251586586236953,0.0164907835423946,standing,2026-03-04_13-56-54
1772632619188975400,4.606975341796875,0.0358068611141294,0.0739051941663026,-0.0517050527960062,0.0689268484711647,0.008733345195651,0.0078717293217778,standing,2026-03-04_13-56-54
1772632619198924300,4.61692431640625,-0.0320147022895514,0.0335385508559644,0.0863256998002529,0.0492694564163684,-0.0092552490532398,-0.0038645279128104,standing,2026-03-04_13-56-54
1772632619208872200,4.6268720703125,-0.0199594497714191,-0.0355921223849058,0.2034492734462022,0.0233848616480827,0.0006810054183006,-0.0071844244375824,standing,2026-03-04_13-56-54
1772632619218821400,4.6368212890625,-0.0021661285253241,-0.0248801742345094,0.2288490876406431,-0.0050087822601199,0.0226235929876565,-0.0114570874720811,standing,2026-03-04_13-56-54
1772632619228770300,4.646770263671875,-0.0596280643476173,0.0280259249143302,0.2785761183619499,-0.0342228598892688,0.0150756621733307,-0.0165916606783866,standing,2026-03-04_13-56-54
1772632619238719500,4.656719482421875,-0.0339900940157473,0.0409258846282959,0.3095668844312429,-0.0504730008542537,-0.0037816467229276,-0.0154671072959899,standing,2026-03-04_13-56-54
1772632619248667400,4.66666748046875,0.0523952635498717,0.0177964995838701,0.179193368589878,-0.0415652617812156,-0.0067438809201121,-0.0100084254518151,standing,2026-03-04_13-56-54
1772632619258616300,4.6766162109375,0.029425306850858,0.0549088172733783,-0.0195616095602512,-0.013656142167747,0.0007799454033374,-0.0134032554924488,standing,2026-03-04_13-56-54
1772632619268565500,4.6865654296875,-0.064525006076321,0.1097768641449511,-0.1610112306892872,0.0161648709326982,0.0130291543900966,-0.0150059461593627,standing,2026-03-04_13-56-54
1772632619278514400,4.696514404296875,-0.0094230773836374,0.1060899923257529,-0.1824327889025211,0.0352778062224388,0.0209564566612243,-0.0048749581910669,standing,2026-03-04_13-56-54
1772632619288463400,4.70646337890625,0.038010910497047,0.1135901388227939,-0.1040367130577564,0.036181416362524,0.0093288281932473,0.0006159471813589,standing,2026-03-04_13-56-54
1772632619298411300,4.716411376953125,0.0265864666957408,0.1010220414116978,0.0276443782508373,0.026834987103939,-0.0114749837666749,-0.0034105833619832,standing,2026-03-04_13-56-54
1772632619308360400,4.7263603515625,0.0425633496370166,0.0511382126934826,0.1178857901901006,0.0083566457033157,-0.0174431279301643,0.0005953435320407,standing,2026-03-04_13-56-54
1772632619318309400,4.736309326171875,0.0458709398150444,0.0345541576392948,0.0930968013703823,-0.0038814912550151,-0.0076959561556577,0.0045015290379524,standing,2026-03-04_13-56-54
1772632619328258300,4.74625830078125,0.018036299689114,0.0768412476181984,0.0504039070695638,-0.0100384540855884,0.0050368839874863,0.0047372188419103,standing,2026-03-04_13-56-54
1772632619338206200,4.756206298828125,-0.0346544031433761,0.0919331644184887,-0.0282534500598907,-0.0059022475033998,0.0154044292867183,0.001985638635233,standing,2026-03-04_13-56-54
1772632619348155100,4.766155029296875,-0.0308824468566104,0.0764186382919549,-0.0669008683621883,0.0004688324406743,0.0248400084674358,0.0064389770850539,standing,2026-03-04_13-56-54
1772632619358104600,4.7761044921875,-0.033196715148352,0.073026073244214,-0.061532034805417,0.004834552295506,0.0254807658493518,0.0043513244017958,standing,2026-03-04_13-56-54
1772632619368053500,4.786053466796875,-0.0728062564810737,0.0466582908004522,-0.0091553663581609,0.0031671891920268,0.0112580182030797,-0.0020666839554905,standing,2026-03-04_13-56-54
1772632619378002400,4.79600244140625,-0.0812216181268915,0.0057753685310482,0.0543576131314039,0.0028035254217684,0.0057312943972647,0.0017392116133123,standing,2026-03-04_13-56-54
1772632619387950300,4.805950439453125,-0.0479812830325216,-0.0180116036392748,0.037820319828391,0.0047758622094988,0.0058298311196267,-0.0002757359761744,standing,2026-03-04_13-56-54
1772632619397899300,4.815899169921875,-0.0412725791741162,0.0042072424314916,0.0297656081885099,0.007596774958074,0.0039497716352343,-7.14857596904e-05,standing,2026-03-04_13-56-54
1772632619407848400,4.825848388671875,-0.0318386516029015,0.0130966513298451,0.0411544326871633,0.0100756455212831,0.00203682272695,0.0060846768319606,standing,2026-03-04_13-56-54
1772632619417797400,4.83579736328125,-0.0113072106298059,-0.0021555705986917,0.0320545959085226,0.011006562039256,-0.0039200042374432,0.0043930653482675,standing,2026-03-04_13-56-54
1772632619427745300,4.845745361328125,-0.0708399613767862,-0.0334644627064466,0.0364490314751863,0.0114371953532099,-0.0138733033090829,-0.0063176359981298,standing,2026-03-04_13-56-54
1772632619437694200,4.855694091796875,-0.0930739319514483,-0.0544495291985571,0.0507990438669919,0.0074400743469595,-0.0193298477679491,-0.0139471283182501,standing,2026-03-04_13-56-54
1772632619447643400,4.865643310546875,-0.0831492982538417,-0.0548991726621985,0.0292646729290485,0.0047963545657694,-0.0098457979038357,-0.0143841532990336,standing,2026-03-04_13-56-54
1772632619457592300,4.87559228515625,-0.0772879684723913,-0.0081193013086915,-0.0149169986248016,0.005092903971672,3.11990734189e-05,-0.011876493692398,standing,2026-03-04_13-56-54
1772632619467541500,4.88554150390625,-0.0472523477034643,0.0449731141924858,-0.0128770172297954,0.0033791600726544,-0.0044815274886786,-0.0062244664877653,standing,2026-03-04_13-56-54
1772632619477489400,4.895489501953125,0.0079128920163959,0.0674755995102226,-0.0163479082107543,0.0048102922737598,-0.0022165095433592,0.0010722866281867,standing,2026-03-04_13-56-54
1772632619487438300,4.905438232421875,0.0414815457496792,0.0790643304951489,-0.01574058996737,0.0100322188809514,0.0109858447685837,0.008617022074759,standing,2026-03-04_13-56-54
1772632619497387500,4.915387451171875,-0.011366503068991,0.0835690945684909,-0.0101420393079519,0.0129737053066492,0.0112163424491882,0.0028519651386886,standing,2026-03-04_13-56-54
1772632619507336400,4.92533642578125,-0.0615169103015214,0.0854262667424976,0.0229027366816997,0.0052923499606549,0.0017919475212693,-0.0010178742231801,standing,2026-03-04_13-56-54
1772632619517284400,4.935284423828125,-0.0077124010082334,0.0730551532082259,0.0902630392491817,-0.0067234248854219,-0.0098541900515556,0.0038338999729603,standing,2026-03-04_13-56-54
1772632619527233300,4.9452333984375,0.0445890467783436,0.0825606481783092,0.1214244857102632,-0.0088065508753061,-0.0175632424652576,0.0050837220624089,standing,2026-03-04_13-56-54
1772632619537182200,4.95518212890625,0.0136869088405743,0.0906339183881878,0.0605401011586189,-0.0050488375127315,-0.0066321673803031,0.0047834846191108,standing,2026-03-04_13-56-54
1772632619547131400,4.96513134765625,-0.0120016591673716,0.0978489643335342,-0.0022825579792261,-7.21882097423e-05,0.0173464026302099,0.0101606734097003,standing,2026-03-04_13-56-54
1772632619557080300,4.975080322265625,0.0128571434855461,0.0852238760381937,-0.0008194996893405,0.006848600693047,0.029356462880969,0.0171181689947843,standing,2026-03-04_13-56-54
1772632619567028200,4.9850283203125,0.0256679636113345,0.0727164227731525,0.0545838231027126,0.0131259374320507,0.0165778174996376,0.0196489710360765,standing,2026-03-04_13-56-54
1772632619576977200,4.99497705078125,0.0361996963566169,0.0209577400937676,0.1272317106842994,0.0171952657401561,-0.0095576494932174,0.0202889833599329,standing,2026-03-04_13-56-54
1772632619586926300,5.00492626953125,0.0340407647570595,-0.0394322850696742,0.2089373494684696,0.0070752538740634,-0.0458738468587398,0.0117966961115598,standing,2026-03-04_13-56-54
1772632619596875500,5.01487548828125,-0.008484079500474,-0.0847378460869193,0.2680658302634954,-0.0059926039539277,-0.071778804063797,-0.0024958588182926,standing,2026-03-04_13-56-54
1772632619606823200,5.0248232421875,-0.0767785941781476,-0.1225287936903536,0.2149573404103517,-0.0222788993269205,-0.08143862336874,-0.0223723612725734,standing,2026-03-04_13-56-54
1772632619616772400,5.0347724609375,-0.1015666331497952,-0.0861338304899632,0.1288584351032972,-0.0392824113368988,-0.0698968842625618,-0.0283550415188074,standing,2026-03-04_13-56-54
1772632619626721300,5.04472119140625,-0.0594258197737857,-0.003517360471189,-0.0003776011407375,-0.0556216984987258,-0.0339721776545047,-0.0197847224771976,standing,2026-03-04_13-56-54
1772632619636670500,5.05467041015625,0.0014106705155223,0.0980205215081572,-0.127844289624691,-0.0624829158186912,0.0041198171675205,0.0024549299851059,standing,2026-03-04_13-56-54
1772632619646619400,5.064619384765625,0.0426806924063712,0.1655053272381424,-0.2365595158874988,-0.0482105053961277,0.0375321023166179,0.0198083538562059,standing,2026-03-04_13-56-54
1772632619656567300,5.0745673828125,0.0385866280257701,0.1801141366966068,-0.2841898665904999,-0.0211763512343168,0.046217069029808,0.03134386241436,standing,2026-03-04_13-56-54
1772632619666516200,5.08451611328125,-0.0141222680505365,0.1583823434904217,-0.2729880890965461,0.0127424681559205,0.0334951467812061,0.0272660311311483,standing,2026-03-04_13-56-54
1772632619676465200,5.094465087890625,-0.0760695325933396,0.0493399310998618,-0.2190115842372179,0.0371809676289558,0.0100220469757914,0.0153776798397302,standing,2026-03-04_13-56-54
1772632619686414300,5.104414306640625,-0.114782380814664,-0.0190725108690559,-0.1177314764112234,0.0481758266687393,-0.0109761795029044,0.006104021333158,standing,2026-03-04_13-56-54
1772632619696362200,5.1143623046875,-0.1134989168753847,-0.0522989270359277,0.0097463179886341,0.0449638254940509,-0.0147884897887706,0.0006019170396029,standing,2026-03-04_13-56-54
1772632619706311200,5.124311279296875,-0.0820024297736585,-0.0400980555020272,0.1351806238621473,0.0234513394534587,-0.0145200435072183,0.0010543880052864,standing,2026-03-04_13-56-54
1772632619716260400,5.13426025390625,-0.029126908426173,-0.0407563732802867,0.2361567803055048,-0.0057186144404113,-0.0191190615296363,0.0030227012466639,standing,2026-03-04_13-56-54
1772632619726209300,5.144209228515625,-0.0236510342983528,-0.0555186197347939,0.2685562441289424,-0.0336234830319881,-0.018586428835988,0.0018634272273629,standing,2026-03-04_13-56-54
1772632619736158500,5.154158447265625,-0.0736024483600631,-0.0628010318279266,0.2445417468130588,-0.0490247346460819,-0.0201262608170509,-0.0112334918230772,standing,2026-03-04_13-56-54
1772632619746106400,5.1641064453125,-0.1052062317611649,-0.057152066155523,0.1371422793239355,-0.0501456595957279,-0.0080826468765735,-0.0136393913999199,standing,2026-03-04_13-56-54
1772632619756055300,5.17405517578125,-0.0812375463483855,-0.0418410997770726,-0.0050128597259521,-0.0376740731298923,0.0191453713923692,-0.0170171223580837,standing,2026-03-04_13-56-54
1772632619766004200,5.184004150390625,-0.0628479397095739,0.0083130703151226,-0.0880816035568714,-0.0218335948884487,0.0275931842625141,-0.0184831917285919,standing,2026-03-04_13-56-54
1772632619775953400,5.193953369140625,-0.015453991578333,0.0363024626113474,-0.0496691630542278,-0.0089663639664649,0.0088786175474524,-0.0113462731242179,standing,2026-03-04_13-56-54
1772632619785901300,5.2039013671875,0.0920467443281784,0.0351874871067702,0.0562473724007606,-0.0071165333501994,-0.0219261664897203,-0.0011516916565597,standing,2026-03-04_13-56-54
1772632619795850200,5.213850341796875,0.1870034212863072,0.0584071807831525,0.1103606553822755,-0.0071749975904822,-0.0466018170118331,0.0125936539843678,standing,2026-03-04_13-56-54
1772632619805799200,5.223799072265625,0.1873856620695441,0.0769309717282652,0.1129594397038221,-0.0089771579951047,-0.0573386177420616,0.0159548297524452,standing,2026-03-04_13-56-54
1772632619815748000,5.233748046875,0.1448204858016222,0.0812118639178574,0.099977208533883,-0.0212256927043199,-0.0563981235027313,0.0117942001670598,standing,2026-03-04_13-56-54
1772632619825697500,5.243697509765625,0.0946285044496878,0.0729891022346913,0.0626239216953516,-0.0377865619957447,-0.043933730572462,0.0129795726388692,standing,2026-03-04_13-56-54
1772632619835645400,5.2536455078125,0.0968892889885231,0.0655459466218948,-0.0081476506203413,-0.0503240413963794,-0.0157830510288476,0.0150636238977313,standing,2026-03-04_13-56-54
1772632619845594400,5.263594482421875,0.0908039411928504,0.0916065628126263,-0.0761380677849054,-0.0492364056408405,0.0147663354873657,0.0274238865822553,standing,2026-03-04_13-56-54
1772632619855543300,5.273543212890625,0.0916096680851653,0.1386965230286121,-0.1463005682915449,-0.0347726121544837,0.029718654230237,0.0395702123641967,standing,2026-03-04_13-56-54
1772632619865492200,5.2834921875,0.1267458633961156,0.1399259186930954,-0.2056792244553565,-0.0148196769878268,0.0322422608733177,0.0544588826596736,standing,2026-03-04_13-56-54
1772632619875440400,5.2934404296875,0.1410403827410191,0.1245724283471703,-0.1893541125982999,0.0130466017872095,0.0190371125936508,0.0613212026655674,standing,2026-03-04_13-56-54
1772632619885389300,5.303389404296875,0.0700550946094095,0.0886990048028528,-0.1515717866927385,0.0348427109420299,-0.0034663313999772,0.0582218170166015,standing,2026-03-04_13-56-54
1772632619898448100,5.3164482421875,0.0129037956388667,0.0296535261161625,-0.1016653077512979,0.0478050857782363,-0.020222807303071,0.0479003153741359,standing,2026-03-04_13-56-54
1772632619908397300,5.326397216796875,-0.0142044299086555,-0.0178054135426878,-0.074385671159625,0.0448700189590454,-0.0133249536156654,0.0382282473146915,standing,2026-03-04_13-56-54
1772632619918346500,5.336346435546875,-0.0792953627720475,-0.0552785273686051,-0.0061789808958768,0.0246984884142875,0.003737119724974,0.0316414944827556,standing,2026-03-04_13-56-54
1772632619928294400,5.34629443359375,-0.1359348397629335,-0.0867429022990167,0.0834270557492971,-0.0034564509987831,0.0088916681706905,0.0243494920432567,standing,2026-03-04_13-56-54
1772632619938243300,5.356243408203125,-0.1470866041027009,-0.1169623917348682,0.1280173081040382,-0.0249901209026575,0.0137396845966577,0.016612883657217,standing,2026-03-04_13-56-54
1772632619948192300,5.366192138671875,-0.1681594219435006,-0.1467138252675533,0.1095943471848964,-0.0282221343368291,0.0222620666027069,0.0099408645182847,standing,2026-03-04_13-56-54
1772632619958141400,5.376141357421875,-0.2062774095442145,-0.1285379709772765,0.0101356095671653,-0.0194780677556991,0.0328120477497577,0.0040109874680638,standing,2026-03-04_13-56-54
1772632619968090400,5.38609033203125,-0.2413980054272338,-0.0822485134892165,-0.0724596715331077,-0.0062959534116089,0.03561582416296,0.0005789713468402,standing,2026-03-04_13-56-54
1772632619978038300,5.396038330078125,-0.2479206121290102,-0.0734757167078554,-0.0784720636904239,0.0092336125671863,0.0241374671459198,-0.0110211977735161,standing,2026-03-04_13-56-54
1772632619987987200,5.4059873046875,-0.2490082612352445,-0.0877723914772272,-0.056776364710927,0.0180971454828977,0.0204018503427505,-0.0265950970351696,standing,2026-03-04_13-56-54
1772632619997936000,5.41593603515625,-0.2554484868831932,-0.0913531725734472,0.0002986906856298,0.0208046045154333,0.0220418311655521,-0.0385420098900795,standing,2026-03-04_13-56-54
1772632620007885300,5.42588525390625,-0.2291188810253515,-0.0590739741288125,0.08017652952075,0.0114870015531778,0.0128102488815784,-0.0444441065192222,standing,2026-03-04_13-56-54
1772632620017833200,5.435833251953125,-0.1848259311167523,-0.0216286250926554,0.1677601204276085,-0.0031114327721297,-0.0008248696103692,-0.0406818985939025,standing,2026-03-04_13-56-54
1772632620027782400,5.445782470703125,-0.0774856099363416,0.0099915249213576,0.2180336791157722,-0.0178632158786058,-0.0050952481105923,-0.0297174006700515,standing,2026-03-04_13-56-54
1772632620037731300,5.4557314453125,0.0187228937137871,0.0786382140375673,0.234834007269144,-0.0295666400343179,-0.0019912065472453,-0.0205933693796396,standing,2026-03-04_13-56-54
1772632620047680300,5.46568017578125,0.0476495668601244,0.1421202138669788,0.21822423325181,-0.0365063026547431,0.0081604970619082,-0.012837978079915,standing,2026-03-04_13-56-54
1772632620057629400,5.47562939453125,0.0466975633649155,0.1315055886112153,0.1734977872967719,-0.0393716134130954,0.0075386445969343,-0.0100647592917084,standing,2026-03-04_13-56-54
1772632620067577300,5.485577392578125,0.0369108037680387,0.1006144835241138,0.1515735402584075,-0.0389164760708808,-0.0119929788634181,-0.0170297250151634,standing,2026-03-04_13-56-54
1772632620077526300,5.4955263671875,0.0221117689670994,0.0545924448005855,0.1369575704067945,-0.0379468575119972,-0.039250161498785,-0.0247878916561603,standing,2026-03-04_13-56-54
1772632620087475200,5.50547509765625,0.015443945108354,0.0299928410731256,0.1273977149009704,-0.0369255356490612,-0.0613685101270675,-0.0243298280984163,standing,2026-03-04_13-56-54
1772632620097424400,5.51542431640625,0.0693631302898749,0.0191423612348735,0.0601408727079629,-0.0341064557433128,-0.0720838755369186,-0.0185694377869367,standing,2026-03-04_13-56-54
1772632620107372300,5.525372314453125,0.0840334972098469,0.073738605427742,-0.0538730444848537,-0.0271295048296451,-0.0607742257416248,-0.0085801864042878,standing,2026-03-04_13-56-54
1772632620117321200,5.5353212890625,0.0716687768837436,0.1020217199735343,-0.1992582514971494,-0.0138582661747932,-0.0252038482576608,0.0062986426055431,standing,2026-03-04_13-56-54
1772632620127270100,5.545270263671875,0.0597838028986006,0.1388426535010337,-0.3447387355774641,0.0017169658094644,0.0107464296743273,0.0147640313953161,standing,2026-03-04_13-56-54
1772632620137219300,5.55521923828125,0.0238428670760244,0.1248719958156347,-0.3823825297951698,0.0144590009003877,0.0373211801052093,0.0228028111159801,standing,2026-03-04_13-56-54
1772632620147168500,5.56516845703125,-0.0002497369773685,0.0711056265756487,-0.3273550545781851,0.0253071226179599,0.0476249493658542,0.0247613005340099,standing,2026-03-04_13-56-54
1772632620157116400,5.575116455078125,-0.0077340648507699,0.0082008421123027,-0.2283253560274839,0.0347126051783561,0.0440158322453498,0.0168455876410007,standing,2026-03-04_13-56-54
1772632620167065300,5.5850654296875,-0.0590614799734205,-0.057869128383696,-0.11212415792346,0.0356391221284866,0.023872748017311,0.0006530350074172,standing,2026-03-04_13-56-54
1772632620177014300,5.59501416015625,-0.1148949012784287,-0.1187687105044722,0.0194914669334888,0.029478246346116,0.0009767501614987,-0.0106910793110728,standing,2026-03-04_13-56-54
1772632620186963200,5.604963134765625,-0.0823912098955363,-0.1462545371927321,0.1223316636830568,0.017581108957529,-0.0181322302669286,-0.0115334372967481,standing,2026-03-04_13-56-54
1772632620196911400,5.614911376953125,-0.0180083522362634,-0.1400989371724426,0.1514361776143312,0.011822797358036,-0.0222155209630727,-0.0114872511476278,standing,2026-03-04_13-56-54
1772632620206860300,5.6248603515625,-0.0353497649963945,-0.1006540848821401,0.1394715990543365,0.0068370928056538,-0.0215537250041961,-0.0142588037997484,standing,2026-03-04_13-56-54
1772632620216809200,5.634809326171875,-0.0605365940272808,-0.058233723912388,0.1176402909964322,0.005294656381011,-0.0079739950597286,-0.0111447963863611,standing,2026-03-04_13-56-54
1772632620226758100,5.644758056640625,-0.053047261185199,-0.0391012995496392,0.0703238285481929,0.001641065813601,5.22399786859e-05,-0.0169638022780418,standing,2026-03-04_13-56-54
1772632620237327400,5.655327392578125,-0.112378571075946,-0.0010214520022273,0.0835199947297573,-0.0048959394916892,-0.0056481263600289,-0.0259978771209716,standing,2026-03-04_13-56-54
1772632620247276300,5.6652763671875,-0.0868739448001608,0.0220572257682681,0.0841156225353479,-0.0131655866280198,-0.0019165050471201,-0.0307500213384628,standing,2026-03-04_13-56-54
1772632620257225200,5.67522509765625,-0.0151269150484353,0.0539841036438941,0.0296861132115125,-0.0158623866736888,0.0092844804748892,-0.0263377241790294,standing,2026-03-04_13-56-54
1772632620267174100,5.685174072265625,0.030434885752201,0.10855725922212,0.0212619837373495,-0.0128215877339243,0.0176593232899904,-0.0169226508587598,standing,2026-03-04_13-56-54
1772632620277122300,5.695122314453125,0.0467332922654226,0.1240691550001502,0.0379261182904243,-0.0075692958198487,0.0103453528136014,-0.0090371994301676,standing,2026-03-04_13-56-54
1772632620287071200,5.7050712890625,0.0514534526551142,0.1100301082536578,0.0435100559026002,-0.0027995738200843,-0.0046517057344317,-0.0030930237844586,standing,2026-03-04_13-56-54
1772632620297020400,5.7150205078125,0.0306808233372867,0.0642496232010424,0.0122913262963294,0.0032793020363897,-0.0179045312106609,-0.0049509853124618,standing,2026-03-04_13-56-54
1772632620306969300,5.72496923828125,0.004268726827763,0.0776369280405342,-0.0352811567395925,0.0096469204872846,-0.0237986370921134,-0.00459571974352,standing,2026-03-04_13-56-54
1772632620316918300,5.734918212890625,-0.0010055603133514,0.0864541484855115,-0.0426513932466506,0.009406846947968,-0.0187281146645545,-0.0030124427285045,standing,2026-03-04_13-56-54
1772632620326866400,5.744866455078125,0.0254707240061834,0.0939503494597971,-0.0525859272837638,0.007780987303704,-0.0059561254456639,0.0033447889145463,standing,2026-03-04_13-56-54
1772632620336815400,5.7548154296875,0.0635678514819592,0.0781784875713288,-0.1090834750533103,0.0080060362815856,0.0048829447478055,0.0145342573523521,standing,2026-03-04_13-56-54
1772632620346764300,5.764764404296875,0.0111051852516829,0.0540983776733279,-0.1243821664720773,0.0150775276124477,0.0125541808083653,0.0185516364872455,standing,2026-03-04_13-56-54
1772632620356713200,5.774713134765625,-0.0078146558063104,-0.001404313839972,-0.1354769764602184,0.0229517072439193,0.0181549377739429,0.0163166690617799,standing,2026-03-04_13-56-54
1772632620366662100,5.784662109375,-0.0469454737113788,-0.058615270575881,-0.0923965441465377,0.0317641086876392,0.0198119562119245,0.0126532232388854,standing,2026-03-04_13-56-54
1772632620376610300,5.7946103515625,-0.0801353572601452,-0.0974159797437489,-0.0032791678011417,0.0328869260847568,0.0096666449680924,0.0046147243119776,standing,2026-03-04_13-56-54
1772632620386559200,5.804559326171875,-0.0522801127376034,-0.1023727253682911,0.0543646273940801,0.0272338334470987,-0.0014568457845598,-0.0015321176033467,standing,2026-03-04_13-56-54
1772632620396508200,5.814508056640625,-0.0372518722906708,-0.0945218657374381,0.0857914467930793,0.0198977328836917,-0.0031454185955226,0.0007056535687297,standing,2026-03-04_13-56-54
1772632620406457300,5.824457275390625,-0.0743720810256898,-0.0806334795080125,0.0899368760347366,0.0133839072659611,-0.0037227917928248,-0.0016467166133224,standing,2026-03-04_13-56-54
1772632620416405500,5.834405517578125,-0.0986349636120721,-0.0730780956923961,0.0326882176369428,0.0076938131824135,-0.0084560308605432,-0.0074675320647656,standing,2026-03-04_13-56-54
1772632620426354400,5.8443544921875,-0.1019667749159038,-0.0525375580973923,-0.0566156211912632,0.0140750128775835,0.0022133910097181,-0.0146676544100046,standing,2026-03-04_13-56-54
1772632620436303400,5.854303466796875,-0.1199158347129821,-0.0215555598564445,-0.0778477943122386,0.0219524707645177,0.012650984339416,-0.0198837351053953,standing,2026-03-04_13-56-54
1772632620446252300,5.864252197265625,-0.1134909527646377,0.0215992528676986,-0.0478957236409187,0.0260968822985887,0.0161583647131919,-0.0269589554518461,standing,2026-03-04_13-56-54
1772632620456201200,5.874201171875,-0.0476501879146322,0.0468920995563268,0.0064116206079721,0.0251684859395027,0.0152595527470111,-0.0249994583427906,standing,2026-03-04_13-56-54
1772632620466149400,5.8841494140625,0.0404568788770586,0.0693016458936035,0.0254214415043592,0.0249064303934574,0.0211217030882835,-0.0168315432965755,standing,2026-03-04_13-56-54
1772632620476098300,5.894098388671875,0.0156666114157065,0.0809546742863953,0.0623643939763307,0.0228033009916543,0.0214133150875568,-0.0105320885777473,standing,2026-03-04_13-56-54
1772632620486047200,5.904047119140625,-0.0431658090421929,0.0826139858007431,0.1128641626358032,0.0214376300573349,0.0026366985403001,-0.0184611175209283,standing,2026-03-04_13-56-54
1772632620495996200,5.91399609375,0.0069067106485366,0.0693877167418599,0.0916343276023864,0.0215771812945604,-0.0086785405874252,-0.017283733934164,standing,2026-03-04_13-56-54
1772632620505945000,5.923945068359375,0.0354778118228539,0.1017718368656933,0.0662608168929815,0.0216112695634365,-0.0105025395750999,-0.0072183171287178,standing,2026-03-04_13-56-54
1772632620515893200,5.933893310546875,0.0116660705374553,0.1390486974671483,0.0760638335049152,0.0169372130185365,-0.003667666343972,-0.0039832340553402,standing,2026-03-04_13-56-54
1772632620525842400,5.943842529296875,0.0035885990764945,0.1146975155428051,0.0866506939709186,0.0093983365222811,0.0098891556262969,-0.0020212833769619,standing,2026-03-04_13-56-54
1772632620535791400,5.953791259765625,0.0199866665719077,0.0621489976599812,0.1145154369741678,-0.0043061240576207,0.0313792675733566,0.004118816461414,standing,2026-03-04_13-56-54
1772632620545740300,5.963740234375,-0.0193275816086679,0.03697363987118,0.1499322027921676,-0.0134159997105598,0.0363234244287014,0.0006444563623517,standing,2026-03-04_13-56-54
1772632620555688400,5.9736884765625,-0.0388151395520195,-0.0199395029619336,0.1654290471315384,-0.0161842294037342,0.0120752118527889,-0.0069152200594544,standing,2026-03-04_13-56-54
1772632620565637400,5.983637451171875,0.0276069688498973,-0.052542672663927,0.1514800167560577,-0.0143834007903933,-0.0269632674753665,-0.0079562505707144,standing,2026-03-04_13-56-54
1772632620575586300,5.99358642578125,0.0275011703878641,-0.040992812384665,0.0484264695167541,-0.0023451019078493,-0.0570288971066474,-0.0051261517219245,standing,2026-03-04_13-56-54
1772632620585536000,6.003535888671875,-0.0375929773459211,-0.0343462139770388,-0.065884969317913,0.0067791542969644,-0.0657504796981811,-0.0074260579422116,standing,2026-03-04_13-56-54
1772632620595485000,6.01348486328125,-0.063116198724322,-0.012239888370037,-0.1666968751102686,0.008960603736341,-0.0507815182209014,-0.0087516382336616,standing,2026-03-04_13-56-54
1772632620605433000,6.02343310546875,-0.0751355031462386,-0.0088161975316703,-0.2119353622406721,0.0046388264745473,-0.0259741712361574,-0.0102778961881995,standing,2026-03-04_13-56-54
1772632620615382000,6.033382080078125,-0.1032257254684343,0.0111665600501,-0.246464239308238,7.72406347095e-05,0.0025015433784574,-0.0097356485202908,standing,2026-03-04_13-56-54
1772632620625331000,6.0433310546875,-0.0920331907268613,0.0169045191802084,-0.3004308072954416,0.0021822028793394,0.0408851504325866,-0.0050663286820054,standing,2026-03-04_13-56-54
1772632620635280000,6.05327978515625,-0.0635371640827506,0.037874388103187,-0.2509703185558319,0.0121568068861961,0.0651683881878852,0.0004860959015786,standing,2026-03-04_13-56-54
1772632620645228800,6.063228759765625,-0.0330550781879574,0.0364098685085773,-0.2131798093438148,0.0350589267909526,0.0650120601058006,0.0045234477147459,standing,2026-03-04_13-56-54
1772632620655177000,6.073177001953125,0.0047482174403965,0.043508594597876,-0.1071960538715124,0.0584104023873806,0.0607922859489917,0.0088274115696549,standing,2026-03-04_13-56-54
1772632620665126000,6.0831259765625,0.001565130424872,0.0480900771692395,0.0783604200094938,0.0709432363510131,0.0405179038643837,0.0083299335092306,standing,2026-03-04_13-56-54
1772632620675075000,6.093074951171875,0.0351542424242943,0.0114903851769864,0.2550251469045877,0.0661272406578064,0.0051906695589423,0.0043650181032717,standing,2026-03-04_13-56-54
1772632620685024000,6.10302392578125,0.0659993164125829,-0.01222498306185,0.361563029128313,0.0475338511168956,-0.0195956379175186,-0.0002835292834788,standing,2026-03-04_13-56-54
1772632620694972200,6.11297216796875,0.0588851004932075,0.0085411799825727,0.367344535139203,0.0195057746022939,-0.025442874059081,0.0003221572842448,standing,2026-03-04_13-56-54
1772632620704921000,6.122921142578125,-0.0084574472218751,0.0499170003354549,0.3750526252985,-0.0089948419481515,-0.0361343994736671,-0.0063818180933594,standing,2026-03-04_13-56-54
1772632620714870000,6.1328701171875,0.0065177113309502,0.047066140948981,0.2579886728852987,-0.0345362238585948,-0.0483676269650459,-0.0117031782865524,standing,2026-03-04_13-56-54
1772632620724819000,6.14281884765625,0.0677505805267021,0.0979535937517881,0.0282820916324853,-0.039301685988903,-0.0191266518086195,-0.0009996673325076,standing,2026-03-04_13-56-54
1772632620734767900,6.152767822265625,0.0330586949171498,0.2109478125080466,-0.1645996105700731,-0.0269540380686521,0.0336878262460231,0.0168940275907516,standing,2026-03-04_13-56-54
1772632620744716000,6.162716064453125,-0.01297565529868,0.2219884080909192,-0.1645920117855072,-0.0098512172698974,0.0575915612280368,0.0212805196642875,standing,2026-03-04_13-56-54
1772632620754665000,6.1726650390625,0.0458990699309855,0.13366495860219,-0.0726274293154478,0.0015058047138154,0.036719299852848,0.0231351610273122,standing,2026-03-04_13-56-54
1772632620764614000,6.18261376953125,0.1390438386289402,0.0528742427058517,-0.0105675712436437,0.0107586914673447,0.0050473902374506,0.0329462438821792,standing,2026-03-04_13-56-54
1772632620774562800,6.192562744140625,0.0971888199243694,0.0593120206683874,0.0239630593895912,0.0164061784744262,-0.0054474570788443,0.0367266461253166,standing,2026-03-04_13-56-54
1772632620784512000,6.202511962890625,-0.0189948425229638,0.0474460801772773,0.0631090748637914,0.0171971376985311,-0.0133796818554401,0.0303457118570804,standing,2026-03-04_13-56-54
1772632620794460200,6.212460205078125,-0.0134918246598914,-0.0034926644213497,0.1167681843370199,0.0053973789326846,-0.0275563523173332,0.0261776130646467,standing,2026-03-04_13-56-54
1772632620804409000,6.2224091796875,0.0232997366426512,-0.0229375157341361,0.1163888296306133,-0.012177619151771,-0.0303406864404678,0.0301491860300302,standing,2026-03-04_13-56-54
1772632620814358000,6.23235791015625,-0.0154651705594733,0.0094565412618219,0.0295499196112155,-0.0200396627187728,-0.0225918218493461,0.0360760763287544,standing,2026-03-04_13-56-54
1772632620824307000,6.242306884765625,-0.0498510589597746,0.0519840158678591,-0.0915916575044393,-0.014991108328104,-0.0062136477790772,0.0391698703169822,standing,2026-03-04_13-56-54
1772632620834256000,6.252255859375,-0.0303661313649266,0.0291954070851206,-0.1816974603652954,-0.0014247647486627,0.0146258566528558,0.0455363243818283,standing,2026-03-04_13-56-54
1772632620844204000,6.2622041015625,-0.048975737429969,0.0150108143880963,-0.2107961290776729,0.0151193235069513,0.0268811918795108,0.0448907762765884,standing,2026-03-04_13-56-54
1772632620854153000,6.272153076171875,-0.0973657473938539,-0.0310968567922711,-0.1486976925611496,0.0269025955349206,0.0288298223167657,0.0407313257455825,standing,2026-03-04_13-56-54
1772632620864102000,6.282101806640625,-0.1124336987966671,-0.0746772014521062,-0.058576107609272,0.0326742008328437,0.0195577628910541,0.0299039762467145,standing,2026-03-04_13-56-54
1772632620874050800,6.29205078125,-0.1249451706496998,-0.1044680902123451,0.0582195492565631,0.032136745750904,0.0013940716162323,0.0190932527184486,standing,2026-03-04_13-56-54
1772632620883999000,6.3019990234375,-0.0933547216542065,-0.0858018220566213,0.0913426511794328,0.0262096151709556,-0.0073608038946986,0.0167861562222242,standing,2026-03-04_13-56-54
1772632620893948000,6.311947998046875,-0.1080487251780927,-0.0423497799515724,0.1064396825462579,0.0243189800530672,-0.0040485011413693,0.016737014055252,standing,2026-03-04_13-56-54
1772632620903897000,6.32189697265625,-0.1248344037516042,-0.0380051748760044,0.1164028581559658,0.014864757657051,-0.0109474193304777,0.0123542491346597,standing,2026-03-04_13-56-54
1772632620913846000,6.331845947265625,-0.1072736491523683,-0.0399516327686607,0.0864116245180368,0.007922887802124,-0.0197482369840145,0.0114674866199493,standing,2026-03-04_13-56-54
1772632620923795000,6.341794921875,-0.1377773988896981,-0.0432673331879079,0.029867899519205,0.0075409905984997,-0.0166722852736711,0.0056189186871051,standing,2026-03-04_13-56-54
1772632620933743000,6.3517431640625,-0.1826889921532943,-0.0203086285352706,-0.0165998371452093,0.0130067206919193,-0.0044266693294048,-0.0076995780691504,standing,2026-03-04_13-56-54
1772632620943692000,6.361692138671875,-0.1548596127243712,-0.0065115738511085,-0.0431330392837524,0.0141297755762934,0.0024461506400257,-0.0122671658173203,standing,2026-03-04_13-56-54
1772632620953641000,6.371640869140625,-0.1076271752977743,-0.0175672208726406,0.0006306991189718,0.0151499584317207,0.0049176961183547,-0.0148913748562335,standing,2026-03-04_13-56-54
1772632620963590000,6.38158984375,-0.0534849219501018,-0.0187862412735819,0.0243260474830865,0.0141547350212931,0.0119833284988999,-0.0160658285021781,standing,2026-03-04_13-56-54
1772632620973538000,6.3915380859375,-0.0387862422510981,-0.0115608200646936,0.0619523060441017,0.0093444101512432,0.0118777332827448,-0.0159560777246952,standing,2026-03-04_13-56-54
1772632620983487000,6.401487060546875,-0.0182866942536085,0.0046790977269411,0.093667879256606,0.0060250456444919,0.0076587535440921,-0.0168474372476339,standing,2026-03-04_13-56-54
1772632620993436000,6.411435791015625,-0.0062713353544473,0.0048331192448735,0.1019341878205537,0.003935944288969,0.0067812437191605,-0.0165676791220903,standing,2026-03-04_13-56-54
1772632621003385000,6.421385009765625,0.0257601719394326,0.0279161809295415,0.1047112513184547,0.0041689705103635,-0.0034479582682251,-0.0133314067497849,standing,2026-03-04_13-56-54
1772632621013334000,6.431333984375,0.0695067765442654,0.0622176789820194,0.1113268700659275,0.0007524513639509,-0.0193544868379831,-0.0103550162166357,standing,2026-03-04_13-56-54
1772632621023282200,6.4412822265625,0.0567884204749017,0.06738733670488,0.1137315931200981,-0.0029000742360949,-0.0282124262303113,-0.004802324809134,standing,2026-03-04_13-56-54
1772632621033231000,6.451231201171875,0.0523128459634259,0.0797412068434059,0.0875923587352037,-0.0058189653791487,-0.0174378063529729,0.0005595858674496,standing,2026-03-04_13-56-54
1772632621043180000,6.461179931640625,0.0479213330062106,0.1018744204573333,0.066675827434659,-0.0101878810673952,-0.0102502014487981,0.0026243345346301,standing,2026-03-04_13-56-54
1772632621053129000,6.47112890625,0.0698041520556435,0.096768621750921,0.0712456195682287,-0.0162366274744272,-0.007724062539637,0.0066925650462508,standing,2026-03-04_13-56-54
1772632621063078000,6.481077880859375,0.113128183866851,0.09660261753425,0.0649684389948844,-0.018759174272418,-0.0157388448715209,0.0122543107718229,standing,2026-03-04_13-56-54
1772632621073026000,6.491026123046875,0.1283812095129862,0.1060546287514269,0.0688134239852428,-0.0225706212222576,-0.0275299921631813,0.0192630495876073,standing,2026-03-04_13-56-54
1772632621082975000,6.50097509765625,0.0945742169791832,0.0900472045414149,0.0229249485135078,-0.0216180086135864,-0.0421579368412494,0.0209597498178482,standing,2026-03-04_13-56-54
1772632621092924000,6.510923828125,0.0622923881860449,0.0688673461295664,-0.0481932452827692,-0.0200793948024511,-0.056244857609272,0.0212387647479772,standing,2026-03-04_13-56-54
1772632621102872800,6.520872802734375,0.0483936632256954,0.0589566313594579,-0.1254565177053213,-0.0171358026564121,-0.0485597737133502,0.020140478387475,standing,2026-03-04_13-56-54
1772632621112820700,6.53082080078125,0.0315239596305415,0.0767892251700162,-0.220874455499649,-0.0070037203840911,-0.0164196845144033,0.0275029391050338,standing,2026-03-04_13-56-54
1772632621122770000,6.54077001953125,0.0443076360210776,0.1084793716803193,-0.2395475917875766,0.0050569372251629,0.0133209004998207,0.0372341275215148,standing,2026-03-04_13-56-54
1772632621132719000,6.550718994140625,0.0291163504995405,0.0879914410553872,-0.1998386817336082,0.0151961296796798,0.030319994315505,0.0472810044884681,standing,2026-03-04_13-56-54
1772632621142668000,6.56066796875,0.0186318909620866,0.0400618151448667,-0.0810106422573328,0.0258327946066856,0.0225488897413015,0.0501396432518959,standing,2026-03-04_13-56-54
1772632621152617000,6.570616943359375,0.0174844744926318,-0.0170998956218361,0.0246551333069801,0.026376761496067,0.0019195121712982,0.049474511295557,standing,2026-03-04_13-56-54
1772632621162565000,6.580565185546875,-0.0340332025051116,-0.0620320932820439,0.0857908622711896,0.0271786414086818,-0.0097864121198654,0.0460305102169513,standing,2026-03-04_13-56-54
1772632621172514000,6.59051416015625,-0.084905859597586,-0.0926173472903668,0.1078162315964698,0.0213484168052673,-0.0186006799340248,0.0367933474481105,standing,2026-03-04_13-56-54
1772632621182463000,6.600462890625,-0.0911303601356223,-0.0973990286089479,0.1260696811676025,0.0134385600686073,-0.0197381153702735,0.0275748167186975,standing,2026-03-04_13-56-54
