time,seconds_elapsed,acc_x,acc_y,acc_z,gyr_x,gyr_y,gyr_z,activity,session
1772632338047171600,0.070171630859375,0.0340945042382925,0.0951456967242062,-0.1344745214194059,-0.0064270496368408,0.0383876152336597,-0.0049961768090724,standing,2026-03-04_13-52-17
1772632338057119500,0.080119384765625,0.0306482362419366,0.1071339484207332,-0.1364998897671699,0.0062979320064187,0.0350655503571033,0.003246002132073,standing,2026-03-04_13-52-17
1772632338067068700,0.090068603515625,0.0333694048341363,0.0793374483481049,-0.096120533105731,0.0243930462747812,0.028049187734723,0.0035924792755395,standing,2026-03-04_13-52-17
1772632338077016600,0.1000166015625,0.0032712036903947,0.0447448583945631,-0.0403396091729402,0.0345610901713371,0.0167701467871665,0.0009845099411904,standing,2026-03-04_13-52-17
1772632338086965500,0.109965576171875,-0.0297949804134666,0.0339386560894548,0.0507610499441623,0.035421822220087,-0.0050342190079391,-0.0017918355297297,standing,2026-03-04_13-52-17
1772632338096913700,0.11991357421875,-0.0154782127041369,0.014359510872513,0.1462526374965906,0.0270288288593292,-0.0214591827243566,-0.0079147964715957,standing,2026-03-04_13-52-17
1772632338106861600,0.129861572265625,-0.0164690503723919,-0.0216381235733628,0.1684831740051507,0.0161801762878894,-0.0189225226640701,-0.0098658287897706,standing,2026-03-04_13-52-17
1772632338116810500,0.139810546875,-0.0436259373672306,-0.0133814596205949,0.1697650305092334,0.0021396647207438,-0.0068335747346282,-0.0142123438417911,standing,2026-03-04_13-52-17
1772632338126758700,0.149758544921875,-0.0617968962866812,-0.0092674484305083,0.1552028366714715,-0.0069987056776881,-0.011113541200757,-0.0178265199065208,standing,2026-03-04_13-52-17
1772632338136707600,0.15970751953125,-0.0655182548973709,-0.0035424949124455,0.1014168859481811,-0.0122400000691413,-0.0040573310106992,-0.021701006218791,standing,2026-03-04_13-52-17
1772632338146655500,0.169655517578125,-0.0620589082237333,0.0176296185843646,0.044510172855854,-0.0186249297112226,0.0088922902941703,-0.0179054699838161,standing,2026-03-04_13-52-17
1772632338156604400,0.1796044921875,-0.0621209406092762,0.0510983190745115,0.0147089088320732,-0.0176548603922128,0.0030494274105876,-0.0194091349840164,standing,2026-03-04_13-52-17
1772632338166552600,0.189552490234375,-0.0764501294087618,0.0503441397063434,-0.007336918759346,-0.0101245064288377,-0.0077150696888566,-0.0235828403383493,standing,2026-03-04_13-52-17
1772632338176501500,0.19950146484375,-0.0388237247172743,0.0428219275079667,-0.0444400302290916,-0.0011862711980938,-0.0112285437062382,-0.0182804483920335,standing,2026-03-04_13-52-17
1772632338186449400,0.209449462890625,0.0123638800758868,0.0737391899496316,-0.0646247401237487,0.0043749418109655,-0.0029903210233896,-0.0085937324911355,standing,2026-03-04_13-52-17
1772632338196398600,0.219398681640625,0.0247810247089713,0.1021200657814741,-0.0566594603329896,0.0063938423991203,0.0067816278897225,-0.0050478987395763,standing,2026-03-04_13-52-17
1772632338206346500,0.229346435546875,-0.0070616820145398,0.0889523950420319,-0.0165606741786003,0.0074039790779352,0.0069603263400495,-0.0041693216189742,standing,2026-03-04_13-52-17
1772632338216295400,0.23929541015625,-0.0146529408611357,0.0720649731270968,0.0180348383843898,0.0037270826287567,0.0045381458476185,-0.0027669400442391,standing,2026-03-04_13-52-17
1772632338226243600,0.24924365234375,-0.0025762071635574,0.0611433277487754,0.0303834478259086,-0.0002974863164126,0.0113076353445649,0.0023742923513054,standing,2026-03-04_13-52-17
1772632338236192500,0.259192626953125,-0.0186283472981303,0.0568982375249266,0.0349801279664039,-0.0024794545024633,0.0128649855032563,0.0031744926236569,standing,2026-03-04_13-52-17
1772632338246140400,0.269140380859375,-0.0689829353332519,0.0409326066300272,0.0512906267762184,-0.0032608257606625,0.0086731705814599,-0.0030634293798357,standing,2026-03-04_13-52-17
1772632338256089300,0.27908935546875,-0.0732827514190226,0.0065475219473242,0.0504910008311271,0.0030276365578174,0.0122076589614152,-0.0071287220343947,standing,2026-03-04_13-52-17
1772632338266037500,0.28903759765625,-0.0378600673168897,0.0153515906497836,0.020056115078926,0.0111076664179563,0.0173635389655828,-0.0018530000234022,standing,2026-03-04_13-52-17
1772632338275986400,0.298986328125,-0.0145396897450089,0.00999167105183,0.0306353767603635,0.0182274170219898,0.0121942125260829,-0.0035759066231548,standing,2026-03-04_13-52-17
1772632338285934300,0.308934326171875,0.000861950591579,-0.0136113228537142,0.0677215370953083,0.0182953290641307,-0.0039107208140194,-0.0031729703769087,standing,2026-03-04_13-52-17
1772632338295883800,0.3188837890625,0.0297498991627246,-0.0370801689855754,0.1236602819383144,0.0130526181310415,-0.0216110367327928,0.0002835527993738,standing,2026-03-04_13-52-17
1772632338305831700,0.328831787109375,0.0469333814147859,-0.0712961807116866,0.1950233904063701,-0.0018142126500606,-0.0447919853031635,-0.0097349928691983,standing,2026-03-04_13-52-17
1772632338315780600,0.338780517578125,-0.0413609150446951,-0.0912589184187352,0.2249906586468219,-0.0262533538043499,-0.0673851892352104,-0.0248689893633127,standing,2026-03-04_13-52-17
1772632338325728800,0.348728759765625,-0.1036401880208402,-0.1169413489468395,0.1425134509682655,-0.0430224798619747,-0.053200926631689,-0.0391339436173439,standing,2026-03-04_13-52-17
1772632338335677700,0.358677734375,-0.1292887893445789,-0.0900394596263766,-0.0569026214390993,-0.0435970984399318,-0.0116571653634309,-0.0364541299641132,standing,2026-03-04_13-52-17
1772632338345625600,0.36862548828125,-0.1384718474272638,0.0184939803287386,-0.2256856551736593,-0.0331844054162502,0.021525289863348,-0.0268949810415506,standing,2026-03-04_13-52-17
1772632338355574500,0.378574462890625,-0.0642894437547773,0.1064887823849916,-0.3068050185024738,-0.007642684970051,0.039966195821762,-0.0057484628632664,standing,2026-03-04_13-52-17
1772632338365522700,0.388522705078125,0.0359534299779683,0.1424247497715056,-0.3358236077159643,0.0208179857581853,0.0517426915466785,0.0209651719778776,standing,2026-03-04_13-52-17
1772632338375471600,0.3984716796875,0.0498662930615246,0.1466289234630763,-0.2762830389887094,0.0477590523660182,0.0406865812838077,0.0319592356681823,standing,2026-03-04_13-52-17
1772632338385419500,0.40841943359375,-0.0292840352166444,0.069711103477329,-0.1167763676434755,0.0608817785978317,-0.0018076167907565,0.0162543077021837,standing,2026-03-04_13-52-17
1772632338395368700,0.41836865234375,-0.1406223034594207,-0.0671077891111373,0.0352595294296741,0.0583064369857311,-0.0316105373203754,-0.0065294541418552,standing,2026-03-04_13-52-17
1772632338405316600,0.428316650390625,-0.1458880419678986,-0.1419682381756603,0.1112239942133426,0.0468923971056938,-0.0314776450395584,-0.0224192030727863,standing,2026-03-04_13-52-17
1772632338415265500,0.438265625,-0.1285751611825078,-0.0957492155753076,0.1044230820268392,0.0311775840818882,-0.0050898208282887,-0.0274061448872089,standing,2026-03-04_13-52-17
1772632338425213700,0.448213623046875,-0.1044018931083381,-0.0187193135172128,0.1003191538393497,0.0113695245236158,0.0129230013117194,-0.0243736021220684,standing,2026-03-04_13-52-17
1772632338435162600,0.45816259765625,-0.0185288324464112,0.0074137833878397,0.1387701727867126,-0.0061823474243283,0.0215141046792268,-0.0123938024044036,standing,2026-03-04_13-52-17
1772632338445110500,0.468110595703125,0.0548443737350404,0.0301516848966479,0.1894482206225395,-0.0205546282231807,0.0128255411982536,-0.0007587189320474,standing,2026-03-04_13-52-17
1772632338455059700,0.478059814453125,0.0291171542171388,0.0348546018905937,0.2112503025859594,-0.0256287753582,-0.0126723907887935,-0.0052075176499783,standing,2026-03-04_13-52-17
1772632338465007600,0.488007568359375,-0.0134326783511787,-0.0059025020420551,0.1827782413393258,-0.0231525693088769,-0.0286540202796459,-0.0132747655734419,standing,2026-03-04_13-52-17
1772632338474956800,0.497956787109375,-0.0260641963873058,-0.0334713308386504,0.0995095910221338,-0.0143657904118299,-0.0302544496953487,-0.0226852037012577,standing,2026-03-04_13-52-17
1772632338484904700,0.50790478515625,-0.0308816796716302,0.002290156763792,-0.0445130954653024,0.0031322427093982,-0.010340129956603,-0.0218380521982908,standing,2026-03-04_13-52-17
1772632338494852600,0.5178525390625,-0.0163686587378382,0.0708192108497023,-0.1677420002490282,0.0229990929365158,0.0111560896039009,-0.0099429283291101,standing,2026-03-04_13-52-17
1772632338504801800,0.5278017578125,0.0467431926049292,0.1458712369635701,-0.1674006394654512,0.0317507721483707,0.008689203299582,0.0047750305384397,standing,2026-03-04_13-52-17
1772632338514749700,0.537749755859375,0.1410258427590131,0.142203800497204,-0.0621411066144704,0.0309723950922489,-0.0109103135764598,0.0228500571101903,standing,2026-03-04_13-52-17
1772632338524698600,0.54769873046875,0.1490978708598762,0.1010731870770454,0.0584632948845624,0.0209272187203168,-0.0318683236837387,0.0279928874224424,standing,2026-03-04_13-52-17
1772632338534646800,0.557646728515625,0.0602752396773546,0.0322046719036996,0.1165402208000421,0.0107142524793744,-0.045528095215559,0.0206247251480817,standing,2026-03-04_13-52-17
1772632338544595700,0.567595703125,-0.0098881376121193,-0.016449322758615,0.0668979457527399,0.0016198232769966,-0.0427442900836467,0.0069256918504834,standing,2026-03-04_13-52-17
1772632338554543600,0.577543701171875,-0.0393654303785413,-0.0095887893393635,-0.0219411981731653,0.0016199895180761,-0.0169754028320312,0.0074976813048124,standing,2026-03-04_13-52-17
1772632338564492800,0.587492919921875,-0.02922222202681,0.0373445190101861,-0.1102618711829185,0.0023470325395464,0.0179178677499294,0.017270416021347,standing,2026-03-04_13-52-17
1772632338574440700,0.597440673828125,0.0027994945254176,0.1065996954135596,-0.1479360605388879,0.0068182246759533,0.0358301699161529,0.0313761085271835,standing,2026-03-04_13-52-17
1772632338584389600,0.6073896484375,0.0508005051717162,0.1071769107796251,-0.0887111336320638,0.0092611424624919,0.0280393566936254,0.0426266342401504,standing,2026-03-04_13-52-17
1772632338594337800,0.617337890625,0.0597057692263275,0.0379448229908943,0.023381460109353,0.0117331221699714,0.0041152238845825,0.0392429940402507,standing,2026-03-04_13-52-17
1772632338604286700,0.62728662109375,0.0131651865214109,-0.0219523040890693,0.1007394250780343,0.0127919949591159,-0.0165101587772369,0.0316505879163742,standing,2026-03-04_13-52-17
1772632338614234600,0.637234619140625,-0.0037269846338778,-0.055935237711668,0.132980483469367,0.0134837739169597,-0.0279652196913957,0.0263183563947677,standing,2026-03-04_13-52-17
1772632338624183600,0.64718359375,-0.0234885737456381,-0.0717296036928892,0.1304635322123765,0.0087372222915291,-0.0353427082300186,0.0216626171022653,standing,2026-03-04_13-52-17
1772632338634131700,0.657131591796875,-0.041487390968576,-0.0473503647178411,0.1176829610943794,0.0060287788510322,-0.0288974028080701,0.0210256725549697,standing,2026-03-04_13-52-17
1772632338644080600,0.66708056640625,-0.016661431139335,-0.025208237145096,0.1299456458181142,-0.0024746945127844,-0.0221902318298816,0.0277261864393949,standing,2026-03-04_13-52-17
1772632338654028500,0.677028564453125,0.0111470516320317,0.002579202838242,0.1150946981668472,-0.0080116633325815,-0.0302190519869327,0.0293290596455335,standing,2026-03-04_13-52-17
1772632338663977700,0.686977783203125,-0.0081162325687706,0.0021072014123201,0.0984323171794414,-0.0137198828160762,-0.0303034745156765,0.0257761366665363,standing,2026-03-04_13-52-17
1772632338673925600,0.696925537109375,-0.0617510113183409,0.0003923603184521,0.0314829335004091,-0.0153339356184005,-0.012892747297883,0.0249541569501161,standing,2026-03-04_13-52-17
1772632338683874600,0.70687451171875,-0.0781782683756202,0.006421995871514,-0.0201157363116741,-0.0194008499383926,-0.0037554411683231,0.0209703352302312,standing,2026-03-04_13-52-17
1772632338693822700,0.71682275390625,-0.0771039902076125,0.0233287070088088,-0.0380219798803329,-0.0170738585293293,-0.0091772694140672,0.0184966437518596,standing,2026-03-04_13-52-17
1772632338703771600,0.726771728515625,-0.0470721322983503,0.0167743169292807,-0.0678454557359218,-0.0079517336562275,-0.004391302820295,0.0221542306244373,standing,2026-03-04_13-52-17
1772632338713719600,0.736719482421875,-0.0079565119624137,0.0363493704929947,-0.0938069954663515,-0.0001882859505712,-0.0001134497579187,0.0301960632205009,standing,2026-03-04_13-52-17
1772632338723668500,0.74666845703125,-0.0246060334682464,0.0771491445235908,-0.0616629677087068,0.0069258166477084,-0.012702478095889,0.0303590483963489,standing,2026-03-04_13-52-17
1772632338733616600,0.75661669921875,-0.031520342901349,0.0548275687307119,-0.02711713950634,0.0095112472772598,-0.0250402633100748,0.028488615527749,standing,2026-03-04_13-52-17
1772632338743565600,0.766565673828125,-0.016437559255585,0.0019468962840735,-0.0235930570334196,0.0122127570211887,-0.01148690469563,0.0289626587182283,standing,2026-03-04_13-52-17
1772632338753513500,0.776513427734375,-0.0408190632529556,0.0239500537775456,-0.0034381577551364,0.0117056295275688,0.0090754143893718,0.0275279395282268,standing,2026-03-04_13-52-17
1772632338763462700,0.786462646484375,-0.0768874979127198,0.0511516566969454,0.0117570732891559,0.0050442647188901,0.0115316482260823,0.0254349596798419,standing,2026-03-04_13-52-17
1772632338773410600,0.79641064453125,-0.0422167281564325,0.03046016632393,0.07698737809062,-0.0036139376461505,-0.0030675348825752,0.0271492376923561,standing,2026-03-04_13-52-17
1772632338783359700,0.80635986328125,0.0057519876554608,0.0108130704373121,0.1179898350864648,-0.0098641104996204,-0.0053224330767989,0.0330500043928623,standing,2026-03-04_13-52-17
1772632338793307600,0.8163076171875,-0.0080213208269327,0.0362733826473355,0.1306505792170763,-0.0109784714877605,-0.0091142887249588,0.0323300100862979,standing,2026-03-04_13-52-17
1772632338803256800,0.8262568359375,-0.0726318862948566,0.02175985025689,0.1108499002039432,-0.0057975579984486,-0.0172646269202232,0.0211846809834241,standing,2026-03-04_13-52-17
1772632338813204700,0.836204833984375,-0.0939426045447587,-0.0344407603926956,0.0702940179318189,-0.0023642857559025,-0.0064469617791473,0.0185278411954641,standing,2026-03-04_13-52-17
1772632338823153700,0.846153564453125,-0.068797568828985,-0.0285613469652831,0.046328620454669,0.002278403379023,0.0087130833417177,0.0196980349719524,standing,2026-03-04_13-52-17
1772632338833101800,0.856101806640625,-0.0460164857655763,-0.0021101240217685,0.0819569831967353,-0.0074793989770114,-0.0008399835787713,0.0161245167255401,standing,2026-03-04_13-52-17
1772632338843050800,0.86605078125,-0.0101854400582611,-0.0083379124954342,0.1710486405789852,-0.0221821777522563,-0.0360967740416526,0.0176891237497329,standing,2026-03-04_13-52-17
1772632338852998700,0.87599853515625,0.0074410367209464,-0.0585096182443201,0.237935480415821,-0.0415619611740112,-0.0734051540493965,0.0116553716361522,standing,2026-03-04_13-52-17
1772632338862947600,0.885947509765625,-0.0343485520645976,-0.0697717476233839,0.1724912406027317,-0.0511602610349655,-0.0847142711281776,0.0017167208716273,standing,2026-03-04_13-52-17
1772632338872895700,0.895895751953125,-0.0823966897882521,-0.0424940107278525,0.0156365450710058,-0.0493317730724811,-0.0638836622238159,-0.0011346315732225,standing,2026-03-04_13-52-17
1772632338882843600,0.90584375,-0.0819740804620087,-0.0090311554566025,-0.2034948661535978,-0.0359469912946224,-0.0162080209702253,0.0057539008557796,standing,2026-03-04_13-52-17
1772632338892792600,0.91579248046875,-0.0816270936552435,0.0670775401033461,-0.3701479021221399,-0.0125527651980519,0.0394498519599437,0.0203205123543739,standing,2026-03-04_13-52-17
1772632338902740700,0.92574072265625,-0.0505741856025531,0.1244708676688373,-0.4291431119263172,0.0130711058154702,0.064858004450798,0.0366518162190914,standing,2026-03-04_13-52-17
1772632338912689700,0.935689697265625,-0.0164526106942445,0.1214002280518412,-0.3193091107666492,0.0313701294362545,0.0518925040960311,0.0472084358334541,standing,2026-03-04_13-52-17
1772632338922637800,0.945637939453125,0.02047543646954,0.0442617510527372,-0.1184568680763244,0.0429183952510356,0.0221652351319789,0.0474806129932403,standing,2026-03-04_13-52-17
1772632338932586800,0.955586669921875,-0.0240435042146593,-0.0258089795172214,0.0424228451877832,0.0391461923718452,-0.0128673994913697,0.0322638787329196,standing,2026-03-04_13-52-17
1772632338942534700,0.96553466796875,-0.0898882145874202,-0.1003124318376183,0.1757090336054563,0.020246535539627,-0.0367700681090354,0.0054066982120275,standing,2026-03-04_13-52-17
1772632338952483600,0.975483642578125,-0.1240965544637292,-0.1549484235189855,0.2249123327136039,-0.0052117318846285,-0.0334267169237136,-0.0083885360509157,standing,2026-03-04_13-52-17
1772632338962431700,0.985431640625,-0.1104860353276133,-0.1234384558811783,0.1910913116544485,-0.0292853750288486,-0.0095986165106296,-0.0102346390485763,standing,2026-03-04_13-52-17
1772632338972380700,0.995380615234375,-0.0294270238839089,-0.0293349616862833,0.1379839908450841,-0.0447581596672534,0.0078923972323536,0.0018930593505501,standing,2026-03-04_13-52-17
1772632338982328600,1.00532861328125,0.0388188658790662,0.0455275332048535,0.1034007532417774,-0.047327846288681,0.0063272574916481,0.0170600265264511,standing,2026-03-04_13-52-17
1772632338992277500,1.015277587890625,0.0739792823158204,0.0791883952662348,0.0241208802998065,-0.0314668901264667,0.0062113031744956,0.0227600876241922,standing,2026-03-04_13-52-17
1772632339002225700,1.0252255859375,0.0002635828396305,0.0712191699527204,-0.055476388028264,-0.0086097763851284,-0.0002188994549214,0.0110331233590841,standing,2026-03-04_13-52-17
1772632339012174600,1.035174560546875,-0.0936387992925942,0.0330595351673662,-0.0930558848381042,0.0092484708875417,0.0002335661556571,0.0008004091214388,standing,2026-03-04_13-52-17
1772632339022122500,1.04512255859375,-0.092841621032916,7.4526540935e-06,-0.061873395588994,0.0165367424488067,0.0004649949260056,-0.0021604935172945,standing,2026-03-04_13-52-17
1772632339032071700,1.05507177734375,-0.0480662213696166,0.0517401241093873,0.000990180081129,0.0138356983661651,0.0020564817823469,0.0073721394874155,standing,2026-03-04_13-52-17
1772632339042019600,1.06501953125,0.0481302630491554,0.0916208835989236,0.0649801294326782,0.003826739732176,0.0070254076272249,0.0248973369598388,standing,2026-03-04_13-52-17
1772632339051968500,1.074968505859375,0.0851970245638862,0.1257996320545673,0.1205015256464481,-0.0082218181341886,-0.0005628082435578,0.0394865348935127,standing,2026-03-04_13-52-17
1772632339061916700,1.084916748046875,0.0537651271309703,0.1066258527681231,0.1687526385962963,-0.0121334679424762,-0.0117619335651397,0.0399608463048934,standing,2026-03-04_13-52-17
1772632339071865600,1.094865478515625,0.0048140126856043,0.0468992599494755,0.1542892289578914,-0.0157623402774333,-0.0208757147192955,0.0332694016396999,standing,2026-03-04_13-52-17
1772632339081813500,1.1048134765625,-0.0707272947825491,0.0004139876283705,0.1395861653447151,-0.017582343891263,-0.019926831126213,0.0233264919370412,standing,2026-03-04_13-52-17
1772632339091762400,1.114762451171875,-0.1257437006162479,-0.0091172263048589,0.0928407807826995,-0.0185349937528371,-0.013335564173758,0.0145503366366028,standing,2026-03-04_13-52-17
1772632339101710600,1.124710693359375,-0.1373090872582048,-0.0111596919178962,0.1052279686689376,-0.0231606382876634,-0.0131787043064832,0.0115556111559271,standing,2026-03-04_13-52-17
1772632339111659800,1.13465966796875,-0.1071968941217288,-0.0026744799062609,0.1280377663701772,-0.027095977216959,-0.0148399546742439,0.0134136844426393,standing,2026-03-04_13-52-17
1772632339121607400,1.144607421875,-0.0556802035046741,0.0082844287425279,0.1175175413995981,-0.0237726178020238,-0.0187137890607118,0.022514771670103,standing,2026-03-04_13-52-17
1772632339131556900,1.154556884765625,-0.0029318887334316,0.0225726279444992,0.0615776275128126,-0.0174673218280076,-0.0257371142506599,0.0291459523141384,standing,2026-03-04_13-52-17
1772632339141504800,1.1645048828125,0.019433307005465,0.0353127209216356,0.028017887738347,-0.011363623663783,-0.0337497666478157,0.0317396037280559,standing,2026-03-04_13-52-17
1772632339151453700,1.17445361328125,0.0272225726421922,0.0173982940465211,0.0096726682305336,-0.0077060121111571,-0.03597317263484,0.0314938724040985,standing,2026-03-04_13-52-17
1772632339161401900,1.18440185546875,0.0224037376509979,0.0049212359197437,-0.0119587333410978,-0.01135347597301,-0.0376863852143287,0.0246364995837211,standing,2026-03-04_13-52-17
1772632339171350800,1.194350830078125,-0.0195571891134604,-0.0177637663580477,-0.002388940963149,-0.0204790215939283,-0.030986949801445,0.0129389958456158,standing,2026-03-04_13-52-17
1772632339181298700,1.204298583984375,-0.0387568334935232,0.0009779051214456,-0.0363946709394454,-0.0297380350530147,-0.0209116786718368,0.0088659571483731,standing,2026-03-04_13-52-17
1772632339191247600,1.21424755859375,-0.0018546879559755,0.0772799312964081,-0.0595025748044252,-0.0409793071448802,-0.0185825731605291,0.0162076894193887,standing,2026-03-04_13-52-17
1772632339201195800,1.22419580078125,0.1081624146856367,0.1502488675259053,-0.0996346787065267,-0.0370644591748714,-0.006955211982131,0.0349504835903644,standing,2026-03-04_13-52-17
1772632339211144700,1.234144775390625,0.1938721014793962,0.2213053942628204,-0.1820329759299755,-0.0271045546978712,0.0161623004823923,0.0554555207490921,standing,2026-03-04_13-52-17
1772632339221092600,1.244092529296875,0.1824224501715972,0.2741488034389913,-0.2097930895149707,-0.0184673909097909,0.0377264469861984,0.0728933662176132,standing,2026-03-04_13-52-17
1772632339231041800,1.254041748046875,0.1871840750828385,0.2896760429166257,-0.1394862121015787,-0.0103042759001255,0.0500112660229206,0.084114946424961,standing,2026-03-04_13-52-17
1772632339240989700,1.26398974609375,0.1666593561114743,0.2378231060825288,-0.0140080670863389,-0.0165280830115079,0.0396875217556953,0.087335504591465,standing,2026-03-04_13-52-17
1772632339250937600,1.2739375,0.1500028568755835,0.1762758737079799,0.1660235058933496,-0.0271369963884353,0.0212651714682579,0.0909897089004516,standing,2026-03-04_13-52-17
1772632339260886800,1.28388671875,0.1463594223393127,0.1147396011188626,0.3293219707369804,-0.0419947728514671,-0.0022079304326325,0.0909881070256233,standing,2026-03-04_13-52-17
1772632339270834700,1.293834716796875,0.1482308422343805,0.0773223091334104,0.4059457762122154,-0.059004783630371,-0.0266298819333314,0.0886802598834037,standing,2026-03-04_13-52-17
1772632339280783600,1.30378369140625,0.1146261308070272,0.0688924805708229,0.402981081187725,-0.0718646571040153,-0.0320757776498794,0.0883545503020286,standing,2026-03-04_13-52-17
1772632339290731800,1.313731689453125,0.1304175011135637,0.0569194264434278,0.3316518749892711,-0.0834441930055618,-0.0223954617977142,0.096038781106472,standing,2026-03-04_13-52-17
1772632339300680400,1.323680419921875,0.1356721702387556,0.0804097537547349,0.2866524573117494,-0.0965834334492683,-0.012181706726551,0.1078909114003181,standing,2026-03-04_13-52-17
1772632339310628400,1.33362841796875,0.1177402442395687,0.0708238870248198,0.2750619727611542,-0.1101894676685333,-0.011261448264122,0.1158121153712272,standing,2026-03-04_13-52-17
1772632339320577300,1.343577392578125,0.0860447274344042,0.0210354815050959,0.2672416543990373,-0.119619183242321,-0.0187526531517505,0.117301620543003,standing,2026-03-04_13-52-17
1772632339330525400,1.353525390625,0.0426263318706303,-0.02677197933048,0.2588169404029846,-0.1233353465795517,-0.0265081636607646,0.1202529296278953,standing,2026-03-04_13-52-17
1772632339340474400,1.363474365234375,0.0345100262366235,-0.0548977113574743,0.207737326028943,-0.1136481016874313,-0.0411486253142356,0.1254612803459167,standing,2026-03-04_13-52-17
1772632339350422300,1.37342236328125,0.0235664612874388,-0.0746250328734517,0.1054419036805629,-0.0918638631701469,-0.0526308380067348,0.1245364025235176,standing,2026-03-04_13-52-17
1772632339360371500,1.383371337890625,-0.0119135059598833,-0.0829239285327494,0.0266822552204132,-0.0745027214288711,-0.0700756087899208,0.1208063885569572,standing,2026-03-04_13-52-17
1772632339370319400,1.3933193359375,-0.0174928404621779,-0.1229287527933716,-0.0059475102275609,-0.0646694600582122,-0.0893004164099693,0.1142431795597076,standing,2026-03-04_13-52-17
1772632339380268300,1.403268310546875,-0.0559825839847326,-0.18048121644333,-0.0272100784868001,-0.0639735758304596,-0.1015640124678611,0.1020999625325203,standing,2026-03-04_13-52-17
1772632339390216400,1.413216552734375,-0.1003263872977346,-0.1956665106154978,-0.0599193389117717,-0.0767846778035163,-0.0904377475380897,0.0902890115976333,standing,2026-03-04_13-52-17
1772632339400165600,1.42316552734375,-0.1615496118823066,-0.1906722094595432,-0.1107780040115117,-0.0926416739821434,-0.0611453726887702,0.081297643482685,standing,2026-03-04_13-52-17
1772632339410113300,1.43311328125,-0.2071316152207553,-0.1578589041382074,-0.2030512140393257,-0.1030005291104316,-0.0274457447230815,0.0770423486828804,standing,2026-03-04_13-52-17
1772632339420062500,1.4430625,-0.192599779988639,-0.1184960310429334,-0.27913550581038,-0.0990215018391609,0.0050197872333228,0.0818600058555603,standing,2026-03-04_13-52-17
1772632339430010600,1.4530107421875,-0.157809219777584,-0.0623363369256258,-0.3694394615918397,-0.0787521228194236,0.0255068223923444,0.0860826075077056,standing,2026-03-04_13-52-17
1772632339439959600,1.46295947265625,-0.1385435609566047,-0.0341160584829747,-0.3931827407509088,-0.0493265911936759,0.0342901945114135,0.0865236297249794,standing,2026-03-04_13-52-17
1772632339449907500,1.472907470703125,-0.1625227312307804,-0.0558973899193108,-0.3641208969175815,-0.0189018845558166,0.0241856388747692,0.0737935528159141,standing,2026-03-04_13-52-17
1772632339459856400,1.4828564453125,-0.2055561825975775,-0.1064893669068813,-0.234863817885518,-0.0077240653336048,0.0026806143578141,0.0590649358928203,standing,2026-03-04_13-52-17
1772632339469804500,1.492804443359375,-0.1891719609644264,-0.1336211194604635,-0.0684983666867017,-0.0058109834790229,-0.0119103472679853,0.0453637391328811,standing,2026-03-04_13-52-17
1772632339479753500,1.50275341796875,-0.1539966757521033,-0.1345867496222257,0.028361002087593,-0.0144654586911201,-0.011591300368309,0.035880222916603,standing,2026-03-04_13-52-17
1772632339489701600,1.51270166015625,-0.132340724261105,-0.0952643546678125,0.0842220055192708,-0.0239339508116245,-0.0139548499137163,0.0296514015644788,standing,2026-03-04_13-52-17
1772632339499650600,1.522650634765625,-0.1095722449509426,-0.0420388143062591,0.113162853321433,-0.0358963385224342,-0.0156891010701656,0.0300562027841806,standing,2026-03-04_13-52-17
1772632339509598500,1.532598388671875,-0.0952037835869938,-0.0125914782866835,0.0883890620708465,-0.0414651632308959,-0.021250307559967,0.0285265333950519,standing,2026-03-04_13-52-17
1772632339519547400,1.54254736328125,-0.0874492239374667,0.0080620181635022,0.0245808990269899,-0.0380003899335861,-0.017361294478178,0.0217565111815929,standing,2026-03-04_13-52-17
1772632339529495600,1.55249560546875,-0.1137313373917713,0.0197300979949533,-0.0571738395959138,-0.0297613888978958,-0.0053874840959906,0.018614262342453,standing,2026-03-04_13-52-17
1772632339539444500,1.562444580078125,-0.1187928220324218,0.0407857455052435,-0.1100900217473506,-0.0190677307546138,0.0059064486995339,0.0104950824752449,standing,2026-03-04_13-52-17
1772632339549392400,1.572392333984375,-0.1102162054102867,0.0683686028271913,-0.1247661973536014,-0.0083158314228057,0.0239037293940782,0.0123967761173844,standing,2026-03-04_13-52-17
1772632339559340500,1.582340576171875,-0.0700001860843971,0.096725659392029,-0.1269867960125207,0.0036849044263362,0.0372501611709594,0.0216760281473398,standing,2026-03-04_13-52-17
1772632339569289500,1.59228955078125,-0.015046762484312,0.1426275788672268,-0.0505243185788393,0.0129100400954484,0.0291560664772987,0.0310233831405639,standing,2026-03-04_13-52-17
1772632339579237400,1.6022373046875,-0.0075233081769198,0.1301490594357252,0.0603507160663604,0.0169809479266405,0.0054137222468853,0.0337307527661323,standing,2026-03-04_13-52-17
1772632339589186300,1.612186279296875,0.0048209538830444,0.0886794233195483,0.1505202318131923,0.0153803769499063,-0.0182144474238157,0.0325511619448661,standing,2026-03-04_13-52-17
1772632339599134500,1.622134521484375,-0.0595602598084136,0.0240900467701256,0.2148918739587068,0.0022185021080076,-0.0434324517846107,0.0167546197772026,standing,2026-03-04_13-52-17
1772632339609083400,1.63208349609375,-0.1479112914238125,-0.0275089153029024,0.2396358545929193,-0.0186255611479282,-0.0527624115347862,0.0035707366187125,standing,2026-03-04_13-52-17
1772632339619031600,1.642031494140625,-0.1914001949405297,-0.0570917142704129,0.2066372558325529,-0.0399641394615173,-0.0497162863612175,-0.008550907485187,standing,2026-03-04_13-52-17
1772632339628980500,1.65198046875,-0.1943761785440146,-0.062824412703514,0.1006716205388307,-0.0517335310578346,-0.0332909524440765,-0.0149569371715188,standing,2026-03-04_13-52-17
1772632339638928400,1.661928466796875,-0.1613467097213491,-0.037066871112585,-0.0239081143319606,-0.0455115884542465,-0.0027274491731077,-0.0068888906389474,standing,2026-03-04_13-52-17
1772632339648877300,1.671877197265625,-0.1114616023615002,0.025774200464785,-0.1594078871458768,-0.0283461418002843,0.0165636800229549,-0.0013922285288572,standing,2026-03-04_13-52-17
1772632339658825500,1.681825439453125,-0.1135130915312096,0.0175482239112257,-0.1852326487541198,-0.0104779284447431,0.0139370029792189,-0.0024452423676848,standing,2026-03-04_13-52-17
1772632339668774400,1.6917744140625,-0.1243733621111139,-0.0475154921516776,-0.1569225000709295,-0.0003067511133849,-0.0045413104817271,-0.0098805325105786,standing,2026-03-04_13-52-17
1772632339678722300,1.701722412109375,-0.1628233581451699,-0.1200638648815453,-0.0892085617601871,-0.0029062628746032,-0.0222630500793457,-0.024891972541809,standing,2026-03-04_13-52-17
1772632339688671200,1.711671142578125,-0.1631448086518794,-0.1640101202443242,-0.0128226566940546,-0.0139251798391342,-0.0228973142802715,-0.0354089438915252,standing,2026-03-04_13-52-17
1772632339698619400,1.721619384765625,-0.1344182246549055,-0.167125037394464,0.0136328040331602,-0.032800868153572,-0.0124997999519109,-0.0399514995515346,standing,2026-03-04_13-52-17
1772632339708568300,1.731568359375,-0.118634526198171,-0.1432866272978484,-0.00117488899827,-0.0457154735922813,-0.0007425895892083,-0.0413320362567901,standing,2026-03-04_13-52-17
1772632339718516200,1.74151611328125,-0.09786138542369,-0.1128872512504458,-0.0247545020282268,-0.0467043034732341,0.0096882134675979,-0.0404542572796344,standing,2026-03-04_13-52-17
1772632339728465700,1.751465576171875,-0.0877387449359521,-0.0679910016864538,-0.0906792188346385,-0.0306471902877092,0.0143917053937911,-0.0366992317140102,standing,2026-03-04_13-52-17
1772632339738413300,1.761413330078125,-0.0891930353974923,-0.0283744460910558,-0.1417909819126129,-0.0068265479058027,0.0061902347952127,-0.0377730168402195,standing,2026-03-04_13-52-17
1772632339748362500,1.771362548828125,-0.0648947161715477,0.0008750292688608,-0.1556020651221275,0.0157747454941272,-0.0106944665312767,-0.0388667285442352,standing,2026-03-04_13-52-17
1772632339758310700,1.781310546875,-0.0687379841288551,-0.0023427637338638,-0.1225070202499628,0.0323156379163265,-0.0178983174264431,-0.0447946600615978,standing,2026-03-04_13-52-17
1772632339768259600,1.791259521484375,-0.1012552656456828,0.0037859482795,-0.1065127477824687,0.0405818484723567,-0.0135368295013904,-0.0492687784135341,standing,2026-03-04_13-52-17
1772632339778207500,1.80120751953125,-0.0889492532368749,0.0515210745312273,-0.0549848051190376,0.0405733287334442,-0.0050040609203279,-0.049552671611309,standing,2026-03-04_13-52-17
1772632339788156400,1.811156494140625,-0.0591088262464851,0.0977135013855993,0.0117991588652133,0.0352415516972541,0.0030441242270171,-0.0422474034130573,standing,2026-03-04_13-52-17
1772632339798104600,1.8211044921875,-0.0105388566058129,0.1279866207048297,0.0707727413594722,0.0228282939642667,0.0043197781778872,-0.0351815037429332,standing,2026-03-04_13-52-17
1772632339808053500,1.831053466796875,0.0351592108603566,0.1507939341880381,0.1511608678042888,0.013422604650259,0.0008276340086013,-0.0267582144588232,standing,2026-03-04_13-52-17
1772632339818001400,1.84100146484375,0.0413190851969644,0.1863496700853109,0.1718219630390405,0.0057215420529246,-0.0025258183013647,-0.0238340627402067,standing,2026-03-04_13-52-17
1772632339827950600,1.85095068359375,-0.0146827149448916,0.1800515928544103,0.1745452505230903,-0.0056957453489303,-0.0074523109942674,-0.028763024136424,standing,2026-03-04_13-52-17
1772632339837898500,1.8608984375,-0.0657328474961221,0.1474440392382442,0.1903273415446281,-0.01806559599936,-0.0095210541039705,-0.0331122353672981,standing,2026-03-04_13-52-17
1772632339847847400,1.870847412109375,-0.0733871251089498,0.1394891347110271,0.1697223604112863,-0.0244836956262588,-0.0035242123994976,-0.0362398736178875,standing,2026-03-04_13-52-17
1772632339857795600,1.880795654296875,-0.0886329538293182,0.1476915842585265,0.1097656120985746,-0.0238946061581373,0.0106174396350979,-0.033767394721508,standing,2026-03-04_13-52-17
1772632339867743500,1.890743408203125,-0.0397010920736938,0.1585213135696947,0.0576145691007375,-0.0184275619685649,0.0225830972194671,-0.0225026290863752,standing,2026-03-04_13-52-17
1772632339877692400,1.9006923828125,0.0076917966116219,0.1544575712621212,0.0527817421168088,-0.0110039999708533,0.0212858729064464,-0.0123626440763473,standing,2026-03-04_13-52-17
1772632339887640600,1.910640625,0.0246332502687349,0.1197805178955197,0.0882633898645639,-0.0028166845440864,0.0097120516002178,-0.0049301926046609,standing,2026-03-04_13-52-17
1772632339897589500,1.920589599609375,0.013679894577898,0.0875569951608777,0.1401940681099891,0.0022893939167261,-0.0117042902857065,-0.0075560687109827,standing,2026-03-04_13-52-17
1772632339907537400,1.930537353515625,-0.021340163540095,0.0154959675565361,0.1868476827353239,-0.0030255182646214,-0.0342776849865913,-0.0206420253962278,standing,2026-03-04_13-52-17
1772632339917486300,1.940486328125,-0.1028023489572107,-0.0667591218039393,0.2126151611983776,-0.0158912502229213,-0.0478456951677799,-0.0354031287133693,standing,2026-03-04_13-52-17
1772632339927434500,1.9504345703125,-0.1390268509615212,-0.0962190250441431,0.2008539962559938,-0.0411025136709213,-0.0568177886307239,-0.0494901165366172,standing,2026-03-04_13-52-17
1772632339937383400,1.960383544921875,-0.1571680723298341,-0.0947435456641018,0.1515957520902156,-0.0630187317728996,-0.050146572291851,-0.056164264678955,standing,2026-03-04_13-52-17
1772632339947331300,1.970331298828125,-0.1465207503808662,-0.0692312110058963,0.0303588979065418,-0.0726478844881057,-0.0285935476422309,-0.0525224171578884,standing,2026-03-04_13-52-17
1772632339957280500,1.980280517578125,-0.1178662087067961,-0.0223358965791761,-0.134487380900979,-0.0709024518728256,-0.0036892646457999,-0.0464032739400863,standing,2026-03-04_13-52-17
1772632339967228400,1.990228515625,-0.0743521342162042,0.0205536893375217,-0.2847942622244357,-0.05113285779953,0.0229128971695899,-0.0348926000297069,standing,2026-03-04_13-52-17
1772632339977177300,2.00017724609375,-0.0605494535088539,0.0165907770559191,-0.3695569504916667,-0.0225669965147972,0.0392617769539356,-0.0278290994465351,standing,2026-03-04_13-52-17
1772632339987125500,2.01012548828125,-0.0559436036812141,0.0047425183519721,-0.3940039940059184,0.005817043595016,0.0321761891245842,-0.0258041452616453,standing,2026-03-04_13-52-17
1772632339997074400,2.020074462890625,-0.0461600954873487,-0.030465719281882,-0.3551812191367149,0.0297426171600818,0.0144232911989092,-0.0301189981400966,standing,2026-03-04_13-52-17
1772632340007022300,2.030022216796875,-0.0219132507203146,-0.0601680529758334,-0.263251123458147,0.0378052592277526,0.0145442988723516,-0.0371565483510494,standing,2026-03-04_13-52-17
1772632340016971300,2.03997119140625,-0.0282376679688692,-0.0783402540042996,-0.1669669242233037,0.0154765173792839,0.041830513626337,-0.0432517230510711,standing,2026-03-04_13-52-17
1772632340026919400,2.04991943359375,-0.0262866800315678,-0.0569523057997226,-0.0675152008682489,-0.0144123844802379,0.0424015261232852,-0.0352918170392513,standing,2026-03-04_13-52-17
1772632340036868400,2.059868408203125,0.04096475533396,0.0100008772715926,0.0506803859233856,-0.0298195704817771,0.0307379476726055,-0.035188753157854,standing,2026-03-04_13-52-17
1772632340046816300,2.069816162109375,0.106039431182295,-0.0271482652969658,0.042025954824686,-0.0314737968146801,0.0178145784884691,-0.0329170301556587,standing,2026-03-04_13-52-17
1772632340056765400,2.079765380859375,0.100085308550857,0.0302599675767123,-0.0023100305080413,-0.0160383842885494,0.0221536662429571,-0.0255304854363203,standing,2026-03-04_13-52-17
1772632340066713300,2.08971337890625,0.0877299040423706,0.0792060770533978,-0.1005085389316081,0.0053378990851342,0.0284357909113168,-0.0213688164949417,standing,2026-03-04_13-52-17
1772632340076662500,2.09966259765625,0.0660737698882818,0.1158738658457994,-0.1594143168866634,0.0312994569540023,0.031409740447998,-0.0164992250502109,standing,2026-03-04_13-52-17
1772632340086610400,2.1096103515625,0.085510620557703,0.1496111541442573,-0.1416255622178316,0.0535362958908081,0.0349434614181518,-0.0054039512760937,standing,2026-03-04_13-52-17
1772632340096559600,2.1195595703125,0.13234660601262,0.199964061678946,-0.0472989267915487,0.0624906420707702,0.0244554001837968,0.0062883915379643,standing,2026-03-04_13-52-17
1772632340106507500,2.129507568359375,0.1342734824219718,0.2116613676048815,0.1038280387431383,0.0513509176671505,0.0063638966530561,0.0180920474231243,standing,2026-03-04_13-52-17
1772632340116456400,2.13945654296875,0.1408424124835059,0.1840996992014348,0.2167944927096367,0.0360252223908901,-0.0087993443012237,0.0202787704765796,standing,2026-03-04_13-52-17
1772632340126404600,2.149404541015625,0.0868759906267747,0.1480007963381707,0.2766536258667707,0.0154299773275852,-0.0139847956597805,0.014306528493762,standing,2026-03-04_13-52-17
1772632340136353500,2.159353515625,-0.013024170615524,0.1264165949091315,0.2812906380176544,-0.0038292040117084,-0.01530865393579,0.0039079501293599,standing,2026-03-04_13-52-17
1772632340146301400,2.169301513671875,-0.0551906298894435,0.1117043250761926,0.2265893260151147,-0.0202245656400918,0.0039802426472306,0.004754080902785,standing,2026-03-04_13-52-17
1772632340156250400,2.17925048828125,-0.0260713202478364,0.1402905142217874,0.1487555602282285,-0.0269290748983621,0.026661854237318,0.0159316342324018,standing,2026-03-04_13-52-17
1772632340166198500,2.189198486328125,0.0009532456042245,0.1851766807831823,0.1092494792699813,-0.0316989906132221,0.0229200590401887,0.0242532901465892,standing,2026-03-04_13-52-17
1772632340176147500,2.1991474609375,0.0027562399055808,0.1645893814370036,0.1178828675806522,-0.032210849225521,0.0028115953318774,0.0275596044957637,standing,2026-03-04_13-52-17
1772632340186095400,2.209095458984375,0.0178157888062298,0.104408468979597,0.1008440544962882,-0.031564861536026,-0.0013014448340982,0.0358034372329711,standing,2026-03-04_13-52-17
1772632340196043500,2.21904345703125,-0.0216251910265535,0.0787136173613369,0.0365834715098142,-0.0230414159595966,0.001704731490463,0.0367283523082733,standing,2026-03-04_13-52-17
1772632340205992400,2.228992431640625,-0.0941466026842594,0.0452377564780414,-0.0012497078001499,-0.0200880002230405,-0.0065782619640231,0.0248818267136812,standing,2026-03-04_13-52-17
1772632340215940400,2.2389404296875,-0.1484737841447815,-0.0441635513752698,-0.0225087689280509,-0.0152815282344818,-0.0120779555290937,0.0166430734097957,standing,2026-03-04_13-52-17
1772632340225889500,2.2488896484375,-0.1294880017111077,-0.0976331296257674,-0.0478624058932065,-0.0106511311605572,-0.0017400853103026,0.0173635594546794,standing,2026-03-04_13-52-17
1772632340235837400,2.25883740234375,-0.1158362372491508,-0.075861004409194,-0.1083820487856864,-0.0059868711978197,0.0090803373605012,0.0137981195002794,standing,2026-03-04_13-52-17
1772632340245786400,2.268786376953125,-0.1201324366057291,-0.0699256230108439,-0.0975800842642784,-0.0053457506000995,0.0102325454354286,0.0110695008188486,standing,2026-03-04_13-52-17
1772632340255734500,2.278734619140625,-0.0835378591800108,-0.1046462232582271,-0.0905097074866294,-0.0076397974044084,0.0129977064207196,0.0094537613913416,standing,2026-03-04_13-52-17
1772632340265683500,2.288683349609375,-0.0876706116031855,-0.1481971956931054,-0.0544131427109241,-0.0096487868577241,0.0157344937324523,0.0040017953142523,standing,2026-03-04_13-52-17
1772632340275631400,2.29863134765625,-0.1417551799468696,-0.1617817766703665,-0.0428384402513504,-0.0040542851202189,0.0041097970679402,-0.0088998889550566,standing,2026-03-04_13-52-17
1772632340285580300,2.308580322265625,-0.1295922292705625,-0.1538541985414922,-0.061668228405714,0.0049171298742294,-0.0049796123057603,-0.0159102175384759,standing,2026-03-04_13-52-17
1772632340295528400,2.318528564453125,-0.067048752400279,-0.129524497796595,-0.1128296758443117,0.0166648663580417,0.0027776430360972,-0.0104616545140743,standing,2026-03-04_13-52-17
1772632340305478100,2.32847802734375,-0.0671856035877019,-0.0780379100568592,-0.1483458103835582,0.027973998337984,0.0126609280705451,-0.0152830546721816,standing,2026-03-04_13-52-17
1772632340315426000,2.338426025390625,-0.1170956261930987,-0.0442217113032937,-0.1262596507817506,0.0351871699094772,0.0128484144806861,-0.0212589222937822,standing,2026-03-04_13-52-17
1772632340325375000,2.348375,-0.0760030066957697,-0.0362394803777337,-0.0994517233550548,0.034858226776123,0.0189529247581958,-0.0150001253932714,standing,2026-03-04_13-52-17
1772632340335323100,2.3583232421875,-0.0199360323632135,-0.000273117852956,-0.0330026904135942,0.0297553446143865,0.0318942926824092,-0.0109324138611555,standing,2026-03-04_13-52-17
1772632340345272300,2.368272216796875,-0.0169678302073851,0.0428863710463047,0.0393593659639358,0.0207285322248935,0.0229219943284988,-0.0148895075544714,standing,2026-03-04_13-52-17
1772632340355220000,2.378219970703125,-0.0297132569467648,0.0193717860765755,0.0955494552195072,0.0168491061776876,0.0185948889702558,-0.0152732692658901,standing,2026-03-04_13-52-17
1772632340365169400,2.38816943359375,-0.01645038220454,-0.0040467911727726,0.1035755252867937,0.0164936706423759,0.0256372112780809,-0.0168407503515481,standing,2026-03-04_13-52-17
1772632340375117300,2.398117431640625,-0.0509192727131769,0.0217315009452402,0.0816378342449665,0.0170068610459566,0.0315875113010406,-0.0278209615498781,standing,2026-03-04_13-52-17
1772632340385066200,2.408066162109375,-0.08333309385553,-0.0035457097828388,0.1140010577112436,0.015377651900053,0.0403176248073577,-0.0312601178884506,standing,2026-03-04_13-52-17
1772632340395014400,2.418014404296875,-0.0357994084600359,0.0059700143203139,0.1321621528238058,0.0077865780331194,0.0437413863837718,-0.0242323018610477,standing,2026-03-04_13-52-17
1772632340404963300,2.42796337890625,0.0120978495508432,0.046915042040497,0.2064320886492729,0.0005971915088593,0.0271389484405517,-0.0219467133283615,standing,2026-03-04_13-52-17
1772632340414911200,2.4379111328125,0.0491342524599283,0.0350758434258401,0.2749555897772312,-0.0097571779042482,-0.0053241848945617,-0.0222854688763618,standing,2026-03-04_13-52-17
1772632340424860200,2.447860107421875,0.0614487404361367,0.0027102818720042,0.303261062285304,-0.015705719590187,-0.0428428798913955,-0.0310035590082407,standing,2026-03-04_13-52-17
1772632340434808300,2.457808349609375,0.0025125673428177,-0.0329261180460453,0.2520756494492292,-0.024797486141324,-0.0608562342822551,-0.0442226901650428,standing,2026-03-04_13-52-17
1772632340444757200,2.46775732421875,-0.0745823262428864,-0.0187877025783061,0.1074643494188785,-0.032023511826992,-0.0475121401250362,-0.0512169227004051,standing,2026-03-04_13-52-17
1772632340454705200,2.477705078125,-0.0738344304850324,0.0054182256564497,-0.0481277788311243,-0.0339266061782836,-0.0110625214874744,-0.0491846650838851,standing,2026-03-04_13-52-17
1772632340464654000,2.487654052734375,-0.0532291205581277,0.0878543706722557,-0.2092266878038644,-0.0259660668671131,0.037389263510704,-0.028828190639615,standing,2026-03-04_13-52-17
1772632340474602200,2.497602294921875,0.0194709721347317,0.1792740326106548,-0.2946463786751032,-0.0170527324080467,0.0685117617249488,-0.0066507151350378,standing,2026-03-04_13-52-17
1772632340484551200,2.50755126953125,0.0726555594313889,0.1950425334982574,-0.2447071665078401,-0.0102468896657228,0.067801684141159,0.0144617911428213,standing,2026-03-04_13-52-17
1772632340494499300,2.517499267578125,0.0678110785422846,0.1235556525200605,-0.1442594178527593,0.0020148362964391,0.0454279333353042,0.0145613923668861,standing,2026-03-04_13-52-17
1772632340504447200,2.527447265625,-0.0032156010456383,0.0224795428335666,-0.0823258165091276,0.0177587457001209,0.0222182609140872,0.0042963800951838,standing,2026-03-04_13-52-17
1772632340514396200,2.537396240234375,-0.1026220604868605,-0.0453561221607029,-0.0414537078946828,0.0316894724965095,0.0086910016834735,-0.0093850772827863,standing,2026-03-04_13-52-17
1772632340524344300,2.54734423828125,-0.1175176144648343,-0.0813686619147658,-0.0227817406505346,0.032584473490715,0.0018065648619085,-0.0138417575508356,standing,2026-03-04_13-52-17
1772632340534293200,2.557293212890625,-0.0691689959572628,-0.0584479511849582,0.0275327345699071,0.0240381248295307,0.0020158893894404,-0.0123072452843189,standing,2026-03-04_13-52-17
1772632340544241200,2.5672412109375,-0.0486732838846743,-0.0437831737555563,0.0658861383616924,0.0089014489203691,0.0080271586775779,-0.0052955606952309,standing,2026-03-04_13-52-17
1772632340554190000,2.577190185546875,-0.0166235833469778,-0.0208633398085832,0.0961702174663543,-0.0027472176589071,0.0139132775366306,-0.0008145257597789,standing,2026-03-04_13-52-17
1772632340564138200,2.58713818359375,-0.0701868312302976,-0.0248290285691618,0.0882616362988948,-0.008500462397933,0.0095856115221977,-0.00971026904881,standing,2026-03-04_13-52-17
1772632340574087200,2.597087158203125,-0.1432129044745117,-0.080312723121047,0.04886310736835,-0.0094307055696845,0.0027181184850633,-0.0220409706234931,standing,2026-03-04_13-52-17
1772632340584035000,2.60703515625,-0.1668827165385708,-0.1230712300039827,-0.0034293899267911,-0.0047737834975123,0.0076581696048378,-0.0312370881438255,standing,2026-03-04_13-52-17
1772632340593984000,2.61698388671875,-0.1574202935252338,-0.1091160621486604,-0.0639589696913957,0.0074519901536405,0.0182338487356901,-0.0338038429617881,standing,2026-03-04_13-52-17
1772632340603932200,2.62693212890625,-0.117868583326973,-0.0575644463486969,-0.097217096170783,0.0228901244699955,0.0279965996742248,-0.0283742994070053,standing,2026-03-04_13-52-17
1772632340613881000,2.636881103515625,-0.0480262546854093,-0.0185721601314842,-0.0951139864116907,0.037113532423973,0.0287092626094818,-0.0183624103665351,standing,2026-03-04_13-52-17
1772632340623829200,2.646829345703125,-0.0283939545091241,-0.0157356215313076,-0.024593758508563,0.0433177463710308,0.0125010032206773,-0.0196065884083509,standing,2026-03-04_13-52-17
1772632340633778200,2.656778076171875,-0.045703437761031,-0.0519091970659792,0.0713169312387704,0.0417169220745563,-0.0175527706742286,-0.0309061147272586,standing,2026-03-04_13-52-17
1772632340643726000,2.66672607421875,-0.0781014768123626,-0.10900018068403,0.1237526363968849,0.032287448644638,-0.0278056319802999,-0.0409613214433193,standing,2026-03-04_13-52-17
1772632340653675000,2.676675048828125,-0.0885435585128143,-0.10835209203884,0.0994020389944315,0.0202741976827383,-0.0098311593756079,-0.0459081456065177,standing,2026-03-04_13-52-17
1772632340663623200,2.686623046875,-0.1100661659477278,-0.0798521198719739,0.0712520493090152,0.0032729965168982,0.00389663153328,-0.0519634261727333,standing,2026-03-04_13-52-17
1772632340673572400,2.696572265625,-0.0885324891295284,-0.0344134339943528,0.0721843617230653,-0.0117696020752191,0.0047467127442359,-0.0547472275793552,standing,2026-03-04_13-52-17
1772632340683520000,2.70652001953125,-0.0421571799889206,-0.0403666433103382,0.0258019652545452,-0.0161366127431392,0.0222370121628046,-0.0459969788789749,standing,2026-03-04_13-52-17
1772632340693469200,2.71646923828125,-0.0087128832876682,-0.0018729542650282,-0.0614525398284196,-0.0074318051338195,0.0480827204883098,-0.0357531309127807,standing,2026-03-04_13-52-17
1772632340703417300,2.726417236328125,-0.0475898360295221,0.0357522813826799,-0.1220119302093982,0.0065275854431092,0.0383394733071327,-0.0332956910133361,standing,2026-03-04_13-52-17
1772632340713366300,2.7363662109375,-0.019495339391008,0.0119746615625917,-0.1166571251779794,0.023385128006339,0.0065850056707859,-0.0371330417692661,standing,2026-03-04_13-52-17
1772632340723314200,2.746314208984375,-0.0038770240964367,-0.0506238334305584,-0.1096516303300857,0.0426667854189872,0.0044441651552915,-0.0355691090226173,standing,2026-03-04_13-52-17
1772632340733263400,2.756263427734375,-0.0211823426298797,-0.0308472659453749,-0.1682289069831371,0.0586113929748535,0.0231632590293884,-0.0315972715616226,standing,2026-03-04_13-52-17
1772632340743211300,2.766211181640625,-0.0313983239568769,0.0178137429796159,-0.1208966624438762,0.0592535696923732,0.0249092038720846,-0.027771309018135,standing,2026-03-04_13-52-17
1772632340753160200,2.77616015625,-0.0120277069240808,-0.0081426821842789,-0.013099720069766,0.044511642307043,0.0086524691432714,-0.027825903147459,standing,2026-03-04_13-52-17
1772632340763108400,2.7861083984375,0.015859832432866,-0.0536200926370918,0.0826584094643592,0.033031441271305,0.0094950878992676,-0.0261383093893528,standing,2026-03-04_13-52-17
1772632340773057300,2.796057373046875,-0.0296738382518291,-0.0343184491872787,0.0941278979837894,0.0249527432024478,0.0228116922080516,-0.0313221514225006,standing,2026-03-04_13-52-17
1772632340783005200,2.806005126953125,-0.0856479466691613,-0.0217497672542929,0.1008721115469932,0.02037307433784,0.0138930967077612,-0.0384274385869503,standing,2026-03-04_13-52-17
1772632340792954000,2.8159541015625,-0.0947462125452235,-0.0317044672966003,0.1095119295984506,0.0209634974598884,0.0026423060335218,-0.0410639680922031,standing,2026-03-04_13-52-17
1772632340802902300,2.82590234375,-0.0270788533225655,-0.0353042453542351,0.0820920077532529,0.0247482359409332,0.0017807383555918,-0.0363315716385841,standing,2026-03-04_13-52-17
1772632340812851200,2.835851318359375,-0.0282328456632792,-0.0017019816122949,0.0260322668790817,0.0277339052408933,0.0033935483079403,-0.036373384296894,standing,2026-03-04_13-52-17
1772632340822799000,2.845799072265625,-0.0278664600363001,0.0423844128735363,-0.0139262340217828,0.0276846699416637,0.0114566413685679,-0.033813115209341,standing,2026-03-04_13-52-17
1772632340832748300,2.855748291015625,-0.009036854545027,0.0280291397847235,-0.0188911629527807,0.0251224413514137,0.0186000391840934,-0.0277280565351247,standing,2026-03-04_13-52-17
1772632340842696200,2.8656962890625,0.019242716336809,0.0298547477766871,0.0067079732060432,0.0202951654791831,0.0201509576290845,-0.0254488289356231,standing,2026-03-04_13-52-17
1772632340852644000,2.87564404296875,0.0366872241452336,0.0465409480310976,0.0614075316429138,0.0196008794009685,0.0085238618776202,-0.0167048722505569,standing,2026-03-04_13-52-17
1772632340862593300,2.88559326171875,0.062581105466932,0.0679819415971636,0.0703419487267732,0.0273814164102077,-0.0044792825356125,-0.0105356080457568,standing,2026-03-04_13-52-17
1772632340872541200,2.895541259765625,0.0699095851914957,0.0669834320791065,0.0327957696646451,0.0376164764165878,-0.004555182531476,-0.0043408293277025,standing,2026-03-04_13-52-17
1772632340882490000,2.905489990234375,0.0086135145664215,0.075615651345998,-0.0016612112104892,0.0474206656217575,0.0043201749213039,-0.0069612092338502,standing,2026-03-04_13-52-17
1772632340892438300,2.915438232421875,-0.0452271985514089,0.0474216763883829,-0.0089905311852693,0.0477602183818817,0.0082446094602346,-0.0150976991280913,standing,2026-03-04_13-52-17
1772632340902387200,2.92538720703125,-0.07322013451159,0.0235845814660191,0.0503618214935064,0.0312441289424896,0.0163175575435161,-0.016833109781146,standing,2026-03-04_13-52-17
1772632340912335000,2.935335205078125,-0.0123113461710512,0.0040766017891466,0.1391068573951721,0.0114978551864624,0.0284013822674751,-0.0093349795788526,standing,2026-03-04_13-52-17
1772632340922284000,2.945283935546875,0.0625411022501066,0.0097338968984782,0.1891489454150199,-0.0024553090333938,0.0321285277605056,-0.0024987207725644,standing,2026-03-04_13-52-17
1772632340932232200,2.955232177734375,0.049120954586938,-0.0141829852618277,0.1808411357969045,-0.0076617887243628,0.0181203037500381,-0.0073981382884085,standing,2026-03-04_13-52-17
1772632340942181000,2.96518115234375,-0.0053556087490171,-0.0308054726302623,0.130300450605154,-0.0040868986397981,-0.0039261789061129,-0.0165176391601562,standing,2026-03-04_13-52-17
1772632340952129000,2.97512890625,0.003779043614678,-0.0790742673672735,0.0940548327475786,-0.0002546096220612,-0.0201043505221605,-0.0218522176146507,standing,2026-03-04_13-52-17
1772632340962078200,2.985078125,0.0089115841975435,-0.0793782187499105,0.0573924507826566,-1.20694749057e-05,-0.0280111040920019,-0.0218975599855184,standing,2026-03-04_13-52-17
1772632340972026000,2.995026123046875,-0.007200725159049,-0.0195063722416758,0.0245288765788078,-0.0039953598752617,-0.031941931694746,-0.0203598495572805,standing,2026-03-04_13-52-17
1772632340981975000,3.00497509765625,-0.008546477212198,0.0115839086793363,-0.012297756037116,-0.0052832076326012,-0.0327785611152648,-0.0112716546282172,standing,2026-03-04_13-52-17
1772632340991923200,3.014923095703125,0.0253503490295261,0.0306879837304353,-0.0912812763810157,0.0013861469924449,-0.0148381739854812,0.0002302713692188,standing,2026-03-04_13-52-17
1772632341001872400,3.024872314453125,0.0163355601858347,0.0742727123044431,-0.2238666230529546,0.0186111126095056,0.0223357789218425,0.0095386784523725,standing,2026-03-04_13-52-17
1772632341011820000,3.034820068359375,-0.0713023181915283,0.0748356068842113,-0.3297136004030704,0.0382426045835018,0.0511349365115165,0.0106976861134171,standing,2026-03-04_13-52-17
1772632341021769200,3.044769287109375,-0.1146624076968058,0.0676242142006754,-0.2980880435615777,0.0530187338590621,0.0488725081086158,0.0069353068247437,standing,2026-03-04_13-52-17
1772632341031717400,3.05471728515625,-0.0821078994421288,0.0136471248194575,-0.1703267560452222,0.053192101418972,0.0365221016108989,0.005111573729664,standing,2026-03-04_13-52-17
1772632341041666300,3.064666259765625,-0.003895838394761,-0.0097775899097323,-0.0129623574256896,0.0473527014255523,0.0239387471228837,0.0120309656485915,standing,2026-03-04_13-52-17
1772632341051614200,3.0746142578125,0.0363742126733064,0.0081578797534108,0.1015004725784063,0.0389520265161991,0.0086697796359658,0.0162954851984977,standing,2026-03-04_13-52-17
1772632341061563100,3.084563232421875,0.046889030816406,0.0041391456313431,0.1698182220011949,0.0300205387175083,-0.0025863251648843,0.0159597620368003,standing,2026-03-04_13-52-17
1772632341071511300,3.09451123046875,0.0180281894478946,-0.0110563776738941,0.1763128447175025,0.0233964584767818,0.0024534410331398,0.0137711772695183,standing,2026-03-04_13-52-17
1772632341081460200,3.104460205078125,-0.0222553056236356,0.0099396486036479,0.1390285314619541,0.0168780758976936,0.0039126765914261,0.0125139169394969,standing,2026-03-04_13-52-17
1772632341091408100,3.114408203125,-0.042123350784555,0.0176237733654677,0.1579834073007106,0.0127594973891973,-0.0096004689112305,0.0045057917013764,standing,2026-03-04_13-52-17
1772632341101357300,3.124357421875,-0.0223102506812661,0.018088614398241,0.1516635566294193,0.0064896899275481,-0.0225730948150157,0.0008294435683637,standing,2026-03-04_13-52-17
1772632341111305200,3.13430517578125,0.0036188480842858,0.0320620485626161,0.0985790321737527,0.0047999145463109,-0.0094924457371234,0.0049264505505561,standing,2026-03-04_13-52-17
1772632341121254100,3.144254150390625,0.0225484433513134,0.0901180778205394,0.0392757793337106,0.0039972588419914,0.0034380706492811,0.0149080585688352,standing,2026-03-04_13-52-17
1772632341131202300,3.154202392578125,0.0174721630003303,0.1085455687843263,0.0088069913119077,0.0033815361093729,0.0056506255641579,0.0166878495365381,standing,2026-03-04_13-52-17
1772632341141151200,3.164151123046875,0.0167769107451662,0.0485119558431208,-0.0080763389497995,0.0083608515560626,0.011096796952188,0.0152895292267203,standing,2026-03-04_13-52-17
1772632341151099100,3.17409912109375,-0.017222864414379,0.0320510887771844,-0.0518038369953632,0.0190941896289587,0.0232578553259372,0.0114489840343594,standing,2026-03-04_13-52-17
1772632341161047300,3.18404736328125,-0.0437928183667361,0.0299750131554901,-0.0358107335716485,0.0246501509100198,0.0113711487501859,0.0073566418141126,standing,2026-03-04_13-52-17
1772632341170996200,3.193996337890625,-0.0365152285791933,0.0090793785125017,0.0274374575018882,0.0208341069519519,-0.0132332639768719,0.0089023411273956,standing,2026-03-04_13-52-17
1772632341180944100,3.203944091796875,0.0245312877316027,-0.0044685237161815,0.1044926401317119,0.0115106869488954,-0.0165884029120206,0.0120682884007692,standing,2026-03-04_13-52-17
1772632341190893000,3.21389306640625,0.0154957848934456,0.0104499362133443,0.0803477944344282,0.0033313196618109,-0.0072489641606807,0.0157823339104652,standing,2026-03-04_13-52-17
1772632341200841200,3.22384130859375,-0.0680641399879008,0.0270011119112372,0.0552472554475069,-0.0012231622822582,-0.0073902420699596,0.0060390504077076,standing,2026-03-04_13-52-17
1772632341210790100,3.2337900390625,-0.080524502708204,0.0199780814066529,-0.007103694525361,0.0007001729682087,0.0019177722278982,0.0055879112333059,standing,2026-03-04_13-52-17
1772632341220738000,3.243738037109375,-0.0500430013353005,0.0158069332018494,-0.0774555801242589,0.0133905410766601,0.0183911323547363,0.0156223904341459,standing,2026-03-04_13-52-17
1772632341230687200,3.253687255859375,-0.0329014950614422,0.0682845778055489,-0.1057452705413103,0.0289513915777206,0.0202303119003772,0.0227711144834756,standing,2026-03-04_13-52-17
1772632341240635100,3.26363525390625,-0.0175095724012702,0.0712578945279121,-0.0542208350092172,0.0365957170724868,-0.003665846074,0.019582251086831,standing,2026-03-04_13-52-17
1772632341250584000,3.273583984375,-0.0430787152806296,-0.0101116441696882,-0.0035784430086612,0.0396831184625625,-0.0088688638061285,0.0116186002269387,standing,2026-03-04_13-52-17
1772632341260532200,3.2835322265625,-0.0808342627771198,-0.0264332488954067,-0.0065425535112619,0.0352160893380641,0.0033389828167855,0.0060438392683863,standing,2026-03-04_13-52-17
1772632341270481200,3.293481201171875,-0.1184879938669502,-0.0042988662376999,0.0396475352555513,0.021365787833929,0.0090943407267332,-0.0012303190305829,standing,2026-03-04_13-52-17
1772632341280429000,3.303428955078125,-0.1145226704325527,-0.0050122752040624,0.1201046352833509,0.0025692065246403,-0.0019309211056679,-0.0047804038040339,standing,2026-03-04_13-52-17
1772632341290378000,3.3133779296875,-0.049595769024454,-0.0292183495692908,0.1748404340773821,-0.0110637806355953,-0.0070132976397871,-0.0003209405113011,standing,2026-03-04_13-52-17
1772632341300325400,3.323325439453125,-0.0301870119383558,-0.0110432259313762,0.1347398943573236,-0.0154667198657989,-0.017045633867383,-0.0016070028068497,standing,2026-03-04_13-52-17
1772632341310274300,3.3332744140625,-0.087352631695196,0.0150214819125831,0.0614133768618106,-0.00306091690436,-0.0280351657420396,-0.0090169822797179,standing,2026-03-04_13-52-17
1772632341320222500,3.343222412109375,-0.0882649607671424,0.0067069502927362,-0.0447474887430667,0.0136164482682943,-0.0199698191136121,-0.008693715557456,standing,2026-03-04_13-52-17
1772632341330171400,3.35317138671875,-0.0653752296974882,0.0140149352185428,-0.1360503924340009,0.0342415645718574,-0.0007660309784114,-0.0047804662026464,standing,2026-03-04_13-52-17
1772632341340119300,3.363119384765625,-0.0491634785544127,0.0867860107883811,-0.1423743347585201,0.0459501221776008,0.0022507687099277,4.30629588663e-05,standing,2026-03-04_13-52-17
1772632341350068200,3.373068115234375,-0.0103723409324884,0.0889278451226651,-0.0529682045996189,0.0414997190237045,-0.0114309545606374,0.0047909468412399,standing,2026-03-04_13-52-17
1772632341360016400,3.383016357421875,0.0400526819903403,0.0446335069745779,0.0701660076379775,0.0321165174245834,-0.0201639682054519,0.0063514960929751,standing,2026-03-04_13-52-17
1772632341369965300,3.39296533203125,0.0242077913982793,0.024635697954148,0.11909925763309,0.02120341360569,-0.0171412825584411,0.0022403742186725,standing,2026-03-04_13-52-17
1772632341379913200,3.402913330078125,-0.0460873590447008,0.0286256443731486,0.0850900205254554,0.0114429146051406,-0.0072400625795125,-0.0098181469365954,standing,2026-03-04_13-52-17
1772632341389862400,3.4128623046875,-0.0844917258387431,0.0237557002492249,0.0496563035726547,0.0079262107610702,-0.0012580703478306,-0.0135353868827223,standing,2026-03-04_13-52-17
1772632341399810300,3.422810302734375,-0.0446804148562252,0.0436320748470723,0.0650303983151912,-0.003589563537389,0.0024397284723818,-0.0110085802152752,standing,2026-03-04_13-52-17
1772632341409759500,3.432759521484375,-0.0186026648676022,0.0565890254452824,0.107918522927165,-0.0135553777217864,-0.0271929986774921,-0.0232753660529851,standing,2026-03-04_13-52-17
1772632341419707400,3.442707275390625,-0.028959187176451,0.0186143918380141,0.1728285097330808,-0.0100327841937541,0.0030981686431914,-0.000416750786826,standing,2026-03-04_13-52-17
1772632341429656600,3.452656494140625,0.0466600443661212,0.0493522060595452,0.073378539943695,-0.0050095287151634,0.014821670949459,0.0075237303972244,standing,2026-03-04_13-52-17
1772632341439604500,3.4626044921875,-0.0020739567298442,0.085986092582345,0.0616302344828844,0.0028778668493032,0.0097774006426334,0.0063438862562179,standing,2026-03-04_13-52-17
1772632341449553400,3.472553466796875,-0.022547274307534,0.0159958799026906,0.1154986027926206,-0.0004835748113691,-0.0194164384156465,0.0029273170512169,standing,2026-03-04_13-52-17
1772632341459501600,3.48250146484375,-0.0041195276154205,-0.0484140484265983,0.1868406684726476,-0.008877788670361,-0.0483804270625114,-0.006085732486099,standing,2026-03-04_13-52-17
1772632341469450500,3.492450439453125,-0.0243168777959421,-0.0745155811496078,0.1960977416396141,-0.0187746286392211,-0.0712750926613807,-0.0178033746778965,standing,2026-03-04_13-52-17
1772632341479398400,3.5023984375,-0.0653344227630645,-0.0773975663267075,0.1260135670661926,-0.0314065292477607,-0.0799008682370185,-0.0270209163427352,standing,2026-03-04_13-52-17
1772632341489347600,3.51234765625,-0.0570254806337878,-0.0601733136728405,-0.0009586158990859,-0.0367512293159961,-0.061778325587511,-0.0299019254744052,standing,2026-03-04_13-52-17
1772632341499295500,3.52229541015625,-0.0594139101402834,-0.0076359017059206,-0.1911310591429471,-0.0305093266069889,-0.0190277472138404,-0.018504312261939,standing,2026-03-04_13-52-17
1772632341509244400,3.532244384765625,-0.037044001693651,0.0725438426852226,-0.3446498882502317,-0.0130118280649185,0.0249173417687416,-0.0008195918053388,standing,2026-03-04_13-52-17
1772632341519192600,3.542192626953125,-0.0166484985925257,0.1108351410262286,-0.39299394018054,0.0070739332586526,0.0483493357896804,0.0134889716282486,standing,2026-03-04_13-52-17
1772632341529140500,3.552140380859375,-0.0013563830450177,0.103457451865077,-0.3281511733919381,0.0272002406418323,0.0485575944185256,0.0265131611377,standing,2026-03-04_13-52-17
1772632341539089400,3.56208935546875,0.0052122182229533,0.0446717931583523,-0.215973239454627,0.0442180037498474,0.0328129380941391,0.0268064998090267,standing,2026-03-04_13-52-17
1772632341549037600,3.57203759765625,-0.037652562046051,-0.0178302557229995,-0.0711006581395864,0.0515110716223716,0.0052697281353175,0.013054734095931,standing,2026-03-04_13-52-17
1772632341558986500,3.581986572265625,-0.0675191098583862,-0.0846681418515741,0.0516273113846778,0.045277114957571,-0.0217787735164165,-0.0004508574493229,standing,2026-03-04_13-52-17
1772632341568934400,3.591934326171875,-0.0313877294976264,-0.1048264021307229,0.1404968504488468,0.0327293649315834,-0.0246864128857851,-0.0052914191037416,standing,2026-03-04_13-52-17
1772632341578883300,3.60188330078125,0.0074382602419704,-0.0482936369173228,0.1641740786343812,0.0147375790402293,-0.0077808918431401,-0.0027360240928828,standing,2026-03-04_13-52-17
1772632341588831500,3.61183154296875,0.0392433749014511,0.0174950324192643,0.1665180114120245,-0.0056768818758428,0.0014110084157437,5.7001598179e-06,standing,2026-03-04_13-52-17
1772632341598780400,3.621780517578125,0.0446473528368398,0.0302018076486885,0.1604699634194374,-0.0226546432822942,0.0021941969171166,0.0012015828397125,standing,2026-03-04_13-52-17
1772632341608728300,3.631728271484375,0.0230624938206747,0.029103344887495,0.1465630186200141,-0.0332572199404239,0.0024131089448928,-0.00219661090523,standing,2026-03-04_13-52-17
1772632341618677500,3.641677490234375,0.0026117168683558,0.0373721376694738,0.0737345137745141,-0.0308326240628957,0.0074450708925724,-0.0041669933125376,standing,2026-03-04_13-52-17
1772632341628625400,3.65162548828125,-0.0167053433462977,0.0533477054364979,-0.0235346048444509,-0.0155194476246833,0.0174079556018114,-0.000162930926308,standing,2026-03-04_13-52-17
1772632341638574300,3.66157421875,0.0023554770849645,0.1121861172437667,-0.0951233387619256,0.009020896628499,0.0197704024612903,0.0101771783083677,standing,2026-03-04_13-52-17
1772632341648522500,3.6715224609375,0.0443431822584941,0.1343948803119361,-0.1001812066733837,0.0287903398275375,0.016450772061944,0.0186407044529914,standing,2026-03-04_13-52-17
1772632341658471400,3.681471435546875,0.0593118745379149,0.1340750007078051,-0.050067806982994,0.0421365872025489,0.0037000665906816,0.0237186141312122,standing,2026-03-04_13-52-17
1772632341668419300,3.69141943359375,0.0366372475236654,0.1010866310805082,0.0313052388459444,0.0391682274639606,-0.0097401086241006,0.01888258010149,standing,2026-03-04_13-52-17
1772632341678368300,3.7013681640625,0.0083048504760488,0.0382854531221091,0.1499281111389398,0.0155325531959533,-0.0211130250245332,0.0125745739787817,standing,2026-03-04_13-52-17
1772632341688316400,3.71131640625,-0.0311344488563016,-0.0019264380179345,0.2087035407125949,-0.013809623196721,-0.0259032528847455,0.0056133372709155,standing,2026-03-04_13-52-17
1772632341698265300,3.721265380859375,-0.0312711904458701,-0.0136585229963064,0.1949813048303127,-0.0332528688013553,-0.0104370098561048,0.0090809594839811,standing,2026-03-04_13-52-17
1772632341708213200,3.731213134765625,-0.0006564911473542,0.0387222371041774,0.1053548099189996,-0.0415621958673,0.0073822000995278,0.0173269044607877,standing,2026-03-04_13-52-17
1772632341718162200,3.741162109375,-0.0105252299392595,0.0916987711407244,0.0197480720430612,-0.0393916741013526,0.0129705239087343,0.0268903896212577,standing,2026-03-04_13-52-17
1772632341728110300,3.7511103515625,-0.0019444120660424,0.0567092908240854,-0.053570262145996,-0.0260463040322065,0.014107160270214,0.0350188910961151,standing,2026-03-04_13-52-17
1772632341738059500,3.7610595703125,-0.0085991207148879,0.0276003929786384,-0.1311088443785905,-0.0011435062624514,0.0166656654328107,0.0395769402384758,standing,2026-03-04_13-52-17
1772632341748007400,3.77100732421875,-0.0693647377250716,0.0190747028261423,-0.1598071155965328,0.0228055026382207,0.0177796650677919,0.0333605892956256,standing,2026-03-04_13-52-17
1772632341757956600,3.78095654296875,-0.1191738207066431,-0.014959084200859,-0.1130629000782966,0.0364487767219543,0.0066438000649213,0.0277604386210441,standing,2026-03-04_13-52-17
1772632341767904500,3.790904541015625,-0.089789722649008,-0.0535161938712,-0.0360766910314559,0.0327315405011177,-0.0122758280485868,0.0255526769906282,standing,2026-03-04_13-52-17
1772632341777853400,3.800853515625,-0.0561459213202819,-0.0566940932549536,0.0961900912106037,0.0216616261750459,-0.0280985552817583,0.0232165362685918,standing,2026-03-04_13-52-17
1772632341787801600,3.810801513671875,-0.0333875250127166,-0.0347884047865867,0.157661920261383,0.0049771880730986,-0.0322317816317081,0.0256850197911262,standing,2026-03-04_13-52-17
1772632341797750500,3.82075048828125,-0.0200525714149698,-0.0223814892865717,0.1501052212715148,-0.0099016055464744,-0.0274582263082265,0.0255299266427755,standing,2026-03-04_13-52-17
1772632341807698400,3.830698486328125,-0.0502457573657855,-0.0181694245494902,0.0888297915756702,-0.0225513540208339,-0.0120347943156957,0.0231637079268693,standing,2026-03-04_13-52-17
1772632341817647400,3.8406474609375,-0.0910715426204726,-0.0081054189138114,0.042738487008214,-0.0275649242103099,-0.004899529274553,0.0155545817688107,standing,2026-03-04_13-52-17
1772632341827595500,3.850595458984375,-0.1289179467381909,-0.0100469083704054,0.0243798234969377,-0.0299950577318668,-0.0039210836403071,0.0081187700852751,standing,2026-03-04_13-52-17
1772632341837544400,3.86054443359375,-0.1346415120167657,-0.0195372057713568,-0.0254500830769538,-0.0196630712598562,-0.0109064364805817,0.0054114060476422,standing,2026-03-04_13-52-17
1772632341847492400,3.870492431640625,-0.1177042961433529,0.0071142159193754,-0.0854839882791042,-0.007563532795757,-0.0061838533729314,0.0072953263297677,standing,2026-03-04_13-52-17
1772632341857440500,3.8804404296875,-0.0739031118070706,0.0634749855667352,-0.1059761566877365,0.0061550978571176,0.0011704603675752,0.0099035743623971,standing,2026-03-04_13-52-17
1772632341867389400,3.890389404296875,-0.0630950463384389,0.0647632718116044,-0.0916430954307317,0.0148955918848514,0.0033627746161073,0.0122700594365596,standing,2026-03-04_13-52-17
1772632341877337300,3.90033740234375,-0.0685481241125613,0.040358606134355,-0.0435872127920389,0.0161752291023731,0.0064712571911513,0.0101787699386477,standing,2026-03-04_13-52-17
1772632341887286500,3.91028662109375,-0.069831040062569,0.0280734173178672,0.0188484928548336,0.0112252123653888,0.0051758955232799,0.0082650231197476,standing,2026-03-04_13-52-17
1772632341897234400,3.920234375,-0.0578039176603779,0.0282633869320154,0.0876987417191267,0.0038248444907367,0.00105662480928,0.0101959845051169,standing,2026-03-04_13-52-17
1772632341907183400,3.930183349609375,-0.0083725819500163,0.0298398424685001,0.1244488019675016,-0.0119911357760429,-0.0063088797032833,0.0123771131038665,standing,2026-03-04_13-52-17
1772632341917131500,3.940131591796875,-0.0151093793917447,0.0035481940008699,0.1665273637622594,-0.0224176626652479,-0.0101402224972844,0.0105802724137902,standing,2026-03-04_13-52-17
1772632341927080400,3.95008056640625,-0.0462709719832986,-0.0205067814558744,0.1287929686516523,-0.0244965273886919,4.1575403884e-05,0.0013162007089704,standing,2026-03-04_13-52-17
1772632341937028400,3.9600283203125,-0.0809802471190691,-0.0193359841108322,0.0621112959980964,-0.0244450010359287,0.0123011358082294,-0.0018687127158045,standing,2026-03-04_13-52-17
1772632341946977300,3.969977294921875,-0.0621569983033463,-0.0066847384609282,0.0355751712501049,-0.0193245410919189,0.0186716839671134,-0.0031443666666746,standing,2026-03-04_13-52-17
1772632341956925400,3.979925537109375,-0.014528985687904,0.0001091594628989,0.0953425344705581,-0.0178061053156852,0.0017602199222892,0.0005203520413488,standing,2026-03-04_13-52-17
1772632341966874400,3.989874267578125,0.018751608351618,-0.0087988080054521,0.1741460220724344,-0.0202325116842985,-0.0361650586128234,-0.001372889149934,standing,2026-03-04_13-52-17
1772632341976822300,3.999822265625,0.035850407994911,-0.0188303726762533,0.2106885770499706,-0.022950267419219,-0.0642749890685081,0.0002282033674418,standing,2026-03-04_13-52-17
1772632341986771500,4.009771484375,0.057950924915634,-0.0087422555126249,0.1336076754570007,-0.0232187137007713,-0.0683783814311027,0.0081124920397996,standing,2026-03-04_13-52-17
1772632341996719400,4.01971923828125,0.0258491653971374,0.0658631958775222,0.0299362885802984,-0.0312840975821018,-0.0668199062347412,0.0049659665673971,standing,2026-03-04_13-52-17
1772632342006668300,4.029668212890625,-0.0340633419150486,0.0546735472127795,-0.0554062454015016,-0.0379031188786029,-0.0466560497879982,0.0067119356244802,standing,2026-03-04_13-52-17
1772632342016616400,4.039616455078125,-0.0180443368650972,0.0594163578256964,-0.1517734467446804,-0.0412651598453521,-0.0002520820125937,0.0204174742102623,standing,2026-03-04_13-52-17
1772632342026565400,4.0495654296875,-0.0292152077641338,0.1032490698114037,-0.2472323010712862,-0.0328509025275707,0.0362974070012569,0.0246140845119953,standing,2026-03-04_13-52-17
1772632342036513300,4.05951318359375,-0.0702563162699341,0.0934856545574963,-0.2674263633161783,-0.017598520964384,0.0442849323153495,0.0276715904474258,standing,2026-03-04_13-52-17
1772632342046462200,4.069462158203125,-0.0354108110012486,0.0476297661811113,-0.2153098071098327,0.0027016918174922,0.0335007272660732,0.0337217599153518,standing,2026-03-04_13-52-17
1772632342056410400,4.079410400390625,0.0205065257275477,0.023995938745886,-0.1226882220357656,0.0195041727274656,0.0091481953859329,0.0382990092039108,standing,2026-03-04_13-52-17
1772632342066359600,4.089359619140625,0.0391545275742188,0.0227859784342348,-0.0049848026752471,0.0292089972645044,-0.0226494129747152,0.039451889693737,standing,2026-03-04_13-52-17
1772632342076307200,4.09930712890625,0.0438566408505663,-0.0153387311682105,0.0810848765373229,0.0314779207110405,-0.0488277301192283,0.0386108048260211,standing,2026-03-04_13-52-17
1772632342086256400,4.10925634765625,0.042104280757904,-0.0434308531865477,0.120263040715456,0.0268240459263324,-0.0476681888103485,0.0349146015942096,standing,2026-03-04_13-52-17
1772632342096204500,4.11920458984375,0.0078780398987233,-0.0340609672948718,0.086340312847495,0.0149111375212669,-0.0299873352050781,0.0327088125050067,standing,2026-03-04_13-52-17
1772632342106153500,4.129153564453125,-0.058662762979418,-0.0167094349995255,0.0673380907356739,0.0001503014937043,-0.015289083123207,0.0215704087167978,standing,2026-03-04_13-52-17
1772632342116101400,4.139101318359375,-0.0761688282493501,-0.0344480669163167,0.071569444695115,-0.0209052376449108,-0.0020818812772631,0.0167968831956386,standing,2026-03-04_13-52-17
1772632342126050600,4.149050537109375,-0.0568157468732446,-0.0439424559704959,0.0839431885778903,-0.033031940460205,0.0108331181108951,0.0150413298979401,standing,2026-03-04_13-52-17
1772632342135998500,4.15899853515625,-0.0368632382992655,-0.002338672080636,0.0606114128291606,-0.034535426646471,0.0195058155804872,0.018294334411621,standing,2026-03-04_13-52-17
1772632342145947400,4.168947509765625,-0.0028213775636628,0.0210528710313141,0.010831775137782,-0.0246644206345081,0.0220182407647371,0.0255948584526777,standing,2026-03-04_13-52-17
1772632342155895600,4.1788955078125,0.0153548420527949,0.0315121595948934,-0.0090355393707752,-0.0120863784104585,0.0157070644199848,0.028927119448781,standing,2026-03-04_13-52-17
1772632342165844500,4.188844482421875,0.0353798313410952,0.0074193363457918,0.0127151046663522,-0.000116535462439,0.0004394282586872,0.0306118335574865,standing,2026-03-04_13-52-17
1772632342175792400,4.19879248046875,0.0147089088320732,0.0067640873074531,0.0437882883220911,0.0111652817577123,-0.02241026237607,0.0246143564581871,standing,2026-03-04_13-52-17
1772632342185741300,4.2087412109375,-0.013354790809378,0.0104008363746106,0.0759428374737501,0.0124739594757556,-0.0448833480477333,0.0220523960888385,standing,2026-03-04_13-52-17
1772632342195689500,4.218689453125,0.0099085593456402,0.0104787239164113,0.099084059086442,0.0058932658284902,-0.0484103970229625,0.0275268796831369,standing,2026-03-04_13-52-17
1772632342205638400,4.228638427734375,0.0292081935014575,0.034541736549139,0.0567407088756561,0.0012857308611273,-0.0337094813585281,0.0287940111011266,standing,2026-03-04_13-52-17
1772632342215586300,4.23858642578125,-0.0160364676414057,0.0631361090011894,0.0067851300954818,-0.0097486423328518,-0.013848016038537,0.0275023207068443,standing,2026-03-04_13-52-17
1772632342225534500,4.248534423828125,-0.0918226532487198,0.0488930641151964,-0.0040010523349046,-0.0245797857642173,0.0048753372393548,0.0197293534874916,standing,2026-03-04_13-52-17
1772632342235483400,4.2584833984375,-0.0824326378844678,0.0212082077234983,0.0023854338318109,-0.0332891047000885,0.0201934538781642,0.0190478451550006,standing,2026-03-04_13-52-17
1772632342245431300,4.268431396484375,-0.0416444081611931,-0.0060443947307765,-0.0232756616473197,-0.0326190553605556,0.0308479629456996,0.0218324474990367,standing,2026-03-04_13-52-17
1772632342255380500,4.27838037109375,-0.0417984662117436,0.0298097395911812,-0.0754313808202743,-0.0199491735547781,0.0302632041275501,0.025033164769411,standing,2026-03-04_13-52-17
1772632342265328400,4.288328369140625,-0.0112283732399344,0.0289380713231861,-0.0705775110483169,-0.0051862066611647,0.0129270926117897,0.0316971950232982,standing,2026-03-04_13-52-17
1772632342275277300,4.29827734375,0.038245194176957,0.0259895967811346,-0.0423532870829105,0.0084913484752178,-0.0015825619921088,0.0354979299008846,standing,2026-03-04_13-52-17
1772632342285225500,4.3082255859375,0.0118417924305424,-0.0013236498191952,-0.0163444010794162,0.020314984023571,-0.0151031650602817,0.034211091697216,standing,2026-03-04_13-52-17
1772632342295174400,4.31817431640625,-0.0363004533173516,-0.014519962131232,0.0346136327415704,0.0209392849355936,-0.0255807023495435,0.0296441949903965,standing,2026-03-04_13-52-17
1772632342305123000,4.328123046875,-0.0695487525224685,-0.0362314432017505,0.0693657971709966,0.014247559942305,-0.0285570509731769,0.0223106481134891,standing,2026-03-04_13-52-17
1772632342315072300,4.338072265625,-0.0930730186359956,-0.0589352963104844,0.0650210459649562,0.0032327258959412,-0.0178580693900585,0.0186328217387199,standing,2026-03-04_13-52-17
1772632342325020400,4.3480205078125,-0.1008376612881198,-0.0503181284822523,0.0551104773253202,-0.0095243481919169,-0.0083577744662761,0.0154463499784469,standing,2026-03-04_13-52-17
1772632342334969300,4.35796923828125,-0.1220031258484348,-0.0506980677105486,0.0219803611397743,-0.016359144821763,-0.0009817115496844,0.0131269358098506,standing,2026-03-04_13-52-17
1772632342344917200,4.367917236328125,-0.1149852099103853,-0.0532291936233639,-0.0228267488360404,-0.0130640156567096,0.003819701494649,0.0064525222405791,standing,2026-03-04_13-52-17
1772632342354866200,4.3778662109375,-0.1323807274779304,-0.0438996397420764,-0.0508107343047857,-0.0067748585715889,0.0001760474406182,-0.0012091615935787,standing,2026-03-04_13-52-17
1772632342364814300,4.387814453125,-0.1173350609721615,-0.0306380071088671,-0.0848836842983961,0.0011523067951202,0.0038922224193811,-0.0062396065331995,standing,2026-03-04_13-52-17
1772632342374763300,4.39776318359375,-0.0871409982385113,-0.0397882589004933,-0.0889075329869985,0.0078641036525368,0.0198489427566528,-0.0088137611746788,standing,2026-03-04_13-52-17
1772632342384711200,4.407711181640625,-0.0742509023314341,0.0041217561051249,-0.1028285063117742,0.0157289505004882,0.0270274933427572,-0.0083407834172248,standing,2026-03-04_13-52-17
1772632342394660400,4.417660400390625,-0.0530372877804562,0.0329923151500523,-0.0358271001845598,0.0111610759049654,0.0174760371446609,-0.0122915711253881,standing,2026-03-04_13-52-17
1772632342404608300,4.427608154296875,-0.0244833934692665,0.0180387839071452,0.0726788672417402,-0.0003435141406953,0.0025894993450492,-0.0085077509284019,standing,2026-03-04_13-52-17
1772632342414557200,4.43755712890625,0.005842880809307,0.0185940797023475,0.1408867265492677,-0.015555677935481,-0.0007507381960749,-0.0033693022560328,standing,2026-03-04_13-52-17
1772632342424505300,4.44750537109375,-0.0187173407558351,0.0655497460141777,0.13521277256608,-0.0254530496895313,0.002912972588092,-0.0024734148755669,standing,2026-03-04_13-52-17
1772632342434454300,4.457454345703125,-0.0543388718983158,0.0781773185275495,0.0947135889172554,-0.0251545310020446,0.0146191343665122,-4.51323576271e-05,standing,2026-03-04_13-52-17
1772632342444402200,4.467402099609375,-0.0576620615042746,0.076618983169645,0.0310194076418876,-0.0160324070602655,0.0320327430963516,0.0027208265382796,standing,2026-03-04_13-52-17
1772632342454351000,4.47735107421875,-0.0489043161615729,0.0806264652453362,0.0012356792747974,-0.0061250929720699,0.0341543145477771,0.0037667215801775,standing,2026-03-04_13-52-17
1772632342464299300,4.48729931640625,-0.0228791366104036,0.092854809308052,0.0614607231348752,-0.0019287499599158,0.0162434913218021,0.0050474358722567,standing,2026-03-04_13-52-17
1772632342474248200,4.497248291015625,0.0144669167697429,0.0621415450058877,0.1623743357360363,-0.0061586592346429,-0.0149713493883609,0.0023651747032999,standing,2026-03-04_13-52-17
1772632342484196000,4.507196044921875,0.0108190983192995,0.0169346220575273,0.2031990980774164,-0.013035474345088,-0.0328134633600711,-0.0059556057676672,standing,2026-03-04_13-52-17
1772632342494145300,4.517145263671875,-0.064865709272772,-0.0172454415723681,0.169273447600007,-0.0246604159474372,-0.0450198352336883,-0.0157348215579986,standing,2026-03-04_13-52-17
1772632342504093200,4.52709326171875,-0.0778180202284827,-0.0230690331593155,0.1023041901767253,-0.034073356539011,-0.0335016660392284,-0.0157926138490438,standing,2026-03-04_13-52-17
1772632342514042000,4.5370419921875,-0.0647946167979389,0.0064833706699311,-0.0151186586767435,-0.0353736020624637,-0.0024899304844439,-0.006320078857243,standing,2026-03-04_13-52-17
1772632342523990300,4.546990234375,-0.0569165038339793,0.0674270841933786,-0.1262836161792278,-0.0310313198715448,0.0182451754808425,0.0051384381949901,standing,2026-03-04_13-52-17
1772632342533939200,4.556939208984375,-0.0678339844938367,0.0759409377776086,-0.148426474404335,-0.0223112311214208,0.022381454706192,0.0103364530950784,standing,2026-03-04_13-52-17
1772632342543887000,4.56688720703125,-0.0378673738405108,0.0205273858524858,-0.1291506960481405,-0.0070356056094169,0.0188644845038652,0.0152784818783402,standing,2026-03-04_13-52-17
1772632342553836000,4.5768359375,-0.0667629577288404,-0.0273899650983512,-0.1306365506917238,0.0149426544085145,0.0120058981701731,0.0061928471550345,standing,2026-03-04_13-52-17
1772632342563784200,4.5867841796875,-0.116941860403493,-0.0429961150310933,-0.1176975741416215,0.0296957679092884,0.0018187745008617,-0.0084015419706702,standing,2026-03-04_13-52-17
1772632342573732000,4.596732177734375,-0.115780159680359,-0.1075505663976073,-0.0529079988449811,0.030441015958786,-0.0071036368608474,-0.0202360339462757,standing,2026-03-04_13-52-17
1772632342583681000,4.606680908203125,-0.1122731744727119,-0.1145746198154985,0.0205237325906753,0.0184179097414016,-0.0131141254678368,-0.0297349970787763,standing,2026-03-04_13-52-17
1772632342593629200,4.616629150390625,-0.0766262166280299,-0.090200057015568,0.0812362677067518,-0.0016637332737445,-0.0148760210722684,-0.0302226971834898,standing,2026-03-04_13-52-17
1772632342603578000,4.626578125,-0.033394941134192,-0.0751383892230689,0.0869850404918193,-0.0159156396985054,-0.0078237038105726,-0.0263509936630725,standing,2026-03-04_13-52-17
1772632342613526000,4.636526123046875,-0.0201317010657861,-0.0389015391938388,0.015164251384139,-0.0216540358960628,0.0094272121787071,-0.0200098045170307,standing,2026-03-04_13-52-17
1772632342623475200,4.64647509765625,-0.0149321231286972,0.024345628966391,-0.0684364073663949,-0.0142453899607062,0.0187679845839738,-0.0170795284211635,standing,2026-03-04_13-52-17
1772632342633423000,4.656423095703125,-0.0331034108417108,0.03620426293388,-0.124550508776307,-0.0017937081865966,0.029130095615983,-0.0166463442146778,standing,2026-03-04_13-52-17
1772632342643372300,4.666372314453125,-0.0422936658501625,0.0252520762868225,-0.1343856740921735,0.0116179715842008,0.0371613912284374,-0.0155685627833008,standing,2026-03-04_13-52-17
1772632342653320200,4.6763203125,-0.0643736879721283,0.0357018663696944,-0.1022217725902795,0.0217824708670377,0.0329895056784153,-0.017232596874237,standing,2026-03-04_13-52-17
1772632342663269400,4.686269287109375,-0.0251824451167136,0.0398214305177331,-0.0002028290957212,0.023871986195445,0.0150027815252542,-0.0182296838611364,standing,2026-03-04_13-52-17
1772632342673217300,4.69621728515625,-0.0055148544313386,-0.0002077975317835,0.0832160433471202,0.0212036669254302,-0.0059918393380939,-0.0199208483099937,standing,2026-03-04_13-52-17
1772632342683166200,4.706166259765625,-0.0034423224736005,-0.0045877661816775,0.1287789401262998,0.0175442174077034,-0.0170394293963909,-0.0205709245055913,standing,2026-03-04_13-52-17
1772632342693114400,4.7161142578125,-0.010052315197885,0.0129360539406538,0.1082727431923151,0.0155248967930674,-0.0184061713516712,-0.0201976019889116,standing,2026-03-04_13-52-17
1772632342703063300,4.726063232421875,-0.0185719774683937,0.0395788539335131,0.0913905819743871,0.0118657145649194,-0.0108827408403158,-0.0199027899652719,standing,2026-03-04_13-52-17
1772632342713011200,4.73601123046875,-0.0170262823963537,0.0639637919969856,0.0639250674217939,0.0033725600223988,0.0026034896727651,-0.0142541108652949,standing,2026-03-04_13-52-17
1772632342722960100,4.745960205078125,0.0054875280329957,0.0741013012602925,0.0597170943379402,-0.0083155212923884,0.0179145354777574,-0.0115022668614983,standing,2026-03-04_13-52-17
1772632342732908300,4.755908203125,-0.024671755648218,0.0606033756531775,0.0809106890141963,-0.0172012038528919,0.0230512507259845,-0.0137757053598761,standing,2026-03-04_13-52-17
1772632342742857200,4.765857177734375,-0.036211532924883,0.0303393164232373,0.0832142897814512,-0.0234148912131786,0.0179321225732564,-0.0170844160020351,standing,2026-03-04_13-52-17
1772632342752805000,4.77580517578125,-0.0315257497288286,0.0123427642226219,0.0632657267302274,-0.0178731735795736,0.00621248036623,-0.0187623668462038,standing,2026-03-04_13-52-17
1772632342762754300,4.78575439453125,0.0122878556976094,0.0059602235786616,0.0219838682711124,-0.0073403720743954,0.0025948430411517,-0.0131521513685584,standing,2026-03-04_13-52-17
1772632342772702200,4.7957021484375,0.0434241311848163,0.031016777293384,0.0058346975028514,0.0041377325542271,0.0014338176697492,-0.0065416977740824,standing,2026-03-04_13-52-17
1772632342782651100,4.805651123046875,0.0304184095414355,0.0453936776921153,-0.0074281041741371,0.0094534019008278,-0.0031521457713097,-0.0021450852509588,standing,2026-03-04_13-52-17
1772632342792599300,4.815599365234375,0.012326507207565,0.0463216061919927,0.0076297642260789,0.0035105026327073,-0.0133479284122586,-0.0037439395673573,standing,2026-03-04_13-52-17
1772632342802548200,4.82554833984375,-0.0104159974111244,0.0196510414093732,0.0661100102454423,-0.0062326723709702,-0.0227155964821577,-0.00717169418931,standing,2026-03-04_13-52-17
1772632342812496100,4.83549609375,-0.043341896261461,-0.0190961840055882,0.0469201566070318,-0.0116860494017601,-0.0140360472723841,-0.0080685578286647,standing,2026-03-04_13-52-17
1772632342822445000,4.845445068359375,-0.0102666155356913,0.0108374742262065,-0.0445960975736379,-0.0116362478584051,0.003240410471335,-0.0035204112064093,standing,2026-03-04_13-52-17
1772632342832393200,4.855393310546875,-0.0125520230591297,0.068157444294542,-0.1092787053644657,-0.0090344632044434,0.0144361853599548,-0.0006274639163166,standing,2026-03-04_13-52-17
1772632342842342100,4.865342041015625,0.0044746246634051,0.0648763767972588,-0.0965069020748138,-0.0092198206111788,0.0182194728404283,0.0045755538158118,standing,2026-03-04_13-52-17
1772632342852290000,4.8752900390625,0.008328121753782,0.0304074132233858,-0.0626671763151884,-0.0086902733892202,0.0189744848757982,0.005003840662539,standing,2026-03-04_13-52-17
1772632342862239200,4.8852392578125,-0.0211562583405524,0.0248550397932529,-0.0023690672188997,-0.004154376219958,0.0202916841953992,0.0041742660105228,standing,2026-03-04_13-52-17
1772632342872187100,4.895187255859375,-0.0301725450215861,0.0312467866569757,-0.0095545948088169,0.0078241135925054,0.0203512273728847,0.0024046399630606,standing,2026-03-04_13-52-17
1772632342882136000,4.905135986328125,-0.0149084499921649,0.0313046543240547,-0.0156651866436004,0.0133088938891887,0.0155053390190005,0.0036917459219694,standing,2026-03-04_13-52-17
1772632342892084200,4.915084228515625,-0.0198178858762606,0.0341908772848546,0.0316208806663751,0.0158618316054344,0.0073441113345324,0.0021228671539574,standing,2026-03-04_13-52-17
1772632342902033200,4.925033203125,-0.0321035130841657,0.0210514097265899,0.0709071813941001,0.0102646667510271,0.0039288732223212,0.0001942059025168,standing,2026-03-04_13-52-17
1772632342911981000,4.93498095703125,-0.0430896385334432,0.0038718729972839,0.1004080011665821,0.0027715004980564,0.0085855526849627,-0.0011022775433957,standing,2026-03-04_13-52-17
1772632342921930200,4.94493017578125,-0.0630872283581644,0.0059152153931558,0.098420042219758,-0.0047953389585018,0.0190062336623668,0.0004937548656016,standing,2026-03-04_13-52-17
1772632342931878100,4.954878173828125,-0.0656601841187104,-0.0087719199985265,0.1165565874129533,-0.0121335387229919,0.0207731667906045,-0.0003599179908633,standing,2026-03-04_13-52-17
1772632342941826000,4.964825927734375,-0.0726970970181748,-0.0150660517066717,0.1458680220931768,-0.0188710708171129,0.0162039808928966,-0.003908846527338,standing,2026-03-04_13-52-17
1772632342951775200,4.974775146484375,-0.0530301639199256,-0.0381527666531503,0.170495098349452,-0.0211122203618288,0.0097650550305843,-0.0035602112766355,standing,2026-03-04_13-52-17
1772632342961723100,4.98472314453125,-0.0334673487832769,-0.0546685787767171,0.1721808594793081,-0.0258055087178945,-0.0057401354424655,-0.0101161152124404,standing,2026-03-04_13-52-17
1772632342971672300,4.99467236328125,-0.0638147389151155,-0.0757997757412493,0.1532090325057506,-0.0265691578388214,-0.0278524365276098,-0.0237620137631893,standing,2026-03-04_13-52-17
1772632342981620200,5.0046201171875,-0.0855873755883425,-0.0971010685756802,0.1191109480708837,-0.0321948193013668,-0.0412358902394771,-0.0332726947963237,standing,2026-03-04_13-52-17
1772632342991569400,5.0145693359375,-0.0884189457524567,-0.0630965076431632,0.0474351203918457,-0.0374556742608547,-0.0390358418226242,-0.0324440822005271,standing,2026-03-04_13-52-17
1772632343001517300,5.024517333984375,-0.0445691730340942,0.0068958969935774,-0.0318359847217798,-0.0425769314169883,-0.0236062817275524,-0.0210116673260927,standing,2026-03-04_13-52-17
1772632343011466200,5.03446630859375,-0.0138609137006103,0.0513495173566043,-0.1289215634673833,-0.0336410775780677,0.001763971755281,-0.0095102405175566,standing,2026-03-04_13-52-17
1772632343021414400,5.044414306640625,-0.0118847547894343,0.0817014010004699,-0.2200526177227497,-0.0167587678879499,0.0246256124228239,-0.0013417926384136,standing,2026-03-04_13-52-17
1772632343031363300,5.05436328125,-0.045411615207605,0.0895044759668409,-0.2712877149194478,-0.0014475537464022,0.0381548777222633,0.005336825735867,standing,2026-03-04_13-52-17
1772632343041311200,5.064311279296875,-0.0396936028869822,0.0362771820396184,-0.1946533880501985,0.0110051212832331,0.0364701636135578,0.0067762648686766,standing,2026-03-04_13-52-17
1772632343051260200,5.07426025390625,-0.0153856025172397,-0.0041430911540985,-0.0885077200144529,0.0157734584063291,0.0265367794781923,0.0082058729603886,standing,2026-03-04_13-52-17
1772632343061208300,5.084208251953125,-0.0208041204346343,-0.0306355228908359,0.0182370829582214,0.0212936587631702,0.0098632611334323,-0.0005207729991525,standing,2026-03-04_13-52-17
1772632343071157200,5.0941572265625,-0.014041348301433,-0.0472523111708462,0.0937795229375362,0.0178882852196693,-0.001872343593277,-0.007626892067492,standing,2026-03-04_13-52-17
1772632343081105200,5.104105224609375,-0.0176875958492979,-0.0477136450722813,0.1627840855807066,0.0042076269164681,-0.0099885929375886,-0.0115942023694515,standing,2026-03-04_13-52-17
1772632343091054000,5.11405419921875,-0.0227307045830413,-0.051807928648591,0.2000584619641303,-0.0139647331088781,-0.0161399226635694,-0.0145736569538712,standing,2026-03-04_13-52-17
1772632343101002200,5.124002197265625,0.011590411485359,-0.0345021351911127,0.196280696991086,-0.0283159743994474,-0.0149838430806994,-0.0130809554830193,standing,2026-03-04_13-52-17
1772632343110951200,5.133951171875,0.0332743104292079,-0.003255348534137,0.1464151345819234,-0.0383928753435611,-0.0043733064085245,-0.0078715346753597,standing,2026-03-04_13-52-17
1772632343120899300,5.1438994140625,0.0161885163979604,0.0405683033622801,0.0705547146946191,-0.0431460849940776,0.0090535534545779,-0.0052256844937801,standing,2026-03-04_13-52-17
1772632343130848300,5.15384814453125,0.0118665250129997,0.0456361081458628,0.0236965174078941,-0.0436198152601718,0.0127691831439733,-0.0042212414555251,standing,2026-03-04_13-52-17
1772632343140796200,5.163796142578125,-0.0205999030994251,0.0324649302750825,-0.0073597151130437,-0.0369672365486621,0.0131324380636215,-0.0060068909078836,standing,2026-03-04_13-52-17
1772632343150745000,5.1737451171875,-0.0230197506574913,0.0322097864702343,-0.0344920521885156,-0.0266806967556476,0.009347116574645,-0.0071322722360491,standing,2026-03-04_13-52-17
1772632343160693200,5.183693359375,0.010601984969899,0.0288140065521001,-0.0624994185328483,-0.0171942505985498,0.0031470118556171,-0.0054693948477506,standing,2026-03-04_13-52-17
1772632343170642200,5.19364208984375,0.0349594505045562,0.0472511421270668,-0.0566349104136228,-0.0055764690041542,-0.0117343189194798,0.0014532192144542,standing,2026-03-04_13-52-17
1772632343180590000,5.203590087890625,0.0661380672961473,0.0557509671859443,-0.0633838001519441,-0.0008834470063447,-0.0260306987911462,0.0027805387508124,standing,2026-03-04_13-52-17
1772632343190539000,5.2135390625,0.042274084366858,0.035399522422254,-0.1131067392200231,0.004938343539834,-0.0223013218492269,0.0080906599760055,standing,2026-03-04_13-52-17
1772632343200487200,5.223487060546875,0.0388616455748677,0.0268688638336956,-0.1865033993422985,0.0108771920204162,0.004945745691657,0.0161991864442825,standing,2026-03-04_13-52-17
1772632343210436000,5.23343603515625,0.0406096948185935,0.0566302342385053,-0.2266208901971578,0.0148485228419303,0.0303432755172252,0.0224466826766729,standing,2026-03-04_13-52-17
1772632343220384000,5.243384033203125,0.0260233163876459,0.0705209585554897,-0.1891407621085643,0.0091887731105089,0.0389711186289787,0.0283120293170213,standing,2026-03-04_13-52-17
1772632343230333200,5.253333251953125,0.0232866214327514,0.015571809271723,-0.0793248811274766,0.0053519010543823,0.033988207578659,0.0326259285211563,standing,2026-03-04_13-52-17
1772632343240281000,5.263281005859375,0.0053719753619283,-0.0192959443613886,0.0134901806920766,0.0062813442200422,0.0252541061490774,0.0248787906020879,standing,2026-03-04_13-52-17
1772632343250230300,5.273230224609375,-0.0428931661132723,-0.0560828294888138,0.0478600678056478,0.0037175954785197,0.0180159956216812,0.0179884620010852,standing,2026-03-04_13-52-17
1772632343260178200,5.28317822265625,-0.054083180104196,-0.0610119564540684,0.0806698659956455,-0.0004587736912071,0.0176079999655485,0.0155820306390523,standing,2026-03-04_13-52-17
1772632343270127400,5.29312744140625,-0.0495030857723206,-0.0615061697117984,0.0897305398076772,-0.0033426592126488,0.0104345669969916,0.0118663646280765,standing,2026-03-04_13-52-17
1772632343280075300,5.3030751953125,-0.0510802354285493,-0.0445107573777437,0.1192021334856748,-0.0015223883092403,0.006963669322431,0.0133795728906989,standing,2026-03-04_13-52-17
1772632343290024200,5.313024169921875,-0.0355745867282152,-0.016758827099204,0.0761836604923009,0.0058112726546823,0.0122213661670684,0.0164363160729408,standing,2026-03-04_13-52-17
1772632343300594200,5.32359423828125,-0.0469258556954562,0.0110763975486159,0.0570768089622259,0.0137094091624021,0.0126192420721054,0.0166688077151775,standing,2026-03-04_13-52-17
1772632343310541600,5.33354150390625,-0.0663947454709559,0.0209274910859763,0.0730395172476768,0.0099303666502237,-0.001687484793365,0.0072301244363188,standing,2026-03-04_13-52-17
1772632343320490500,5.343490478515625,-0.102976426882483,-0.0152367320984601,0.1666857691943645,-8.87117348611e-05,-0.0115443766117095,0.0008678319863975,standing,2026-03-04_13-52-17
1772632343330438700,5.353438720703125,-0.1017297878222539,-0.0427304498322308,0.1668365758419036,-0.0127984527498483,-0.0105481054633855,-0.0039811381138861,standing,2026-03-04_13-52-17
1772632343340387600,5.3633876953125,-0.137361511565186,-0.0196459268428385,0.1504109262198209,-0.0271861795336008,-0.00653951568529,-0.009555134922266,standing,2026-03-04_13-52-17
1772632343350335500,5.37333544921875,-0.1161866215893998,-0.0036235973246395,0.1290723701149225,-0.036404613405466,-0.0081553971394896,-0.0083188377320766,standing,2026-03-04_13-52-17
1772632343360285000,5.383284912109375,-0.0616871888345107,0.0111709439642727,0.0817518160134553,-0.033994186669588,-0.0072294161655008,-0.0037997202016413,standing,2026-03-04_13-52-17
1772632343370232600,5.393232666015625,-0.0425100120145827,0.0525089165247976,0.0230669873327016,-0.0217409934848546,0.0011345488019287,0.0010204256977885,standing,2026-03-04_13-52-17
1772632343380181800,5.403181640625,-0.0536322579989209,0.0576359041497111,-0.0247264449775218,-0.0111842229962348,-2.1529616788e-05,-0.0018296892521902,standing,2026-03-04_13-52-17
1772632343390130000,5.4131298828125,-0.0923030206441879,0.0487635925166308,-0.0065957450032234,-0.0095639880746603,-0.0139682674780488,-0.0053202835842967,standing,2026-03-04_13-52-17
1772632343400078800,5.423078857421875,-0.0768824929440394,0.0103426764465868,0.0521890369206666,-0.0127632431685924,-0.0287884920835495,-0.0069509372115135,standing,2026-03-04_13-52-17
1772632343410026800,5.43302685546875,-0.0658738268693909,-0.0106156481690704,0.0660550651878118,-0.0188704170286655,-0.0312456730753183,-0.0123563492670655,standing,2026-03-04_13-52-17
1772632343419975700,5.4429755859375,-0.0911788754524663,-0.0052910921454429,0.0257949509918689,-0.0215855091810226,-0.0181820690631866,-0.0160589404404163,standing,2026-03-04_13-52-17
1772632343429923800,5.452923828125,-0.1026878922646865,0.0066843000695109,-0.0270019886940717,-0.0193297117948532,0.010560143738985,-0.0141868637874722,standing,2026-03-04_13-52-17
1772632343439872800,5.462872802734375,-0.0601954159067943,0.0076451079256832,-0.0783995829761028,-0.0193462222814559,0.0107265915721654,-0.0144286789000034,standing,2026-03-04_13-52-17
1772632343449820700,5.472820556640625,-0.039170200067386,-0.0120813368074595,-0.0161129304111003,-0.0099746603518724,0.0047879624180495,-0.0113962795585393,standing,2026-03-04_13-52-17
1772632343459769600,5.48276953125,0.0078542571643367,-0.0436944725587964,0.0062584758728742,0.0008034193888306,-0.0096703395247459,-0.0090479040518403,standing,2026-03-04_13-52-17
1772632343469717800,5.4927177734375,-0.0029827056052163,-0.0484818529658019,0.015468202766776,0.0050583318807184,-0.0369597785174846,-0.0154999308288097,standing,2026-03-04_13-52-17
1772632343479666700,5.502666748046875,-0.0565239243198186,-0.0750756992504,0.0528022003829479,0.0018076775595545,-0.0566344149410724,-0.0289725959300994,standing,2026-03-04_13-52-17
1772632343489614800,5.51261474609375,-0.0769571656154468,-0.1024964978784322,0.0352367330759763,-0.010316695086658,-0.056251935660839,-0.038261778652668,standing,2026-03-04_13-52-17
1772632343499563800,5.522563720703125,-0.0775437333317473,-0.0535506806626915,-0.0114016839802265,-0.0227206349372863,-0.0361408069729805,-0.0371866598725318,standing,2026-03-04_13-52-17
1772632343509511700,5.53251171875,-0.0640209290117025,0.0113321258753538,-0.0909714797794818,-0.026557195931673,-0.0071801417507231,-0.0268437340855598,standing,2026-03-04_13-52-17
1772632343519460600,5.542460693359375,-0.0486161103373393,0.0722116881214082,-0.1579676252096891,-0.0222127828747034,0.0149360792711377,-0.0131460335105657,standing,2026-03-04_13-52-17
1772632343529408800,5.55240869140625,-0.0126365595374256,0.0959393313199281,-0.1781827302426099,-0.0077700950205326,0.0181240066885948,-0.0031260987743735,standing,2026-03-04_13-52-17
1772632343539357700,5.562357666015625,-0.031449286959134,0.0626047786034643,-0.1961561938285827,0.0147328171879053,0.0241153202950954,-0.002615038305521,standing,2026-03-04_13-52-17
1772632343549305600,5.5723056640625,-0.0828385152716189,0.0202200734689831,-0.2015039845973253,0.0416450798511505,0.0260631684213876,-0.0102387676015496,standing,2026-03-04_13-52-17
1772632343559254500,5.582254638671875,-0.1333513626083731,0.0115343704491853,-0.1310866325467825,0.0532154515385627,0.0113950101658701,-0.0209883507341146,standing,2026-03-04_13-52-17
1772632343569202700,5.59220263671875,-0.0973776204947382,-0.0281049814999103,0.0063069911897182,0.0440199635922908,-0.0085343774408102,-0.0266806352883577,standing,2026-03-04_13-52-17
1772632343579151600,5.602151611328125,-0.0359433104427531,-0.0334809754498302,0.1408206755757332,0.0268532298505306,-0.0111461393535137,-0.0291310101747512,standing,2026-03-04_13-52-17
1772632343589099500,5.612099609375,-0.0273225624179467,-0.0266315479464828,0.2026093154907226,0.000847443472594,-0.0033881131093949,-0.0318133346736431,standing,2026-03-04_13-52-17
1772632343599048700,5.622048583984375,-0.0336167671913281,-0.0241463070020079,0.2330564762026071,-0.0243777502328157,-0.0099570658057928,-0.0331694148480892,standing,2026-03-04_13-52-17
1772632343608996600,5.63199658203125,-0.0207353295147418,-0.0315133286386728,0.2216302423030137,-0.0366133898496627,-0.012533850967884,-0.0331081412732601,standing,2026-03-04_13-52-17
1772632343618945500,5.641945556640625,-0.0034666166646406,-0.0130405372284352,0.1059124438017606,-0.030054822564125,-0.002174953231588,-0.028772247955203,standing,2026-03-04_13-52-17
1772632343628893700,5.651893798828125,-0.026335962533392,0.0369816770471632,0.0025473463952541,-0.0181135013699531,0.0070790676400065,-0.0311477147042751,standing,2026-03-04_13-52-17
1772632343639462700,5.662462646484375,-0.0714864060541614,0.0436171695388853,-0.0558469749063253,-0.0013244012370705,0.0049900840967893,-0.0345602892339229,standing,2026-03-04_13-52-17
1772632343649411600,5.67241162109375,-0.0587386046946048,-0.0026949381723999,-0.0980325042068958,0.0172858238220214,0.0084619168192148,-0.0352775864303112,standing,2026-03-04_13-52-17
1772632343659359700,5.68235986328125,-0.020234576918371,0.0136468325585126,-0.0909165347218513,0.0251602567732334,0.0137853100895881,-0.0314170680940151,standing,2026-03-04_13-52-17
1772632343669308700,5.69230859375,-0.011690218598023,0.0228849087640643,-0.0229313782542943,0.0216546840965747,-0.0023997323587536,-0.0312943682074546,standing,2026-03-04_13-52-17
1772632343679256600,5.702256591796875,0.0310968567922711,0.0182364984363317,0.08120236543715,0.0115711567923426,-0.0281748715788126,-0.0282908584922552,standing,2026-03-04_13-52-17
1772632343689205800,5.712205810546875,0.0730678300267085,-0.0092915599584579,0.102832597965002,0.0022476795129477,-0.0291143152862787,-0.0220577232539653,standing,2026-03-04_13-52-17
1772632343699153700,5.722153564453125,0.0479119075907394,0.0278032220743596,0.0264800106465816,-0.0002748668193817,-0.0169742964208126,-0.0243499055504798,standing,2026-03-04_13-52-17
1772632343709102600,5.7321025390625,-0.0301943915272131,0.0414027083598077,-0.0289221431016921,-0.005114012863487,-0.0049197869375348,-0.0297448765486478,standing,2026-03-04_13-52-17
1772632343719050800,5.74205078125,-0.0441967229925096,0.0310578399561345,-0.0460398666411638,-0.0100184902548789,0.0139921186491847,-0.0267927628010511,standing,2026-03-04_13-52-17
1772632343728999700,5.751999755859375,-0.0292804184874519,0.0476949403718113,-0.0603553922414779,-0.0117140375077724,0.0321292877197265,-0.0246456582099199,standing,2026-03-04_13-52-17
1772632343738947600,5.761947509765625,-0.0473118228057399,0.0642211277589202,-0.0585614945620298,-0.0108759403228759,0.0308554992079734,-0.0216757003217935,standing,2026-03-04_13-52-17
1772632343748896500,5.771896484375,-0.0045811172451823,0.0527418484978377,-0.0262801041603088,-0.0036161076277494,0.0219084788113832,-0.0163375027477741,standing,2026-03-04_13-52-17
1772632343758844700,5.7818447265625,0.0346578006768599,0.0492345710292458,-0.0307400061786174,0.0100741386413574,0.0034301348496228,-0.0115856239572167,standing,2026-03-04_13-52-17
1772632343768793600,5.791793701171875,0.0293215176828205,0.0543115820325911,-0.026012977656722,0.019910030066967,-0.0095955450087785,-0.0095710372552275,standing,2026-03-04_13-52-17
1772632343778741500,5.801741455078125,0.0166645364118739,0.0589464022263884,-0.0333580797225236,0.0287759602069854,-0.0095601249486207,-0.0077347876504063,standing,2026-03-04_13-52-17
1772632343788690700,5.811690673828125,0.0091153996739536,0.0630287031039595,-0.0181540808498859,0.024769527837634,-0.002834401326254,-0.0090751759707927,standing,2026-03-04_13-52-17
1772632343798638600,5.821638671875,-0.0206108263522386,0.0649726767785847,0.0263251123458147,0.0110803470015525,0.0054927710443735,-0.0136571452021598,standing,2026-03-04_13-52-17
1772632343808587800,5.831587890625,-0.0250232724996283,0.0329531521834433,0.0880687440752983,-0.0080964136868715,0.0113291721791028,-0.0138270845636725,standing,2026-03-04_13-52-17
1772632343818535700,5.84153564453125,-0.0248816720718517,0.0133393740445375,0.1389665721416473,-0.0227842796593904,0.011470852419734,-0.0150020718574523,standing,2026-03-04_13-52-17
1772632343828484900,5.85148486328125,-0.0263663576716557,0.0246732534855604,0.1438151812165975,-0.0297261625528335,0.0003629778511822,-0.0169766098260879,standing,2026-03-04_13-52-17
1772632343838432800,5.861432861328125,0.0048604456432163,0.0308478504672646,0.0933206732541322,-0.0184631198644638,-0.0053300615400075,-0.0139672383666038,standing,2026-03-04_13-52-17
1772632343848381700,5.871381591796875,0.0316786752682179,0.0672888447664678,-0.0292570741444826,0.0053358981385827,0.0022164019756019,-0.0065715317614376,standing,2026-03-04_13-52-17
1772632343858329900,5.881329833984375,0.0396224373469129,0.1115185932457447,-0.1116711534589529,0.0262286625802516,0.0033575664274394,-0.0006159048061817,standing,2026-03-04_13-52-17
1772632343868278800,5.89127880859375,0.0299245250772684,0.121181470734626,-0.0761801533609628,0.0326328016817569,-0.0090196337550878,0.0004580533131957,standing,2026-03-04_13-52-17
1772632343878226700,5.901226806640625,0.0280430221796035,0.0851432120174169,0.0008382043898105,0.0228949561715126,-0.0125421974807977,0.0020314489956945,standing,2026-03-04_13-52-17
1772632343888175600,5.911175537109375,0.0148306720482185,0.0680367405243217,0.0913899974524974,0.0027704988606274,-0.0117443921044468,-0.001035631285049,standing,2026-03-04_13-52-17
1772632343898123800,5.921123779296875,-0.0270545956641435,0.0420820689260959,0.1321037006348371,-0.0148340612649917,-0.0141209969297051,-0.0091750510036945,standing,2026-03-04_13-52-17
1772632343908071700,5.93107177734375,-0.076200319366157,0.0233269534431397,0.0747942519605159,-0.0187387205660343,0.0057602473534643,-0.010461812838912,standing,2026-03-04_13-52-17
1772632343918020600,5.9410205078125,-0.0415142059102654,0.0598977116018533,-0.0656090749859809,-0.0106802592054009,0.039604764431715,0.0004161340184509,standing,2026-03-04_13-52-17
1772632343927968800,5.95096875,0.0021401173012331,0.1218834815241396,-0.1276841306269169,0.0070461244322359,0.0604252442717552,0.0147077655419707,standing,2026-03-04_13-52-17
1772632343937917700,5.960917724609375,0.0203994851564988,0.1201027355872094,-0.0380582202374935,0.0154009936377406,0.0365681163966655,0.0149743473157286,standing,2026-03-04_13-52-17
1772632343947865600,5.970865478515625,0.0101562504963949,0.0083238839700818,0.1040869819402694,0.0136037366464734,-0.0021579703316092,0.0140367001295089,standing,2026-03-04_13-52-17
1772632343957814800,5.980814697265625,0.0102261008622124,-0.0519865000858902,0.1764250729203224,0.0104012852534651,-0.0259706247597932,0.0092970728874206,standing,2026-03-04_13-52-17
1772632343967762700,5.9907626953125,-0.0269916499631479,-0.0748788615040481,0.2151695218563079,-0.0021604122593998,-0.0467798896133899,-0.0026123749557882,standing,2026-03-04_13-52-17
1772632343977711600,6.000711669921875,-0.0877927401455119,-0.0900466200195252,0.2171539736717939,-0.0192160941660404,-0.0688250064849853,-0.0193716473877429,standing,2026-03-04_13-52-17
1772632343987659800,6.01065966796875,-0.110490419241786,-0.1073135427713394,0.1454892519086599,-0.0309533216059207,-0.0647094696760177,-0.0245740879327058,standing,2026-03-04_13-52-17
1772632343997608700,6.020608642578125,-0.1054504157805815,-0.04079699755162,-0.0382785849899053,-0.0337523035705089,-0.0208519995212554,-0.0214643161743879,standing,2026-03-04_13-52-17
1772632344007556600,6.030556640625,-0.1070305611114948,0.072863868419826,-0.2021077957093715,-0.0309467613697052,0.0236875768750906,-0.0118802636861801,standing,2026-03-04_13-52-17
1772632344017505500,6.040505615234375,-0.1031958417868241,0.1328659171789884,-0.256971604797244,-0.0228009484708309,0.0437044277787208,-0.0003088291268795,standing,2026-03-04_13-52-17
1772632344027453700,6.05045361328125,-0.0325027780674397,0.1177178862772881,-0.2335059735357761,-0.0084452386945486,0.048782791942358,0.0179776139557361,standing,2026-03-04_13-52-17
1772632344037402600,6.060402587890625,0.0075720426894724,0.1060685111463069,-0.1772112548619508,0.0130083877593278,0.0313950143754482,0.0239910334348678,standing,2026-03-04_13-52-17
1772632344047350500,6.0703505859375,-0.0021061054337769,0.0972352163493633,-0.0999742859244346,0.0331694222986698,-0.0013130069710314,0.0194690432399511,standing,2026-03-04_13-52-17
1772632344057299700,6.0802998046875,-0.0304524214088916,0.0410813674509525,-0.0545598577052354,0.0464109256863594,-0.0172496289014816,0.0084486156702041,standing,2026-03-04_13-52-17
1772632344067247600,6.09024755859375,-0.0393659053025767,0.0013667583085596,-0.0334732305347919,0.0487662889063358,-0.0133956037461757,0.0011892495676875,standing,2026-03-04_13-52-17
1772632344077196500,6.100196533203125,-0.0571228035284206,0.0107810678638517,-0.002681786429882,0.0392361693084239,0.0065040686167776,-0.0032473104074597,standing,2026-03-04_13-52-17
1772632344087144700,6.110144775390625,-0.0242860442662611,0.0290839095346629,0.0662608168929815,0.0175276063382625,0.0192641243338584,-0.0007368245860561,standing,2026-03-04_13-52-17
1772632344097093600,6.12009375,0.0561094983000308,0.0365327642358839,0.1502051745146513,-0.0110523719340562,0.0200681332498788,0.0063029751181602,standing,2026-03-04_13-52-17
1772632344107041500,6.13004150390625,0.0743525360750034,0.002761135276407,0.2249596789866685,-0.0319646596908569,0.0153658892959356,0.0101431077346205,standing,2026-03-04_13-52-17
1772632344116990700,6.13999072265625,0.0599625569989904,0.0025727730974555,0.1995300541758537,-0.0341231524944305,0.0051862234249711,0.0091766463592648,standing,2026-03-04_13-52-17
1772632344126938600,6.149938720703125,0.0468078188063576,-0.011667349179089,0.0731710346728563,-0.0200577825307846,0.0057818186469376,0.0088450387120246,standing,2026-03-04_13-52-17
1772632344136887800,6.1598876953125,0.0171270758897066,0.0107487730294466,-0.0557470216631889,0.003124768147245,0.0136762280017137,0.0079187918454408,standing,2026-03-04_13-52-17
1772632344146835700,6.169835693359375,-0.0129598366750404,0.0421402288541197,-0.1013251160115003,0.0201332569122314,0.0087226126343011,0.0048338929191231,standing,2026-03-04_13-52-17
1772632344156785000,6.179784912109375,-0.0199874337568879,0.012269698986411,-0.0575549478679895,0.0257570557296276,0.0006979750469326,0.000345135340467,standing,2026-03-04_13-52-17
1772632344166732800,6.18973291015625,-0.0248669128941372,0.0065494216434657,0.0133510644823312,0.018089510500431,-0.0052649499848484,-0.0019030105322599,standing,2026-03-04_13-52-17
1772632344176681700,6.199681640625,-0.0077036697125062,0.0401521237768232,0.0936135187208652,-0.0006668670102953,-0.0059275445528328,0.0038800435140728,standing,2026-03-04_13-52-17
1772632344186630000,6.2096298828125,0.0289523921094834,0.0743104139663279,0.1175795007199048,-0.0174508262425661,-0.0063694147393107,0.0114885075017809,standing,2026-03-04_13-52-17
1772632344196578800,6.219578857421875,0.0374901014933362,0.0998230408854782,0.0782347478032112,-0.0217899139970541,0.0037748322356492,0.0218151789158582,standing,2026-03-04_13-52-17
1772632344206526700,6.229526611328125,0.0018386136040091,0.1213984744861721,-0.0162707513213157,-0.0129800364375114,0.0129332393407821,0.0232328046113252,standing,2026-03-04_13-52-17
1772632344216475600,6.2394755859375,-0.072294799827598,0.1227474048770964,-0.0982388404339551,-0.0015699891373515,0.0118927434086799,0.0223414432257413,standing,2026-03-04_13-52-17
1772632344226423800,6.249423828125,-0.0728114806454628,0.1031584689185023,-0.1040478189736604,0.0107070412486791,0.0067207715474069,0.0247745532542467,standing,2026-03-04_13-52-17
1772632344236372700,6.259372802734375,-0.0747158529620617,0.0708721100807189,-0.0788870742321014,0.0223391968756914,0.0086406450718641,0.0224086008965969,standing,2026-03-04_13-52-17
1772632344246320600,6.269320556640625,-0.1025706225605681,0.0556378622002899,-0.051897360497713,0.0252153035253286,0.0060001639649271,0.0176068022847175,standing,2026-03-04_13-52-17
1772632344256269600,6.27926953125,-0.0874832358049228,0.0560559414818882,0.0312818579703569,0.0195454340428113,-0.0061057675629854,0.0175756439566612,standing,2026-03-04_13-52-17
1772632344266217700,6.2892177734375,-0.0517613130278885,0.0201638132371008,0.0565045620322227,0.016551736742258,-0.0083963125944137,0.0224184226244688,standing,2026-03-04_13-52-17
1772632344276166700,6.299166748046875,-0.0450888495266437,0.0232179401107132,0.0687467884898185,0.0135519513860344,-0.0048985164612531,0.0228607729077339,standing,2026-03-04_13-52-17
1772632344286114800,6.30911474609375,-0.0437707161327824,0.0402025387898087,0.0513964252382516,0.0092930719256401,-0.0077145546674728,0.0215274952352046,standing,2026-03-04_13-52-17
1772632344296063700,6.319063720703125,-0.0720048404376953,-0.0020462650053203,0.0739993021905422,-0.0003036288544535,-0.019325403496623,0.0129276141524314,standing,2026-03-04_13-52-17
1772632344306012200,6.32901220703125,-0.1106631819928064,-0.0492202502429485,0.0968289736360311,-0.0122756035998463,-0.0239704884588718,0.0013061119243502,standing,2026-03-04_13-52-17
1772632344315961000,6.338961181640625,-0.168974355055578,-0.0882289030730724,0.0674415511101484,-0.0207705534994602,-0.0215595290064811,-0.0159005708992481,standing,2026-03-04_13-52-17
1772632344325909200,6.3489091796875,-0.1978504670584574,-0.0963205857224762,-0.0306219327569007,-0.017969911918044,-0.0104442769661545,-0.0241508930921554,standing,2026-03-04_13-52-17
1772632344335858200,6.358858154296875,-0.1594410222304985,-0.0400422336615622,-0.1326204179853201,-0.0062043331563472,0.0123931281268596,-0.0198592096567153,standing,2026-03-04_13-52-17
1772632344345806000,6.36880615234375,-0.0867700095016509,0.0369391530796885,-0.1814016922891139,0.0120419943705201,0.023770548403263,-0.0090533252805471,standing,2026-03-04_13-52-17
1772632344355755000,6.378755126953125,-0.0379556731784716,0.0738195617094635,-0.1800637216836214,0.0323499292135238,0.020304711535573,0.0016315435059368,standing,2026-03-04_13-52-17
1772632344365703200,6.388703125,-0.0056984673699364,0.0498708231061697,-0.1266939505457878,0.0432381704449653,0.0097586158663034,0.0022967373952269,standing,2026-03-04_13-52-17
1772632344375652000,6.398652099609375,-0.0334045492127537,0.029570524007827,-0.022148703444004,0.0405880622565746,0.0009273076429963,-0.0063651939854025,standing,2026-03-04_13-52-17
1772632344385600000,6.40860009765625,-0.0863201468423008,-0.0081586104057729,0.0720621966481208,0.0305119901895523,-0.0070560500025749,-0.0172266289591789,standing,2026-03-04_13-52-17
1772632344395549200,6.418549072265625,-0.0995144863929599,-0.0232706932112574,0.1413800630241632,0.0095457229763269,-0.0108981924131512,-0.0244456604123115,standing,2026-03-04_13-52-17
1772632344405497000,6.4284970703125,-0.0594762713193893,0.0151158821977674,0.1736065083682537,-0.0045887376181781,-0.0169148053973913,-0.0257396902889013,standing,2026-03-04_13-52-17
1772632344415446000,6.438446044921875,-0.0323928148869425,0.0479391243912279,0.1386322256207466,-0.0091217048466205,-0.0081905573606491,-0.0206543840467929,standing,2026-03-04_13-52-17
1772632344425394200,6.448394287109375,-0.0065514674700796,0.1027599711202085,0.0243862532377243,-0.0028038518503308,0.0127963246777653,-0.0115161081776022,standing,2026-03-04_13-52-17
1772632344435343400,6.45834326171875,0.0219715202461928,0.1405966575615108,-0.0128612351387739,0.0076607726514339,0.026082569733262,0.0036532569210976,standing,2026-03-04_13-52-17
1772632344445291000,6.468291015625,0.0527514565763995,0.141000854448229,0.0289531227618455,0.0062298439443111,0.0159590654075145,0.0074956798925995,standing,2026-03-04_13-52-17
1772632344455240200,6.478240234375,0.0337363384503871,0.0690809888802468,0.1408095696598291,-0.0003452342934906,-0.0126494094729423,-0.0004392084665596,standing,2026-03-04_13-52-17
1772632344465188400,6.488188232421875,0.0293111789518967,-0.0145402742668986,0.1971335144281387,-0.0079679545015096,-0.0346168205142021,-0.0020094416104257,standing,2026-03-04_13-52-17
1772632344475137300,6.49813720703125,0.0394177085550501,0.0043269232884049,0.158169285261631,-0.0123760197311639,-0.0471685640513896,-0.0031660522799938,standing,2026-03-04_13-52-17
1772632344485085200,6.508085205078125,0.0211404031842947,0.0241902922742068,0.1277408292502165,-0.0202019251883029,-0.06349728256464,-0.0044322949834167,standing,2026-03-04_13-52-17
1772632344495034000,6.5180341796875,0.0445110861713066,0.0396761768281459,0.0236573544412851,-0.0210797041654586,-0.0600365065038204,0.0065604350529611,standing,2026-03-04_13-52-17
1772632344504982300,6.527982177734375,0.0722094961643219,0.0750824212521314,-0.1014911202281713,-0.0170546285808086,-0.0294003803282976,0.0182909406721591,standing,2026-03-04_13-52-17
1772632344514931200,6.53793115234375,0.018568981793709,0.0974273779205977,-0.2239157228916883,-0.011147204786539,0.004565043374896,0.0214822068810462,standing,2026-03-04_13-52-17
1772632344524879000,6.547879150390625,-0.0590826323593035,0.0747056968942284,-0.2598310858815908,0.0018997071310877,0.0234802402555942,0.0234487541019916,standing,2026-03-04_13-52-17
1772632344534827300,6.5578271484375,-0.0525771594554185,0.0211829271517694,-0.2441127077460289,0.0158091317862272,0.0381489321589469,0.0330063067376613,standing,2026-03-04_13-52-17
1772632344544776200,6.567776123046875,-0.0247160697139799,0.0194347683101892,-0.1734264756262302,0.0292192734777927,0.0322708189487457,0.0369026623666286,standing,2026-03-04_13-52-17
1772632344554724000,6.57772412109375,-0.0332850144863128,-0.0063378247193992,-0.0586632013708353,0.0381429940462112,0.0065321675501763,0.0300937611609697,standing,2026-03-04_13-52-17
1772632344564673300,6.58767333984375,-0.0293463598631322,-0.068956631848216,0.0354646966129541,0.0425391606986522,-0.0107532991096377,0.0241012554615736,standing,2026-03-04_13-52-17
1772632344574621200,6.59762109375,-0.0297555251859128,-0.1020065224044024,0.0736801532387733,0.0431327782571315,-0.0199529230594635,0.0139452908188104,standing,2026-03-04_13-52-17
