time,seconds_elapsed,acc_x,acc_y,acc_z,gyr_x,gyr_y,gyr_z,activity,session
1772632890202842000,0.072842041015625,-0.1540817236870527,-0.1694530419506132,0.5141185661613941,-0.0709900707006454,-0.0375485718250274,-0.1685576438903808,walking,2026-03-04_14-01-30
1772632890212791300,0.082791259765625,-0.1422356569401919,-0.2315266362868249,0.5341442861020564,-0.0624339133501052,-0.1101425364613533,-0.1923048049211502,walking,2026-03-04_14-01-30
1772632890222740200,0.092740234375,-0.1142716913461685,-0.2192047687217593,0.4231494244694709,-0.0472339242696762,-0.1897641271352768,-0.2255690097808838,walking,2026-03-04_14-01-30
1772632890232689400,0.102689453125,-0.1501594356767833,-0.2153871101297438,0.3210772894829511,-0.0266511086374521,-0.2587244212627411,-0.2620845139026642,walking,2026-03-04_14-01-30
1772632890242638300,0.112638427734375,-0.1633032871492206,-0.3055025576017797,0.2400853519260883,-0.0151393301784992,-0.2925923764705658,-0.2983466684818268,walking,2026-03-04_14-01-30
1772632890252588300,0.12258837890625,-0.1870198244318366,-0.3188333099484443,0.1449094061940908,-0.0204761680215597,-0.2791994512081146,-0.3263545334339142,walking,2026-03-04_14-01-30
1772632890262537200,0.132537109375,-0.2219895771346986,-0.2692641001373529,0.1162339313298463,-0.0461532995104789,-0.2340697795152664,-0.3318323791027069,walking,2026-03-04_14-01-30
1772632890272486100,0.142486083984375,-0.0539291585862636,-0.1992835320688784,0.0076642510175704,-0.0731807947158813,-0.1974757313728332,-0.3105489909648895,walking,2026-03-04_14-01-30
1772632890282435000,0.15243505859375,0.1346411101579666,-0.152450176962465,-0.1119756893634796,-0.0821511223912239,-0.1487867534160614,-0.264299213886261,walking,2026-03-04_14-01-30
1772632890292384500,0.162384521484375,0.2798011301122605,-0.0657744946807622,-0.2090571764558553,-0.079648271203041,-0.0943308919668197,-0.2072296738624572,walking,2026-03-04_14-01-30
1772632890302333400,0.17233349609375,0.3164176271088421,0.0611687544509768,-0.1986690534323453,-0.0736074224114418,-0.0595785081386566,-0.1442110240459442,walking,2026-03-04_14-01-30
1772632890312282400,0.182282470703125,0.323283859616518,0.0030966508410871,-0.0808148274242877,-0.0689588636159896,-0.0392002016305923,-0.086775042116642,walking,2026-03-04_14-01-30
1772632890322231300,0.192231201171875,0.445249612596631,-0.1354749306336045,0.0270651170581579,-0.0695530176162719,-0.0935526564717292,-0.0613543689250946,walking,2026-03-04_14-01-30
1772632890332180200,0.20218017578125,0.287643514175713,-0.1321630296066403,0.2441349195778369,-0.0925405398011207,-0.1412815898656845,-0.0716474428772926,walking,2026-03-04_14-01-30
1772632890342129200,0.212129150390625,0.3454911613799631,-0.3090731095649301,0.4709247366011142,-0.0922907367348671,-0.1633216440677642,-0.0756741464138031,walking,2026-03-04_14-01-30
1772632890352078000,0.222078125,0.4705258004114031,-0.7261797467388212,0.4303139092713594,-0.1233641803264617,-0.2445490509271621,-0.1298735290765762,walking,2026-03-04_14-01-30
1772632890362027300,0.23202734375,0.1731660711243748,-0.5267389782816171,0.6097036772161721,-0.1455136984586715,-0.3220124244689941,-0.170345589518547,walking,2026-03-04_14-01-30
1772632890371976400,0.2419765625,0.1939326725602149,-0.5806109998531639,0.4672223749518394,-0.1508131027221679,-0.3528826534748077,-0.1992223858833313,walking,2026-03-04_14-01-30
1772632890381925400,0.25192529296875,0.2676439515896141,-0.585637011321634,0.1903694271206855,-0.1479573994874954,-0.3460375368595123,-0.2191170006990432,walking,2026-03-04_14-01-30
1772632890391874300,0.261874267578125,0.2595617674209177,-0.3347169616483151,0.0218026664853096,-0.1666143834590912,-0.3213825523853302,-0.2080040127038955,walking,2026-03-04_14-01-30
1772632890401823200,0.2718232421875,0.3180636407501995,-0.1869622490257024,-0.0146767601281404,-0.202811524271965,-0.2597090601921081,-0.1620500981807708,walking,2026-03-04_14-01-30
1772632890411772200,0.281772216796875,0.3842372177511453,-0.1416539115294814,-0.0901063873827457,-0.238294631242752,-0.1604394912719726,-0.1161035075783729,walking,2026-03-04_14-01-30
1772632890421721300,0.291721435546875,0.390710359288007,-0.121702718129754,-0.172179105913639,-0.2606638371944427,-0.0506325550377368,-0.0652536451816558,walking,2026-03-04_14-01-30
1772632890431670300,0.301670166015625,0.4215054566547274,-0.1580693320184946,-0.2429009938687086,-0.260955274105072,0.0277895648032426,-0.0099170291796326,walking,2026-03-04_14-01-30
1772632890441619500,0.311619384765625,0.3786927353665232,-0.1612028077386319,-0.238002700433135,-0.2403091043233871,0.0720781981945037,0.0362773649394512,walking,2026-03-04_14-01-30
1772632890451568400,0.321568359375,0.3766470548830926,-0.2319235266499221,-0.1719511423766613,-0.2018402069807052,0.0872090682387352,0.0689030066132545,walking,2026-03-04_14-01-30
1772632890461517300,0.331517333984375,0.3110711515143513,-0.3632717327423393,-0.0828121387213468,-0.1613913178443908,0.0725257322192192,0.0775031521916389,walking,2026-03-04_14-01-30
1772632890471466200,0.34146630859375,0.2002203745275735,-0.491548422434926,0.0579845714569091,-0.1256164163351059,0.0547389723360538,0.0686327219009399,walking,2026-03-04_14-01-30
1772632890481415200,0.351415283203125,0.1055205218747258,-0.6138533442415297,0.1922457423865795,-0.0893750488758087,0.0430732630193233,0.038113959133625,walking,2026-03-04_14-01-30
1772632890491364400,0.3613642578125,0.004855477207154,-0.7389746386431157,0.2824181807428598,-0.0584772899746894,0.033540803939104,-0.0091267582029104,walking,2026-03-04_14-01-30
1772632890501313300,0.371313232421875,-0.07343918408975,-0.820979406504333,0.3809931212633848,-0.0413084253668785,0.0224407482892274,-0.0500907003879547,walking,2026-03-04_14-01-30
1772632890511262200,0.38126220703125,-0.0429771180696785,-0.8739696768052876,0.5014081376701593,-0.0335850790143013,0.0067109456285834,-0.0816594138741493,walking,2026-03-04_14-01-30
1772632890521212400,0.39121240234375,0.0101769644908607,-0.878261090388894,0.645579292717576,-0.0427277125418186,-0.0173722859472036,-0.1098084971308708,walking,2026-03-04_14-01-30
1772632890531161300,0.401161376953125,0.0328024916663765,-0.8614141466148197,0.7447422622591257,-0.058311216533184,-0.0375308133661747,-0.1379761099815368,walking,2026-03-04_14-01-30
1772632890541110300,0.4111103515625,0.012574673282355,-0.8524830905318259,0.7466992415457964,-0.076757863163948,-0.0565348640084266,-0.1610611975193023,walking,2026-03-04_14-01-30
1772632890551059200,0.42105908203125,0.0426313733719289,-0.8126885480210184,0.7447258956462144,-0.1024970114231109,-0.0732767060399055,-0.1783076822757721,walking,2026-03-04_14-01-30
1772632890561008000,0.431008056640625,0.038581367328763,-0.7969966195009648,0.7448907308191061,-0.1222533956170082,-0.1001538559794426,-0.1904247850179672,walking,2026-03-04_14-01-30
1772632890570957000,0.44095703125,0.0610167787596583,-0.7649969686500727,0.6360767203569412,-0.12622931599617,-0.1279166936874389,-0.1999857276678085,walking,2026-03-04_14-01-30
1772632890580906500,0.450906494140625,0.0999134956479072,-0.7300523503884673,0.3570622105777263,-0.112909510731697,-0.1228476390242576,-0.2000248730182647,walking,2026-03-04_14-01-30
1772632890590855400,0.46085546875,0.0499982488781213,-0.6638733665600418,0.1308177524775266,-0.0974497646093368,-0.0752137675881385,-0.1998470574617386,walking,2026-03-04_14-01-30
1772632890600804400,0.470804443359375,-0.0390966233745217,-0.6348410410821438,0.0375906027257442,-0.082041248679161,-0.0479810759425163,-0.2042159736156463,walking,2026-03-04_14-01-30
1772632890610753300,0.480753173828125,-0.0728549544610083,-0.6895271555155515,0.0981558383256197,-0.0990058183670044,-0.0500287227332592,-0.2112067490816116,walking,2026-03-04_14-01-30
1772632890620702200,0.4907021484375,-0.0475973252162337,-0.7570708518259227,0.1913099228411912,-0.126400426030159,-0.0500987619161605,-0.2152534276247024,walking,2026-03-04_14-01-30
1772632890630651100,0.500651123046875,-0.0091408994413912,-0.8335266072578728,0.2950900307893753,-0.1383577734231948,-0.0332821644842624,-0.2148076593875885,walking,2026-03-04_14-01-30
1772632890640600300,0.510600341796875,0.059764879002422,-0.9089455669879912,0.2186760686725378,-0.1291584223508834,0.0002270594704896,-0.2079968899488449,walking,2026-03-04_14-01-30
1772632890650549200,0.52054931640625,0.1603663569144904,-0.948566214236617,0.1596925493061542,-0.1216784641146659,0.0216976851224899,-0.1972382515668869,walking,2026-03-04_14-01-30
1772632890660498400,0.53049853515625,0.2656941326960921,-0.9992004229307174,0.2976619271039962,-0.1359040141105651,-0.0316062830388546,-0.168514996767044,walking,2026-03-04_14-01-30
1772632890670447400,0.540447265625,0.3842895324602723,-1.0997466635242104,0.4826993455469608,-0.1549656391143798,-0.1093037202954292,-0.1516416072845459,walking,2026-03-04_14-01-30
1772632890680396300,0.550396240234375,0.4331827427059411,-1.2231631998345256,0.5169195950567722,-0.1632286310195922,-0.1744630187749862,-0.1573114842176437,walking,2026-03-04_14-01-30
1772632890690345200,0.56034521484375,0.3880079684615135,-1.320917325491458,0.3373047861844301,-0.1634590178728103,-0.1983270049095153,-0.1722851544618606,walking,2026-03-04_14-01-30
1772632890700294100,0.570294189453125,0.31343291220963,-1.3556535616993903,0.1814899550944566,-0.160773754119873,-0.2277855575084686,-0.1839990615844726,walking,2026-03-04_14-01-30
1772632890710243300,0.580243408203125,0.3408811833664775,-1.351015672765672,0.0471142178744077,-0.1311657279729843,-0.2586587071418762,-0.1834417432546615,walking,2026-03-04_14-01-30
1772632890720192300,0.590192138671875,0.3952610083296894,-1.3457663739353418,-0.1974479872047901,-0.0730539560317993,-0.2554251253604889,-0.1657381057739257,walking,2026-03-04_14-01-30
1772632890730141400,0.600141357421875,0.4356687873680144,-1.2787535696312784,-0.4582844507366418,0.0178620610386133,-0.2065272033214569,-0.1384256780147552,walking,2026-03-04_14-01-30
1772632890740090400,0.61009033203125,0.3757940913155674,-1.2156094234541055,-0.6657026278138161,0.1205721944570541,-0.1301951557397842,-0.1226315349340438,walking,2026-03-04_14-01-30
1772632890750039300,0.620039306640625,0.3191889915183186,-1.1509643711946904,-0.6997755778074264,0.1967984288930893,-0.0661578923463821,-0.1103611961007118,walking,2026-03-04_14-01-30
1772632890759988200,0.62998828125,0.3690329996827989,-1.1537198073826729,-0.4984481188207864,0.2303076535463333,-0.036415446549654,-0.0958067551255226,walking,2026-03-04_14-01-30
1772632890769937200,0.639937255859375,0.5012103500757367,-1.2045151979878543,-0.1193459258705377,0.2219485193490982,-0.0428742133080959,-0.0752605199813842,walking,2026-03-04_14-01-30
1772632890779886300,0.64988623046875,0.6383055023223161,-1.2122576288081706,0.2661246330678463,0.1949627101421356,-0.0656516999006271,-0.0472816117107868,walking,2026-03-04_14-01-30
1772632890789835300,0.659835205078125,0.7511855931796133,-1.1849540268190204,0.4669710305392742,0.1590860486030578,-0.082640565931797,-0.0240205507725477,walking,2026-03-04_14-01-30
1772632890799785500,0.669785400390625,0.705485552952066,-1.2002724458515643,0.5677087020516395,0.1178960055112838,-0.0792053490877151,-0.0218103937804698,walking,2026-03-04_14-01-30
1772632890809734400,0.679734375,0.5543645787667483,-1.2879058672495185,0.5666051247239112,0.0905695110559463,-0.0657023787498474,-0.044630154967308,walking,2026-03-04_14-01-30
1772632890819683300,0.689683349609375,0.4244831572912633,-1.410110251291096,0.5069511587500571,0.0833733826875686,-0.0584857463836669,-0.0845722407102584,walking,2026-03-04_14-01-30
1772632890829632300,0.69963232421875,0.3614804654113948,-1.4694374695286154,0.4090039947390556,0.0946483463048935,-0.073882058262825,-0.1356261223554611,walking,2026-03-04_14-01-30
1772632890839581200,0.709581298828125,0.3952753291159868,-1.4536474874615668,0.2662935598939657,0.1372000575065612,-0.096058465540409,-0.1651150286197662,walking,2026-03-04_14-01-30
1772632890849530400,0.7195302734375,0.5587967159952968,-1.3895456021681427,0.0526081391155719,0.2018470615148544,-0.1087718233466148,-0.1720766276121139,walking,2026-03-04_14-01-30
1772632890859479600,0.7294794921875,0.7236425564114004,-1.2614666270047423,-0.118396077799797,0.2713270783424377,-0.0911997556686401,-0.1500602662563324,walking,2026-03-04_14-01-30
1772632890869428500,0.739428466796875,0.8875251047533005,-1.2206569161020218,-0.1766273174941539,0.327300488948822,-0.0781349912285804,-0.1151794120669364,walking,2026-03-04_14-01-30
1772632890879377400,0.74937744140625,1.0222501668676731,-1.2140844058439135,-0.1446504629969597,0.3515288531780243,-0.1033468693494796,-0.0768109858036041,walking,2026-03-04_14-01-30
1772632890889326300,0.759326416015625,1.0120605620909482,-1.1985345161430536,-0.0214426010012626,0.3411457538604736,-0.1732911467552185,-0.051484040915966,walking,2026-03-04_14-01-30
1772632890899275300,0.769275146484375,0.9563686316158622,-1.2194416950933635,0.0861596955835819,0.3106499016284942,-0.2762217819690704,-0.0415887981653213,walking,2026-03-04_14-01-30
1772632890909224200,0.77922412109375,0.7289811409603804,-1.2306972486011682,0.0053296705901622,0.2680671811103821,-0.3423329889774322,-0.0651963278651237,walking,2026-03-04_14-01-30
1772632890919173400,0.78917333984375,0.4141764289408922,-1.2431065021887422,-0.2061743144959211,0.2170441895723343,-0.3573740124702453,-0.1088641732931137,walking,2026-03-04_14-01-30
1772632890929122600,0.79912255859375,0.1750803072478622,-1.2430595943070948,-0.4873042089939117,0.1605250686407089,-0.3771376609802246,-0.158071756362915,walking,2026-03-04_14-01-30
1772632890939071500,0.809071533203125,0.0892732244942337,-1.1884599891133605,-0.6904062764376402,0.0926285833120346,-0.4005044996738434,-0.2124228775501251,walking,2026-03-04_14-01-30
1772632890949020400,0.8190205078125,0.0320285116191953,-1.1148010247930884,-0.917108999699354,0.0258091986179351,-0.3959085941314697,-0.2663841843605041,walking,2026-03-04_14-01-30
1772632890958969300,0.82896923828125,-0.0930404680732637,-0.8720562443993986,-1.2724421945273876,-0.0414630472660064,-0.363751471042633,-0.311488002538681,walking,2026-03-04_14-01-30
1772632890968918300,0.838918212890625,-0.1345659990951418,-0.5554802118584513,-1.520936478358507,-0.1123618185520172,-0.322052389383316,-0.3352837264537811,walking,2026-03-04_14-01-30
1772632890978867200,0.8488671875,-0.1503383724402636,-0.2535777245752513,-1.749534221586585,-0.1634907871484756,-0.2244912087917328,-0.3474777936935425,walking,2026-03-04_14-01-30
1772632890988816400,0.85881640625,-0.1979706959046423,0.1391286308355629,-1.9881576842665671,-0.1540467888116836,-0.0601194202899932,-0.3199969530105591,walking,2026-03-04_14-01-30
1772632890998765600,0.868765625,-0.1002916082452982,0.4648208667680621,-2.315455455699563,-0.0666287913918495,0.1654631048440933,-0.2433418333530426,walking,2026-03-04_14-01-30
1772632891008714500,0.878714599609375,0.0821693838384002,0.8127087140262127,-2.527125445002317,0.0693918615579605,0.3691486716270447,-0.1427026838064193,walking,2026-03-04_14-01-30
1772632891018663400,0.888663330078125,0.3511556899476796,1.0467840118825436,-2.239283485645056,0.2132318466901779,0.465587317943573,-0.0383890643715858,walking,2026-03-04_14-01-30
1772632891028612400,0.8986123046875,0.616524828473106,1.0667734914660454,-1.5624071373879909,0.3261922001838684,0.4290312528610229,0.0428953655064106,walking,2026-03-04_14-01-30
1772632891038561300,0.908561279296875,0.7024564143892377,0.8993724136091769,-0.7471271115690469,0.3879682421684265,0.2870096564292907,0.1006665229797363,walking,2026-03-04_14-01-30
1772632891048510200,0.91851025390625,0.6144562055055052,0.6950619932889938,-0.1038157637834548,0.4051286578178406,0.0957547202706337,0.1113301292061805,walking,2026-03-04_14-01-30
1772632891058459400,0.92845947265625,0.4444515940867364,0.5515145230978727,0.318177476388216,0.3874226212501526,-0.0840922743082046,0.0780781656503677,walking,2026-03-04_14-01-30
1772632891068409300,0.938409423828125,0.1651570983223617,0.5007740775503218,0.5234522116959095,0.3414117097854614,-0.2159643471240997,0.0192347951233387,walking,2026-03-04_14-01-30
1772632891078358500,0.948358642578125,-0.151706080596894,0.5567438020534813,0.5670534530133009,0.2887599468231201,-0.2824096977710724,-0.0289463158696889,walking,2026-03-04_14-01-30
1772632891088307500,0.958307373046875,-0.3926848011661321,0.6247028011664748,0.3053758624821901,0.2599738836288452,-0.2374839037656784,-0.0570068247616291,walking,2026-03-04_14-01-30
1772632891098256400,0.96825634765625,-0.6554080282926559,0.7884633305639028,-0.1373807642549276,0.2497798204421997,-0.0993891432881355,-0.0749754309654235,walking,2026-03-04_14-01-30
1772632891108205300,0.978205322265625,-0.8981283318322152,0.9683609019003808,-0.3486123621404171,0.2443909347057342,0.0762182995676994,-0.0860205888748169,walking,2026-03-04_14-01-30
1772632891118154200,0.988154296875,-1.0351526838649063,1.0558535996533929,-0.3550035244822502,0.2462929636240005,0.233740285038948,-0.0860528126358985,walking,2026-03-04_14-01-30
1772632891128103200,0.998103271484375,-1.0350452779676764,1.052517879359424,-0.1766623888075351,0.2493659555912017,0.3240528702735901,-0.0956286415457725,walking,2026-03-04_14-01-30
1772632891138052400,1.00805224609375,-1.0271549631092696,0.9839728970520196,0.1595937651067972,0.2413940578699112,0.323388397693634,-0.1258035898208618,walking,2026-03-04_14-01-30
1772632891148001500,1.01800146484375,-1.0595402522768824,0.8702056480966508,0.6278238557964563,0.2079849690198898,0.2561740279197693,-0.1807913482189178,walking,2026-03-04_14-01-30
1772632891157950500,1.027950439453125,-1.0819104164518416,0.7546800111666321,1.060475852626562,0.1491927653551101,0.1572980433702469,-0.2418000996112823,walking,2026-03-04_14-01-30
1772632891167899400,1.0378994140625,-1.127102434092015,0.7153817277401685,1.3427549171596764,0.067422516644001,0.074037916958332,-0.3066658973693847,walking,2026-03-04_14-01-30
1772632891177848300,1.047848388671875,-1.234257863692194,0.7630977109000087,1.4820762940883636,-0.020686300471425,0.0162292085587978,-0.3770063817501068,walking,2026-03-04_14-01-30
1772632891187797200,1.05779736328125,-1.242330841641128,0.8329511454574763,1.4704776262313126,-0.100002147257328,0.0037028272636234,-0.4009720385074615,walking,2026-03-04_14-01-30
1772632891197746200,1.06774609375,-0.9553458644393832,0.8648651638515293,1.3057190257072449,-0.1428324431180954,-0.0536619313061237,-0.3589244484901428,walking,2026-03-04_14-01-30
1772632891207695400,1.0776953125,-0.5929771449513733,1.0950501762710512,1.111735499742627,-0.1436289399862289,-0.0941827446222305,-0.2882815897464752,walking,2026-03-04_14-01-30
1772632891217644500,1.08764453125,-0.356336745847389,1.1550791130371392,0.8017354845911264,-0.0950619205832481,-0.2130345553159713,-0.2022840976715088,walking,2026-03-04_14-01-30
1772632891227593500,1.097593505859375,-0.255109464187175,1.156730533505976,0.6158271285325289,-0.0630220919847488,-0.2251516431570053,-0.1611481457948684,walking,2026-03-04_14-01-30
1772632891237542400,1.10754248046875,-0.3394553883470594,0.8416419630438089,0.3818611362695693,-0.0813619494438171,-0.1849179416894912,-0.132583886384964,walking,2026-03-04_14-01-30
1772632891247491300,1.1174912109375,-0.5017143540751189,0.662036944913119,0.4818307460188865,-0.1553825587034225,-0.147368386387825,-0.1044463366270065,walking,2026-03-04_14-01-30
1772632891257440300,1.127440185546875,-0.594178921956569,0.4800115677677095,0.648404871532321,-0.230254665017128,-0.0706581622362136,-0.0876481831073761,walking,2026-03-04_14-01-30
1772632891267389200,1.13738916015625,-0.6063021251443773,0.2021358527600765,0.5843412724226713,-0.2758777737617492,0.0222764909267425,-0.0796493664383888,walking,2026-03-04_14-01-30
1772632891277338400,1.14733837890625,-0.52891573779881,0.0164896547690033,0.48217853654325,-0.2860254645347595,0.0625205859541893,-0.0637039542198181,walking,2026-03-04_14-01-30
1772632891287287600,1.15728759765625,-0.355179173310101,-0.0686285689376294,0.5033014040708541,-0.2686738967895508,0.0253043640404939,-0.0394891761243343,walking,2026-03-04_14-01-30
1772632891297236500,1.167236572265625,-0.098128584992513,-0.1596340971171856,0.5685048208653927,-0.2242254614830017,-0.0427713580429554,0.0034148825798183,walking,2026-03-04_14-01-30
1772632891307185400,1.177185302734375,0.1619469041042029,-0.2165394950352609,0.549576248511672,-0.1578658074140548,-0.0872315838932991,0.0465111397206783,walking,2026-03-04_14-01-30
1772632891317134300,1.18713427734375,0.2176716408703476,-0.2543472476430237,0.5809247419774533,-0.1016720384359359,-0.142312154173851,0.0667716711759567,walking,2026-03-04_14-01-30
1772632891327083300,1.197083251953125,0.0264318606559187,-0.3286288739062845,0.6080617552280426,-0.0648844018578529,-0.186597466468811,0.0665493533015251,walking,2026-03-04_14-01-30
1772632891337032200,1.2070322265625,-0.1026973542127758,-0.4557439724735915,0.6248486393779515,-0.0588845647871494,-0.1934489905834198,0.0536785647273063,walking,2026-03-04_14-01-30
1772632891346981400,1.2169814453125,-0.2072247003316879,-0.529416526927799,0.6999404129803181,-0.0828108787536621,-0.1912077516317367,0.0354196801781654,walking,2026-03-04_14-01-30
1772632891356931300,1.226931396484375,-0.2968534602653235,-0.5081393456213176,0.7848755352050065,-0.1254994869232177,-0.1825921535491943,0.0249321535229682,walking,2026-03-04_14-01-30
1772632891366880500,1.236880615234375,-0.249068722718209,-0.4692123797252774,0.7374193720251321,-0.1629767268896103,-0.1547258645296096,0.0382284224033355,walking,2026-03-04_14-01-30
1772632891376829400,1.246829345703125,-0.1293321900948882,-0.3636461190126836,0.6164806240051984,-0.1933900266885757,-0.1273999661207199,0.0805915966629982,walking,2026-03-04_14-01-30
1772632891386778400,1.2567783203125,-0.0513075779110193,-0.1832858986005187,0.5037777894109488,-0.2113171368837356,-0.104000486433506,0.1334040611982345,walking,2026-03-04_14-01-30
1772632891396727300,1.266727294921875,-0.0436465417638421,-0.0572632714450359,0.3960691098421812,-0.2138996124267578,-0.0833769664168357,0.1776878982782364,walking,2026-03-04_14-01-30
1772632891406676200,1.27667626953125,-0.0416719537552446,-0.0262447405859828,0.3362994085341692,-0.2132883667945861,-0.0867907553911209,0.2190823554992675,walking,2026-03-04_14-01-30
1772632891416625200,1.286625244140625,-0.060776174936816,-0.0426959630407393,0.333546894955635,-0.2145592272281646,-0.0861193686723709,0.2518499195575714,walking,2026-03-04_14-01-30
1772632891426574600,1.29657470703125,-0.1002010073523968,-0.1110807863503694,0.3187345257490873,-0.2053072452545166,-0.0633978545665741,0.2700574994087219,walking,2026-03-04_14-01-30
1772632891436523500,1.3065234375,-0.1558043827611953,-0.1649238740883767,0.2533019763737917,-0.1870307624340057,-0.0288920737802982,0.2865680158138275,walking,2026-03-04_14-01-30
1772632891446472400,1.316472412109375,-0.1969376265298575,-0.2217315107204019,0.1926291887462139,-0.1662719845771789,7.75293447077e-05,0.3109778463840484,walking,2026-03-04_14-01-30
1772632891456421400,1.32642138671875,-0.1484322465579956,-0.2520721423178911,0.2516746674329042,-0.1533660292625427,0.0146700544282794,0.333796352148056,walking,2026-03-04_14-01-30
1772632891466370300,1.336370361328125,-0.1002474037773907,-0.3040378918766975,0.373152344635129,-0.1446420699357986,0.0186330415308475,0.361369788646698,walking,2026-03-04_14-01-30
1772632891476319200,1.3463193359375,-0.0383061305839568,-0.3838232301227748,0.4831295536577701,-0.1424345672130584,0.0204413272440433,0.3841126561164856,walking,2026-03-04_14-01-30
1772632891486268200,1.35626806640625,0.0005421440526843,-0.4147155042536556,0.5679191299319267,-0.1428516507148742,0.0246063228696584,0.400064080953598,walking,2026-03-04_14-01-30
1772632891496217300,1.36621728515625,0.0106674514215439,-0.4920350369080901,0.6075777711033821,-0.1450130641460418,0.0439227633178234,0.4165226817131042,walking,2026-03-04_14-01-30
1772632891506166500,1.37616650390625,0.0498754262160509,-0.5500092331014573,0.6197533620655536,-0.1504755169153213,0.0634948015213012,0.441311627626419,walking,2026-03-04_14-01-30
1772632891516115500,1.386115478515625,0.0682711338020861,-0.570025016169995,0.6382067181229591,-0.1629755944013595,0.0791680365800857,0.4569957852363586,walking,2026-03-04_14-01-30
1772632891526064400,1.396064453125,0.0147697721738368,-0.6006256138779222,0.6820394301086664,-0.1749387085437774,0.0749754682183265,0.4581137895584106,walking,2026-03-04_14-01-30
1772632891536013300,1.406013427734375,-0.0467697152856737,-0.6504485061891376,0.7426689631164074,-0.1889866143465042,0.0449219681322574,0.4456802904605865,walking,2026-03-04_14-01-30
1772632891545962200,1.415962158203125,-0.1500098711382597,-0.7382967393815517,0.6411047776520252,-0.1934458613395691,0.0251037310808897,0.4209739565849304,walking,2026-03-04_14-01-30
1772632891555911400,1.425911376953125,-0.2072126445677131,-0.7616651938788592,0.4300497053772211,-0.1872731894254684,0.0184349101036787,0.4030865430831909,walking,2026-03-04_14-01-30
1772632891565860400,1.4358603515625,-0.2470137629497796,-0.7025450425207614,0.1957049429297447,-0.1813841164112091,0.0219171252101659,0.3987560570240021,walking,2026-03-04_14-01-30
1772632891575809500,1.4458095703125,-0.2847803798295557,-0.6322780587263405,-0.0005786766707897,-0.1705466508865356,0.0479583106935024,0.4047236442565918,walking,2026-03-04_14-01-30
1772632891585758500,1.455758544921875,-0.3798251003973186,-0.5906147997342049,-0.27907939170897,-0.1473553031682968,0.0910765528678894,0.4047291278839111,walking,2026-03-04_14-01-30
1772632891595707400,1.465707275390625,-0.5077524651955813,-0.5765861282512545,-0.6100269178211689,-0.1053303480148315,0.1354123204946518,0.4006699621677398,walking,2026-03-04_14-01-30
1772632891605656300,1.47565625,-0.5691003025405108,-0.5455331106007099,-0.8532499832510948,-0.0647508725523948,0.1822418570518493,0.4113268852233886,walking,2026-03-04_14-01-30
1772632891615605200,1.485605224609375,-0.5568364487729967,-0.5286757915630936,-0.9268436272501944,-0.0288922153413295,0.1809281110763549,0.4315320253372192,walking,2026-03-04_14-01-30
1772632891625554400,1.495554443359375,-0.6283326090361923,-0.583202331520617,-1.0508306569248438,0.0112042818218469,0.2185356318950653,0.4487150609493255,walking,2026-03-04_14-01-30
1772632891635503400,1.50550341796875,-0.7273406072117388,-0.7299415834903716,-1.1640408565193414,0.0475569628179073,0.2568329572677612,0.458579421043396,walking,2026-03-04_14-01-30
1772632891645452300,1.515452392578125,-0.8306636190421879,-0.896249897674471,-1.1844739882171154,0.0835278108716011,0.2628373503684997,0.4711973965167999,walking,2026-03-04_14-01-30
1772632891655402500,1.525402587890625,-0.8198848892658949,-1.0597260571725666,-1.1272744296580552,0.1086238399147987,0.2412958592176437,0.4762086868286133,walking,2026-03-04_14-01-30
1772632891665351400,1.535351318359375,-0.8046723417606204,-1.2202832604840397,-1.090295821350813,0.1332395225763321,0.1892289072275161,0.4677662551403045,walking,2026-03-04_14-01-30
1772632891675300400,1.54530029296875,-0.9064750852212308,-1.2736160606123506,-1.119120933818817,0.1536457240581512,0.143403097987175,0.4444539844989776,walking,2026-03-04_14-01-30
1772632891685249300,1.555249267578125,-0.9704301093898712,-1.363651574715972,-1.2321359031021597,0.1760202646255493,0.0962600857019424,0.4066347181797027,walking,2026-03-04_14-01-30
1772632891695198200,1.5651982421875,-1.0598785443205383,-1.3825387921459973,-1.3986170896351338,0.1941763758659362,0.0673557370901107,0.3589726686477661,walking,2026-03-04_14-01-30
1772632891705147400,1.5751474609375,-1.1407193829689175,-1.340791800393164,-1.5420593458861112,0.1904352605342865,0.0366959311068058,0.3020670711994171,walking,2026-03-04_14-01-30
1772632891715096600,1.5850966796875,-1.1544975868221372,-1.3022794066473842,-1.6443138517022131,0.1744477748870849,0.012619356624782,0.2296141684055328,walking,2026-03-04_14-01-30
1772632891725045500,1.59504541015625,-1.1569490716274826,-1.202393675789237,-1.741838990908861,0.1337182819843292,-0.0304958466440439,0.1416882127523422,walking,2026-03-04_14-01-30
1772632891734994400,1.604994384765625,-1.1833647118009627,-0.9574356032602488,-1.7588520850300788,0.0749599039554596,-0.0856296718120575,0.046539057046175,walking,2026-03-04_14-01-30
1772632891744943400,1.614943359375,-1.1289942391879857,-0.6061573829114437,-1.8167349496781824,0.0243325494229793,-0.1306803375482559,-0.0394527502357959,walking,2026-03-04_14-01-30
1772632891754892300,1.624892333984375,-0.9911858971707522,-0.1157826804310083,-2.011308258229494,-0.0053313355892896,-0.1311519891023636,-0.0905758589506149,walking,2026-03-04_14-01-30
1772632891764841200,1.63484130859375,-0.7881503190919756,0.4180699292480945,-2.2075059531122445,-0.0057731308043003,-0.0818137302994728,-0.1005098149180412,walking,2026-03-04_14-01-30
1772632891774790400,1.644790283203125,-0.4680244120497256,0.861826672938466,-2.3849667988210914,0.0228153709322214,0.0203057080507278,-0.075830303132534,walking,2026-03-04_14-01-30
1772632891784739300,1.6547392578125,-0.213297005982697,1.1613891729667782,-2.5044722991675137,0.0677806735038757,0.1579055339097976,-0.0201328378170728,walking,2026-03-04_14-01-30
1772632891794688500,1.6646884765625,-0.0625647388540208,1.323111474534869,-2.4630975017279386,0.1365117877721786,0.322234034538269,0.056243423372507,walking,2026-03-04_14-01-30
1772632891804637400,1.674637451171875,0.0536406970337033,1.3546541753984986,-2.2106424975723025,0.1996177732944488,0.4767749905586242,0.1156846582889556,walking,2026-03-04_14-01-30
1772632891814586400,1.68458642578125,-0.0052599663548171,1.2591625878460704,-1.6660574814766644,0.2545862197875976,0.584838330745697,0.1537390947341919,walking,2026-03-04_14-01-30
1772632891824535300,1.694535400390625,-0.047841070844233,1.0412988584697247,-0.9952624989598988,0.3010081052780151,0.6584088802337646,0.1667795479297638,walking,2026-03-04_14-01-30
1772632891834484200,1.704484130859375,-0.1249881695412099,0.814742850202322,-0.3768096980988979,0.3448690176010132,0.7496392130851746,0.1792918890714645,walking,2026-03-04_14-01-30
1772632891844433400,1.714433349609375,-0.1222098639342933,0.7155027237713336,0.2102408332824707,0.3931934237480163,0.811614453792572,0.1936826556921005,walking,2026-03-04_14-01-30
1772632891854382300,1.72438232421875,-0.0755101451449096,0.7433867559969425,0.7823965778708457,0.4264600276947021,0.7977524399757385,0.1882463544607162,walking,2026-03-04_14-01-30
1772632891864331500,1.73433154296875,0.0933737186156213,0.7822163989983498,1.3551479502648114,0.4585826098918915,0.7198932766914368,0.1817144304513931,walking,2026-03-04_14-01-30
1772632891874280400,1.744280517578125,0.2629286135055124,0.7867061116330325,1.7935177402198317,0.4735317528247833,0.5974136590957642,0.1789929568767547,walking,2026-03-04_14-01-30
1772632891884229400,1.7542294921875,0.4531387584112584,0.7938893011353909,2.204844040426612,0.4591207504272461,0.3904219269752502,0.1821207851171493,walking,2026-03-04_14-01-30
1772632891894178300,1.76417822265625,0.6754609285011887,0.7472792333908379,2.516379594582319,0.4200929403305053,0.1448193490505218,0.1637772023677826,walking,2026-03-04_14-01-30
1772632891904127200,1.774127197265625,0.6268677241154015,0.9426420848846436,2.7204776873260736,0.3477165400981903,-0.097914345562458,0.1273193955421447,walking,2026-03-04_14-01-30
1772632891914076400,1.784076416015625,0.4522600758805871,1.0686743566513062,2.821899249449372,0.2414164543151855,-0.2944020926952362,0.0892497599124908,walking,2026-03-04_14-01-30
1772632891924025300,1.794025390625,0.3548077096492051,1.0697639054536818,2.6849697360932825,0.1160976663231849,-0.4119579493999481,0.0543836168944835,walking,2026-03-04_14-01-30
1772632891933974300,1.803974365234375,0.2315853807367384,1.1001812555491923,2.2742139292508363,-0.0023738523013889,-0.452878475189209,0.0192626472562551,walking,2026-03-04_14-01-30
1772632891943923500,1.81392333984375,0.1374196349605917,1.1492216191805895,1.6976286777824163,-0.1000155955553054,-0.4237306416034698,-0.0012759800301864,walking,2026-03-04_14-01-30
1772632891953872400,1.823872314453125,0.1235856823321431,1.203091010403633,1.1455068364411591,-0.1902530789375305,-0.3869675695896148,-0.0105301989242434,walking,2026-03-04_14-01-30
1772632891963821300,1.8338212890625,0.049125484631583,1.2582871201857924,0.7796680296897888,-0.2688679993152618,-0.3610017895698547,-0.0140771232545375,walking,2026-03-04_14-01-30
1772632891973770500,1.8437705078125,-0.1281612466193735,1.2900938788130878,0.4138929358243942,-0.3290956616401672,-0.3481176793575287,-0.0407308414578437,walking,2026-03-04_14-01-30
1772632891983720200,1.85372021484375,-0.4337214526925235,1.24250897468701,0.0141787474781274,-0.3789549767971039,-0.3480994403362274,-0.1130992472171783,walking,2026-03-04_14-01-30
1772632891993669400,1.86366943359375,-0.6970602544341236,1.2033867784798145,-0.2698100435823202,-0.4038858711719513,-0.3315106034278869,-0.1888981461524963,walking,2026-03-04_14-01-30
1772632892003618600,1.87361865234375,-0.7153100507434457,1.1156854064121842,-0.6067705463737249,-0.3920460939407348,-0.2612037062644958,-0.2477480471134185,walking,2026-03-04_14-01-30
1772632892013567500,1.8835673828125,-0.5828397087533027,1.179911648737639,-0.9064572573035956,-0.3474195003509521,-0.1343962401151657,-0.2634950578212738,walking,2026-03-04_14-01-30
1772632892023516400,1.893516357421875,-0.3709695937685668,1.2680898445367812,-1.030578142490983,-0.2755699157714844,0.0375453345477581,-0.2260890305042266,walking,2026-03-04_14-01-30
1772632892033465300,1.90346533203125,-0.0703031510863453,1.2865285875469443,-0.9488058682113886,-0.1931264698505401,0.1992729902267456,-0.1531090885400772,walking,2026-03-04_14-01-30
1772632892043414300,1.913414306640625,0.1607173623092472,1.2593123715803027,-0.6448252594798803,-0.1267312467098236,0.303717702627182,-0.0833398848772049,walking,2026-03-04_14-01-30
1772632892053363200,1.92336328125,0.2315769782345741,1.1214115289740263,-0.05682663359344,-0.0891939848661422,0.3349214494228363,-0.0288004726171493,walking,2026-03-04_14-01-30
1772632892063312400,1.9333125,0.2892006804898381,0.8384450666986405,0.5815700541436671,-0.0821553766727447,0.3021486699581146,0.0041024526581168,walking,2026-03-04_14-01-30
1772632892073261300,1.94326123046875,0.2583058490756899,0.5171766385577619,1.1425649377703666,-0.0962195247411727,0.2408336549997329,0.0196933969855308,walking,2026-03-04_14-01-30
1772632892083210500,1.95321044921875,0.1849939446274191,0.207070532683283,1.5410475384950637,-0.1265157908201217,0.1858710348606109,0.0174369234591722,walking,2026-03-04_14-01-30
1772632892093159400,1.963159423828125,0.0881515269879251,-0.0605295797646045,1.7733634254634378,-0.1598865240812301,0.125881478190422,0.0055507039651274,walking,2026-03-04_14-01-30
1772632892103108400,1.9731083984375,0.1119071541719138,-0.2639959504760801,1.87876967330873,-0.2002570927143097,0.0423461534082889,-0.0183103904128074,walking,2026-03-04_14-01-30
1772632892113057300,1.983057373046875,0.2162479647427797,-0.405378643848747,1.9661463434666395,-0.2423432916402816,-0.0685662552714347,-0.047744981944561,walking,2026-03-04_14-01-30
1772632892123006500,1.99300634765625,0.3315320480018854,-0.4823709903754293,1.947409494292736,-0.2692537307739258,-0.1802847981452942,-0.0591230690479278,walking,2026-03-04_14-01-30
1772632892132955400,2.002955322265625,0.4793901479337364,-0.4605724155433475,1.7652011617958543,-0.2812209129333496,-0.2744112908840179,-0.0571696422994136,walking,2026-03-04_14-01-30
1772632892142904300,2.012904296875,0.4889339290875941,-0.3385460184171796,1.431748374864459,-0.2733274698257446,-0.3516647517681122,-0.0566144660115242,walking,2026-03-04_14-01-30
1772632892152853200,2.022853271484375,0.3867952316708862,-0.2317471471697092,1.002190836918354,-0.2572462260723114,-0.3818538188934326,-0.0649240612983703,walking,2026-03-04_14-01-30
1772632892162802400,2.032802490234375,0.2481768884450197,-0.2000331813924014,0.5473527272433042,-0.2341767847537994,-0.3654570281505584,-0.0771330073475837,walking,2026-03-04_14-01-30
1772632892172751400,2.04275146484375,0.1251698827836662,-0.1704625112541019,0.1713011540353298,-0.2135681807994842,-0.327462762594223,-0.0953085497021675,walking,2026-03-04_14-01-30
1772632892182700300,2.0527001953125,0.024290172452107,-0.1436909703150391,-0.0662011956602335,-0.1946981549263,-0.275459349155426,-0.1087474524974823,walking,2026-03-04_14-01-30
1772632892192649500,2.0626494140625,0.0197858467701822,-0.1320819271944463,-0.2431944238573312,-0.1770408749580383,-0.2121126055717468,-0.1168969869613647,walking,2026-03-04_14-01-30
1772632892202598400,2.072598388671875,0.0290963306248188,-0.1460658827528357,-0.3344640098005533,-0.1696371138095855,-0.1506687700748443,-0.1157747730612754,walking,2026-03-04_14-01-30
1772632892212547300,2.08254736328125,0.0606015490222722,-0.1581844828307628,-0.2795306426078081,-0.1661976426839828,-0.1211074218153953,-0.1114399433135986,walking,2026-03-04_14-01-30
1772632892222496300,2.092496337890625,0.1440004015903919,-0.2177561773486435,-0.1577419997602701,-0.1554900258779525,-0.1010873392224311,-0.1143341958522796,walking,2026-03-04_14-01-30
1772632892232445400,2.102445556640625,0.1856046238716691,-0.3841794962145388,-0.1213905834406614,-0.1284094005823135,-0.0637101382017135,-0.1313477903604507,walking,2026-03-04_14-01-30
1772632892242394400,2.112394287109375,0.1179425618786364,-0.4866115505546331,-0.1488490837305784,-0.0960041657090187,-0.0305466335266828,-0.1597022861242294,walking,2026-03-04_14-01-30
1772632892252343300,2.12234326171875,0.038139834106341,-0.5861909919425845,-0.1005249055445194,-0.0724160224199295,-0.0090533252805471,-0.1920104175806045,walking,2026-03-04_14-01-30
1772632892262292500,2.13229248046875,-0.0117383685886859,-0.7606947414115071,0.0657318245828151,-0.0662052556872367,-0.0168359465897083,-0.235937088727951,walking,2026-03-04_14-01-30
1772632892272241400,2.142241455078125,0.0310851663544774,-0.9555112110689282,0.1998351746022701,-0.0571739487349987,-0.0595743544399738,-0.2846870422363281,walking,2026-03-04_14-01-30
1772632892282190300,2.1521904296875,0.1630829223968088,-1.1073432561330496,0.2078793648481368,-0.0383687205612659,-0.1043451800942421,-0.3227907121181488,walking,2026-03-04_14-01-30
1772632892292139300,2.16213916015625,0.2814428329046815,-1.1859158575884998,0.140660516577959,-0.0204842630773782,-0.1501297205686569,-0.3521821796894073,walking,2026-03-04_14-01-30
1772632892302089500,2.17208935546875,0.3435335245061665,-1.2347091145910325,0.0566226354539394,-0.0108737144619226,-0.1924571990966797,-0.3820692300796509,walking,2026-03-04_14-01-30
1772632892312038400,2.182038330078125,0.3616403321482241,-1.2828159967646002,-0.1027414125502109,-9.8830088973e-05,-0.1952798813581466,-0.3988138437271118,walking,2026-03-04_14-01-30
1772632892321987300,2.1919873046875,0.4525516792383044,-1.3004440079137682,-0.3277735722512007,0.0038263038732111,-0.1725401282310485,-0.3990664184093475,walking,2026-03-04_14-01-30
1772632892331936300,2.201936279296875,0.5355534953128546,-1.2515227406173943,-0.4493219766020774,9.28184017539e-05,-0.1531517803668975,-0.3731517195701599,walking,2026-03-04_14-01-30
1772632892341885400,2.211885498046875,0.6740360833298414,-1.178073765785992,-0.4961977095454931,-0.0065932837314903,-0.1221116483211517,-0.3319926261901855,walking,2026-03-04_14-01-30
1772632892351834400,2.22183447265625,0.8434412675507366,-1.161173192128539,-0.5479623835742473,-0.0073355068452656,-0.1274417042732238,-0.2732976377010345,walking,2026-03-04_14-01-30
1772632892361783300,2.231783203125,1.027671826590225,-1.1493366238623857,-0.6391267555773258,0.0186494067311286,-0.1472818404436111,-0.2186412513256073,walking,2026-03-04_14-01-30
1772632892371732500,2.241732421875,1.088009463979304,-1.1577557849004865,-0.7805214316487312,0.0675165504217147,-0.1115187779068946,-0.1786592155694961,walking,2026-03-04_14-01-30
1772632892381681400,2.251681396484375,1.075322708624601,-1.230917905614525,-0.9966840561956166,0.1513178050518036,-0.059338416904211,-0.1445686817169189,walking,2026-03-04_14-01-30
1772632892391630300,2.26163037109375,1.0852787969063966,-1.2957033892579377,-1.2636135759055611,0.244083434343338,-0.0131277795881032,-0.1242117434740066,walking,2026-03-04_14-01-30
1772632892401579300,2.271579345703125,1.1507537971839308,-1.2910831821113824,-1.2812433406203985,0.3253993093967438,-0.0139584159478545,-0.1034648194909095,walking,2026-03-04_14-01-30
1772632892411528400,2.281528564453125,1.3626432744562624,-1.3305935008533298,-1.0955740540146828,0.372637391090393,-0.0557974725961685,-0.0776585265994072,walking,2026-03-04_14-01-30
1772632892421477400,2.291477294921875,1.5447950544603168,-1.3563986809782682,-0.8280015602260827,0.3843860626220703,-0.1150837242603302,-0.0453885234892368,walking,2026-03-04_14-01-30
1772632892431426300,2.30142626953125,1.6337012722730635,-1.3230533146068453,-0.6398878030776978,0.3655660152435303,-0.1776373833417892,-0.0242712534964084,walking,2026-03-04_14-01-30
1772632892441375200,2.311375244140625,1.641061571907997,-1.2944744319848716,-0.6382447120457887,0.3402965068817138,-0.2001746147871017,-0.0099231544882059,walking,2026-03-04_14-01-30
1772632892451324400,2.321324462890625,1.5296049379825591,-1.268350102908164,-0.8496388070166111,0.3174811899662018,-0.1754548996686935,0.0075037730857729,walking,2026-03-04_14-01-30
1772632892461273300,2.3312734375,1.3515078401967882,-1.0998035082779825,-1.118580251070857,0.2973392605781555,-0.1274413168430328,0.0322568379342556,walking,2026-03-04_14-01-30
1772632892471222500,2.341222412109375,1.1916620000250635,-0.9013130262829364,-1.321664782857895,0.2791261672973633,-0.0938253104686737,0.0624480284750461,walking,2026-03-04_14-01-30
1772632892481171500,2.35117138671875,1.0160310731571167,-0.6837510563321412,-1.4619640649080277,0.2663167119026184,-0.0693948194384574,0.0778187736868858,walking,2026-03-04_14-01-30
1772632892491120400,2.361120361328125,0.7000169122826307,-0.468249818303436,-1.568857920962572,0.2304271608591079,-0.0266958251595497,0.0618520602583885,walking,2026-03-04_14-01-30
1772632892501069300,2.3710693359375,0.3178143421642482,-0.2670020004242658,-1.5349515597075225,0.163440927863121,-0.0559445843100547,0.0314452908933162,walking,2026-03-04_14-01-30
1772632892511018200,2.381018310546875,0.0077723145019263,0.0103935298509895,-1.3735235649108886,0.0900604575872421,-0.1096658706665039,-0.0056448206305503,walking,2026-03-04_14-01-30
1772632892520967400,2.390967529296875,-0.1934201929934322,0.323436712090671,-1.4163462230712174,0.044909656047821,-0.1384160667657852,-0.0451559163630008,walking,2026-03-04_14-01-30
1772632892530916400,2.400916259765625,-0.3185401722207665,0.7169045533932745,-1.650578757315874,0.054234717041254,-0.1020199730992317,-0.0544111989438533,walking,2026-03-04_14-01-30
1772632892540865500,2.410865478515625,-0.3472525450292975,1.2047365856535732,-1.9649936663001772,0.1223749965429306,-0.0099535966292023,-0.0225344598293304,walking,2026-03-04_14-01-30
1772632892550814500,2.420814453125,-0.3226962689869105,1.6587798916891217,-2.169746423560381,0.2275152504444122,0.1003143191337585,0.0423473343253135,walking,2026-03-04_14-01-30
1772632892560763400,2.430763427734375,-0.2848120901420712,2.0564292564600706,-2.102111395704746,0.3434584140777588,0.195412129163742,0.121700145304203,walking,2026-03-04_14-01-30
1772632892570712300,2.44071240234375,-0.2754826093260198,2.311600095445663,-1.7876444642722606,0.4503020644187927,0.2638700306415558,0.1959139257669448,walking,2026-03-04_14-01-30
1772632892580661200,2.4506611328125,-0.330302287011221,2.3967215340226886,-1.279092300066352,0.5329709053039551,0.2949675917625427,0.2606862485408783,walking,2026-03-04_14-01-30
1772632892590610200,2.460610107421875,-0.4740056053511798,2.3460107529610394,-0.6769307087928056,0.5821589231491089,0.3041805326938629,0.3037042915821075,walking,2026-03-04_14-01-30
1772632892600559400,2.470559326171875,-0.6360180489722639,2.2134959873072804,-0.13426175545156,0.617659866809845,0.2946785390377044,0.3242568075656891,walking,2026-03-04_14-01-30
1772632892610508500,2.480508544921875,-0.8011259013254195,2.0232685990057884,0.2511480132102966,0.6418184638023376,0.2964468598365783,0.3128944337368011,walking,2026-03-04_14-01-30
1772632892620457500,2.49045751953125,-1.059141900609061,1.8984663074254988,0.5956798280388117,0.6407138705253601,0.2752494812011719,0.2802549004554748,walking,2026-03-04_14-01-30
1772632892630406400,2.500406494140625,-1.2765917154222726,1.716485500074178,0.9218710995346308,0.6120665073394775,0.2625819146633148,0.2191281616687774,walking,2026-03-04_14-01-30
1772632892640356400,2.5103564453125,-1.5036121263310311,1.4883432455286385,1.212997487390041,0.5555949807167053,0.2585111856460571,0.1339444369077682,walking,2026-03-04_14-01-30
1772632892650305300,2.52030517578125,-1.8032932843029497,1.3095137418150902,1.442518775203824,0.4597920477390289,0.2535454332828522,-0.0004133705515414,walking,2026-03-04_14-01-30
1772632892660254500,2.53025439453125,-2.006605195105076,1.131242018114775,1.6874007137566804,0.3464433252811432,0.2432256489992141,-0.1500090062618255,walking,2026-03-04_14-01-30
1772632892670203400,2.540203369140625,-2.071493700731545,0.9917540524475276,1.8897142611712217,0.2141915410757064,0.2419933974742889,-0.2864899039268493,walking,2026-03-04_14-01-30
1772632892680152300,2.55015234375,-2.012248607819527,0.9743024207785724,2.013344732493162,0.0794011130928993,0.2692034840583801,-0.3852449953556061,walking,2026-03-04_14-01-30
1772632892690101500,2.5601015625,-1.8388553038105369,1.084871750475466,2.1177397574692964,-0.0608374923467636,0.2748286128044128,-0.4419274628162384,walking,2026-03-04_14-01-30
1772632892700050400,2.570050537109375,-1.5037342914059757,1.1667800722248851,2.2188620443850757,-0.1864901185035705,0.2410062402486801,-0.4537495672702789,walking,2026-03-04_14-01-30
1772632892709999400,2.579999267578125,-1.048677497478947,1.158663693525642,2.233286291056871,-0.2900830805301666,0.172924667596817,-0.4340512454509735,walking,2026-03-04_14-01-30
1772632892719948300,2.5899482421875,-0.6873143748369067,1.079808914127946,2.1396119820594786,-0.3632779419422149,0.0858618021011352,-0.3932957351207733,walking,2026-03-04_14-01-30
1772632892729897200,2.599897216796875,-0.4858016224112361,1.0040437713086603,1.905347883632779,-0.4113341271877289,-0.0217216536402702,-0.3562359809875488,walking,2026-03-04_14-01-30
1772632892739846400,2.609846435546875,-0.466690606162697,0.8742287661328911,1.5752040751188991,-0.4372092187404632,-0.1144941821694374,-0.3315801918506622,walking,2026-03-04_14-01-30
1772632892749795300,2.61979541015625,-0.5735640039511024,0.689626816497743,1.1615724205791949,-0.4457167088985443,-0.1446510106325149,-0.3243505358695984,walking,2026-03-04_14-01-30
1772632892759744500,2.62974462890625,-0.729200409734249,0.4984802675247192,0.7728606877624988,-0.4463974833488464,-0.1277778148651123,-0.3252328336238861,walking,2026-03-04_14-01-30
1772632892769693400,2.639693359375,-0.8051252000946552,0.3161478702567518,0.4724725505650043,-0.4311711490154266,-0.0788792371749877,-0.3214586079120636,walking,2026-03-04_14-01-30
1772632892779642400,2.649642333984375,-0.7906498808227479,0.149788848798722,0.2305570606023073,-0.4017786383628845,-0.0108332028612494,-0.3088911175727844,walking,2026-03-04_14-01-30
1772632892789591300,2.65959130859375,-0.6548653727833181,0.000509118565917,0.1408423028856515,-0.3622597157955169,0.0274516027420759,-0.2811484634876251,walking,2026-03-04_14-01-30
1772632892799540200,2.669540283203125,-0.466042152191326,-0.1689431927323341,0.1872194386571645,-0.3170033693313598,0.0207719430327415,-0.2563216984272003,walking,2026-03-04_14-01-30
1772632892809489200,2.6794892578125,-0.2678890854571014,-0.3348809200383723,0.2932745058000087,-0.2692550122737884,-0.010029112920165,-0.230956956744194,walking,2026-03-04_14-01-30
1772632892819438300,2.689438232421875,-0.1283370415776968,-0.4815205110259354,0.4092296201884746,-0.2387150079011917,-0.0861258655786514,-0.2103587836027145,walking,2026-03-04_14-01-30
1772632892829387500,2.699387451171875,-0.0685331457391381,-0.6157258601151406,0.5848959836959838,-0.2324637770652771,-0.1982918083667755,-0.203730970621109,walking,2026-03-04_14-01-30
1772632892839336400,2.70933642578125,0.003991480788961,-0.7430971254006028,0.6146838037163019,-0.2150802016258239,-0.2568990290164947,-0.2006446272134781,walking,2026-03-04_14-01-30
1772632892849285600,2.71928564453125,0.0555922694928944,-0.7792663170211017,0.3661164546489715,-0.1944553554058075,-0.253140777349472,-0.1841247826814651,walking,2026-03-04_14-01-30
1772632892859234600,2.729234619140625,0.024291560691595,-0.6998376832582056,0.1147697039961814,-0.192349836230278,-0.219777226448059,-0.1563981771469116,walking,2026-03-04_14-01-30
1772632892869183500,2.73918359375,-0.0193821613401174,-0.6210331727430224,0.0558878914386034,-0.2157238572835922,-0.1855095326900482,-0.1212753280997276,walking,2026-03-04_14-01-30
1772632892879132400,2.74913232421875,-0.0575348549280315,-0.6113296709828079,0.1065489881396293,-0.2497865706682205,-0.1667903512716293,-0.0940217897295951,walking,2026-03-04_14-01-30
1772632892889081600,2.75908154296875,-0.0960937912292778,-0.5896623213149607,0.1437941384285688,-0.2680438458919525,-0.1479958891868591,-0.0708568170666694,walking,2026-03-04_14-01-30
1772632892899030500,2.769030517578125,-0.1083591793667525,-0.5676483501665294,0.0444312624007463,-0.2559809684753418,-0.1184217184782028,-0.0612014532089233,walking,2026-03-04_14-01-30
1772632892908979500,2.7789794921875,-0.2135676396176218,-0.545301639932394,-0.2054968536257743,-0.2139874398708343,-0.0700709596276283,-0.0599641501903533,walking,2026-03-04_14-01-30
1772632892918928600,2.7889287109375,-0.3003662906918674,-0.468614413832128,-0.4120417549997568,-0.1518490612506866,-0.0073374505154788,-0.0486548542976379,walking,2026-03-04_14-01-30
1772632892928877600,2.798877685546875,-0.2437163288395851,-0.3762618549577892,-0.4089782757759094,-0.0994889140129089,0.0341242365539073,-0.0234000980854034,walking,2026-03-04_14-01-30
1772632892938826500,2.808826416015625,-0.1316044458758085,-0.2777840912014246,-0.1385071379363536,-0.0752844214439392,0.0411019660532474,0.0128767285495996,walking,2026-03-04_14-01-30
1772632892948775400,2.818775390625,-0.0386868004646152,-0.2232115201450884,0.2430804420888423,-0.0749549940228462,0.039322443306446,0.0476104728877544,walking,2026-03-04_14-01-30
1772632892958724600,2.828724609375,0.0310513371501117,-0.2259763086833059,0.5734902080625295,-0.0933543965220451,0.039741925895214,0.0816976800560951,walking,2026-03-04_14-01-30
1772632892968673500,2.838673583984375,0.0431816276658326,-0.2059419670447707,0.8647907834410667,-0.1267693489789962,0.0192960426211357,0.1101117432117462,walking,2026-03-04_14-01-30
1772632892978623700,2.848623779296875,0.0833715261697769,-0.2018726717792451,1.0313345138162373,-0.1446677148342132,0.0301549639552831,0.1417287290096283,walking,2026-03-04_14-01-30
1772632892988572700,2.85857275390625,0.1474455005429685,-0.2013518627755343,1.0169155278414488,-0.1593057811260223,0.0615344569087028,0.1737851947546005,walking,2026-03-04_14-01-30
1772632892998521600,2.868521484375,0.1479226896006613,-0.1876075611919164,1.0232073214620352,-0.1812277436256408,0.0736022815108299,0.2017147988080978,walking,2026-03-04_14-01-30
1772632893008470500,2.878470458984375,0.1659219452150166,-0.2540282448217272,1.0889344698697327,-0.1978200376033783,0.0765234977006912,0.2285669147968292,walking,2026-03-04_14-01-30
1772632893018419500,2.88841943359375,0.2219906731132417,-0.3788587395831942,1.100088901090622,-0.2263956367969513,0.0612602978944778,0.2359445691108703,walking,2026-03-04_14-01-30
1772632893028368400,2.898368408203125,0.2479273706633597,-0.4953519063711166,1.1043179169625044,-0.2517846226692199,0.0181551687419414,0.2401422411203384,walking,2026-03-04_14-01-30
1772632893038317600,2.908317626953125,0.2493365068089217,-0.5824607193730771,0.9461299270004032,-0.2554480731487274,-0.0032905952539294,0.2419814169406891,walking,2026-03-04_14-01-30
1772632893048266800,2.918266845703125,0.2123652780905365,-0.6109174369201064,0.6357324369639158,-0.2454607039690017,-0.0311049167066812,0.2396583557128906,walking,2026-03-04_14-01-30
1772632893058215700,2.928215576171875,0.1794547960050403,-0.5474557492263615,0.3271329362601041,-0.228909432888031,-0.0760030075907707,0.2374623119831085,walking,2026-03-04_14-01-30
1772632893068164600,2.93816455078125,0.1403774618528783,-0.5080320858545601,-0.0044826983720064,-0.2121818512678146,-0.0955250412225723,0.233590081334114,walking,2026-03-04_14-01-30
1772632893078113500,2.948113525390625,0.0762740421894937,-0.4893311847768724,-0.3527905246078968,-0.2097706049680709,-0.0992681980133056,0.2367287278175354,walking,2026-03-04_14-01-30
1772632893088062500,2.9580625,0.0166445530697703,-0.4392782831020653,-0.6162953305661678,-0.2092789858579635,-0.0917796492576599,0.2412209510803222,walking,2026-03-04_14-01-30
1772632893098011400,2.968011474609375,-0.0234003109402954,-0.3980488854825496,-0.9714613521337508,-0.1842688471078872,-0.0657650530338287,0.2646128833293915,walking,2026-03-04_14-01-30
1772632893107960600,2.977960693359375,0.0324383345291018,-0.3290576207123696,-1.3625930055737494,-0.143095314502716,0.0207591839134693,0.3344135284423828,walking,2026-03-04_14-01-30
1772632893117909500,2.987909423828125,0.1357096892375499,-0.2470192428424954,-1.6120599338293076,-0.0784324631094932,0.0895802602171897,0.459928035736084,walking,2026-03-04_14-01-30
1772632893127858700,2.997858642578125,0.2833344918701798,-0.2542272745251655,-1.9046908810287717,0.0171417295932769,0.1949077546596527,0.5860446691513062,walking,2026-03-04_14-01-30
1772632893137807600,3.0078076171875,0.1715516216650605,-0.2803546723417937,-2.079990749311447,0.1117152646183967,0.2373866587877273,0.688493549823761,walking,2026-03-04_14-01-30
1772632893147756500,3.017756591796875,0.0003593348316848,-0.5357390079475939,-2.0057979703754185,0.1840472519397735,0.2197498828172683,0.7441400289535522,walking,2026-03-04_14-01-30
1772632893157705500,3.02770556640625,-0.1923858815096318,-0.9206533943079412,-1.761522181022167,0.2140075713396072,0.1516388654708862,0.7427269220352173,walking,2026-03-04_14-01-30
1772632893167654400,3.037654296875,-0.509504642625153,-1.232120559402555,-1.4943670358628034,0.210271954536438,0.0745299607515335,0.6970955729484558,walking,2026-03-04_14-01-30
1772632893177603600,3.047603515625,-0.8213836033910512,-1.454903478872031,-1.4171218836188315,0.1868990361690521,0.0377596169710159,0.6156611442565918,walking,2026-03-04_14-01-30
1772632893187552500,3.057552490234375,-1.0472007029246535,-1.5865796017445624,-1.51997961602509,0.1486467272043228,0.0181765966117382,0.5008488297462463,walking,2026-03-04_14-01-30
1772632893197501400,3.06750146484375,-1.217516353053972,-1.5673784960597752,-1.651944200450182,0.1122158914804458,0.0060198968276381,0.3885303735733032,walking,2026-03-04_14-01-30
1772632893207450600,3.07745068359375,-1.2174984520711003,-1.2938691595681011,-1.822549188914895,0.0793522223830223,-0.0182622727006673,0.2733414471149444,walking,2026-03-04_14-01-30
1772632893217399600,3.087399658203125,-1.0663033897362648,-0.9650757427498696,-2.010034000509977,0.0629919916391372,-0.0459045097231864,0.1738094538450241,walking,2026-03-04_14-01-30
1772632893227348500,3.097348388671875,-0.8511185241803526,-0.5917299213692545,-2.2429659735500813,0.0646183788776397,-0.0647445097565651,0.1144997850060463,walking,2026-03-04_14-01-30
1772632893237297400,3.10729736328125,-0.6758562844943254,-0.0354258259072899,-2.4877713397353887,0.0972692891955375,-0.0524858571588993,0.0971905589103698,walking,2026-03-04_14-01-30
1772632893247246600,3.11724658203125,-0.4986923759054392,0.5003602360524236,-2.772466233238578,0.1642690896987915,0.0026125498116016,0.1081800907850265,walking,2026-03-04_14-01-30
1772632893257195500,3.127195556640625,-0.2736214916292578,0.8755819343075155,-2.958388033300638,0.2486252635717392,0.0633264333009719,0.1306369751691818,walking,2026-03-04_14-01-30
1772632893267144400,3.13714453125,-0.0985560896895825,1.11392131934911,-2.936558478808403,0.3390870094299316,0.1196211278438568,0.1603868752717971,walking,2026-03-04_14-01-30
1772632893277093600,3.14709375,0.0764469145383685,1.2752042065866291,-2.722692440766096,0.4233018755912781,0.1707657575607299,0.2050205767154693,walking,2026-03-04_14-01-30
1772632893287042600,3.15704248046875,0.1903203272819519,1.37725588330701,-2.370713232541084,0.4950325191020965,0.2171532362699508,0.2549369931221008,walking,2026-03-04_14-01-30
1772632893296991500,3.166991455078125,0.1618151674833148,1.4395686932265757,-1.921862380582094,0.5531316995620728,0.2788292467594147,0.2971847057342529,walking,2026-03-04_14-01-30
1772632893306940700,3.176940673828125,0.0728284317802637,1.4637942029446362,-1.407290809956193,0.600108802318573,0.373725414276123,0.3328652083873749,walking,2026-03-04_14-01-30
1772632893316889600,3.1868896484375,0.0093385409053415,1.35780840164572,-0.8428349722206592,0.6459976434707642,0.4714368879795074,0.3693230152130127,walking,2026-03-04_14-01-30
1772632893326839600,3.196839599609375,0.0267108967930078,1.1959544365219772,-0.2865104184925556,0.7077464461326599,0.5599387884140015,0.3986473679542541,walking,2026-03-04_14-01-30
1772632893336788500,3.20678857421875,0.0566828412085771,1.057152261161804,0.2304395717024803,0.7674917578697205,0.6333611011505127,0.4183139503002167,walking,2026-03-04_14-01-30
1772632893346737700,3.216737548828125,0.0615172756277024,1.0579480877146124,0.8225666756957769,0.8156712651252747,0.6602374911308289,0.4265130162239074,walking,2026-03-04_14-01-30
1772632893356686600,3.2266865234375,0.1144594690032303,1.0658175059154629,1.4365999065488575,0.8234583139419556,0.5837113857269287,0.4108911454677582,walking,2026-03-04_14-01-30
1772632893366635500,3.236635498046875,0.0932569603681564,1.0655250988401472,2.063025001463294,0.785467267036438,0.4616477489471435,0.3851493000984192,walking,2026-03-04_14-01-30
1772632893376584400,3.24658447265625,0.1313455757439136,1.0162813215911388,2.5574165383696554,0.7009087800979614,0.3016553223133087,0.3338832259178161,walking,2026-03-04_14-01-30
1772632893386533400,3.256533447265625,0.1408612998470663,0.9911607627294956,2.982609451365471,0.5564069747924805,0.0845371410250663,0.2394627034664154,walking,2026-03-04_14-01-30
1772632893396482600,3.266482666015625,-0.0173475867725908,1.07049938012138,3.2555607155829667,0.3805086016654968,-0.1274727135896682,0.1262363046407699,walking,2026-03-04_14-01-30
1772632893406431500,3.276431396484375,-0.1111444992363452,1.0963920923992991,3.2130893550783397,0.1986967176198959,-0.2497453689575195,0.0391685143113136,walking,2026-03-04_14-01-30
1772632893416380700,3.286380615234375,-0.1147482228167355,1.1812336911216377,2.889534277305007,0.0260466560721397,-0.3201092183589935,-0.003739409847185,walking,2026-03-04_14-01-30
1772632893426329600,3.29632958984375,-0.0619318477779626,1.4128943290516731,2.460969257527589,-0.1242589652538299,-0.3686527609825134,-0.0120668485760688,walking,2026-03-04_14-01-30
1772632893436278500,3.306278564453125,0.0587007569022476,1.572830623985827,1.9556015685766932,-0.2302057594060897,-0.3814623951911926,-0.0017880480736494,walking,2026-03-04_14-01-30
1772632893446227500,3.3162275390625,0.0648797377981245,1.6274501029238104,1.3821008391201497,-0.3091066777706146,-0.3736098110675812,-0.0008500828407704,walking,2026-03-04_14-01-30
1772632893456176600,3.3261767578125,-0.1433997322835028,1.6838864220254122,0.9475169974446296,-0.3840654492378235,-0.3717266917228699,-0.0133289024233818,walking,2026-03-04_14-01-30
1772632893466125600,3.33612548828125,-0.410363738784939,1.6922236038684844,0.6274596986591816,-0.4562751948833465,-0.3770085275173187,-0.0372073389589786,walking,2026-03-04_14-01-30
1772632893476074500,3.346074462890625,-0.6599865882545709,1.6136192921005188,0.3068786682605743,-0.500323474407196,-0.3502427935600281,-0.0800777748227119,walking,2026-03-04_14-01-30
1772632893486023400,3.3560234375,-0.8807767995368688,1.526217195240408,-0.0988531729400157,-0.5147599577903748,-0.2869700789451599,-0.1430689990520477,walking,2026-03-04_14-01-30
1772632893495972600,3.36597265625,-1.0687428187776356,1.5082184510827064,-0.4329366589903831,-0.5053349137306213,-0.2041376233100891,-0.2078790813684463,walking,2026-03-04_14-01-30
1772632893505921500,3.375921630859375,-1.0276155663583426,1.5169452167652546,-0.6226151812374592,-0.4721872806549072,-0.1144812405109405,-0.246751382946968,walking,2026-03-04_14-01-30
1772632893515870500,3.385870361328125,-0.7861718586258589,1.5230013019338249,-0.699146047732234,-0.4109035730361938,-0.0109291123226284,-0.2359055876731872,walking,2026-03-04_14-01-30
1772632893525819600,3.395819580078125,-0.4395337191678583,1.5166297210752964,-0.6612392186641692,-0.3246861398220062,0.102462962269783,-0.1629765331745147,walking,2026-03-04_14-01-30
1772632893535768600,3.4057685546875,-0.0808697724819183,1.4646864756092428,-0.5351362197488546,-0.2105839997529983,0.2184689790010452,-0.055126029998064,walking,2026-03-04_14-01-30
1772632893545717500,3.415717529296875,0.0893905672635883,1.3517657604806124,-0.3116056967824697,-0.1015776246786117,0.2778939604759216,0.0419547110795974,walking,2026-03-04_14-01-30
1772632893555666400,3.42566650390625,0.1366583682645112,1.1266389082334936,0.1786480096668005,-0.0298784654587507,0.2402755469083786,0.1074484884738922,walking,2026-03-04_14-01-30
1772632893565615400,3.435615478515625,0.1870672437701374,0.7238999652385711,0.8273428040564059,0.0095136826857924,0.1603080183267593,0.1382333040237426,walking,2026-03-04_14-01-30
1772632893575564500,3.445564453125,0.178565007558465,0.2666885505609214,1.3360223940342664,0.0115953218191862,0.0751162618398666,0.1421567052602768,walking,2026-03-04_14-01-30
1772632893585513500,3.455513427734375,0.0452874408386647,-0.1060686572767794,1.7002701322019098,-0.022525630891323,-0.0073815393261611,0.12199018150568,walking,2026-03-04_14-01-30
1772632893595462700,3.465462646484375,-0.1139990849498659,-0.4172488221235573,1.9009025946617129,-0.0787828490138053,-0.0475784093141555,0.0727963522076606,walking,2026-03-04_14-01-30
1772632893605411600,3.47541162109375,-0.2775575159039348,-0.6620853140994906,1.974848120838404,-0.1688227355480194,-0.1084356382489204,-0.0186400897800922,walking,2026-03-04_14-01-30
1772632893615360500,3.485360595703125,-0.371021323955804,-0.8510283616788685,2.069768630504608,-0.2768977880477905,-0.2033214569091797,-0.1255490928888321,walking,2026-03-04_14-01-30
1772632893625309400,3.495309326171875,-0.2843753792252391,-0.9628000529028474,2.0037077200978994,-0.3579782843589782,-0.2905974984169006,-0.2192942202091217,walking,2026-03-04_14-01-30
1772632893635258400,3.50525830078125,-0.0903453837703913,-0.9948783219479024,1.6034306371718643,-0.3932456970214844,-0.3450521528720855,-0.2756069898605346,walking,2026-03-04_14-01-30
1772632893645207600,3.51520751953125,0.0358968774851411,-0.7619684146091341,1.037462056785822,-0.3806896805763244,-0.3747152388095855,-0.2939412593841553,walking,2026-03-04_14-01-30
1772632893655156700,3.52515673828125,0.1345589117672294,-0.4629099185802042,0.4436234726995229,-0.3357928097248077,-0.3811316788196563,-0.2856096029281616,walking,2026-03-04_14-01-30
1772632893665106400,3.5351064453125,0.2457372402079403,-0.3089043288692832,-0.0408183326005935,-0.282833456993103,-0.3726220726966858,-0.2727036476135254,walking,2026-03-04_14-01-30
1772632893675055600,3.5450556640625,0.2179962697148323,-0.264730986752361,-0.3033709524005651,-0.2362134456634521,-0.3494116365909576,-0.2681842446327209,walking,2026-03-04_14-01-30
1772632893685004500,3.555004638671875,0.1399338828038424,-0.3435143083490431,-0.4863724811017513,-0.1916369199752807,-0.2876292467117309,-0.274009644985199,walking,2026-03-04_14-01-30
1772632893694953500,3.564953369140625,0.0420324576307088,-0.4158107521444559,-0.6938304056674242,-0.150640070438385,-0.2220778316259384,-0.2931302487850189,walking,2026-03-04_14-01-30
1772632893704902700,3.574902587890625,-0.0806223735921084,-0.449027231439203,-0.8342331480920314,-0.1027162298560142,-0.1480901539325714,-0.305786669254303,walking,2026-03-04_14-01-30
1772632893714851600,3.5848515625,-0.1112741900306195,-0.5026971545673906,-0.9130676153540612,-0.0422233380377292,-0.0803356021642685,-0.3257019519805908,walking,2026-03-04_14-01-30
1772632893724800500,3.594800537109375,-0.1584293975025415,-0.5662359991505742,-0.9389753790706395,0.0273634623736143,-0.0219623036682605,-0.3500315248966217,walking,2026-03-04_14-01-30
1772632893734749400,3.60474951171875,-0.1748550471246242,-0.6446408428236842,-0.8675152399688959,0.0888959169387817,0.0101820891723036,-0.3777320384979248,walking,2026-03-04_14-01-30
1772632893744698600,3.61469873046875,-0.1436195855792612,-0.7412349847905337,-0.6538783345073461,0.1382996886968612,0.0229468867182731,-0.4051205217838287,walking,2026-03-04_14-01-30
1772632893754647600,3.6246474609375,-0.121747068728134,-0.8834455072894692,-0.3966016092836856,0.1623229682445526,0.0129844695329666,-0.448364794254303,walking,2026-03-04_14-01-30
1772632893764596500,3.634596435546875,-0.1496129807751625,-1.0100514872908593,-0.1356289521515369,0.1614145636558532,-0.0174000672996044,-0.4987669587135315,walking,2026-03-04_14-01-30
1772632893774545400,3.64454541015625,-0.051021892837435,-1.1044167011618613,0.1129196922153234,0.1452195793390274,-0.0498587302863597,-0.5342303514480591,walking,2026-03-04_14-01-30
1772632893784494600,3.65449462890625,0.1238132074777036,-1.1734632032506167,0.2041115367472171,0.117977574467659,-0.0850326940417289,-0.5475422143936157,walking,2026-03-04_14-01-30
1772632893794443500,3.664443603515625,0.2558889241270721,-1.165318475239724,0.2451362055748701,0.0933810621500015,-0.1262052208185196,-0.5486793518066406,walking,2026-03-04_14-01-30
1772632893804392700,3.674392822265625,0.3656714142952114,-1.1272959108375011,0.1304120942860841,0.0922412350773811,-0.1351555585861206,-0.5372748970985413,walking,2026-03-04_14-01-30
1772632893814341600,3.684341552734375,0.4187967822179198,-1.073204693557322,-0.1230523791730403,0.107204258441925,-0.1288745254278183,-0.5227969288825989,walking,2026-03-04_14-01-30
1772632893824290600,3.69429052734375,0.4275814155675471,-1.0108611962385474,-0.2804693847626447,0.1246381103992462,-0.1306396573781967,-0.5091181397438049,walking,2026-03-04_14-01-30
1772632893834239500,3.704239501953125,0.529855648997426,-0.9700516314662992,-0.3205202401220798,0.1431424766778946,-0.1406305581331253,-0.4845365881919861,walking,2026-03-04_14-01-30
1772632893844188400,3.7141884765625,0.6807366038817912,-0.9300508988589048,-0.3580173193454742,0.1756463497877121,-0.1398688852787017,-0.4398287832736969,walking,2026-03-04_14-01-30
1772632893854137300,3.724137451171875,0.848502058071643,-0.8067780088029801,-0.4200438596695661,0.2267210930585861,-0.1206428855657577,-0.3803853988647461,walking,2026-03-04_14-01-30
1772632893864086500,3.73408642578125,1.0139131311550735,-0.7115434647515416,-0.4632335975766182,0.294670045375824,-0.0883821547031402,-0.30918949842453,walking,2026-03-04_14-01-30
1772632893874035700,3.74403564453125,1.2310916547462345,-0.6949065104663371,-0.4325105425328016,0.3540434241294861,-0.0744718089699745,-0.2420758455991745,walking,2026-03-04_14-01-30
1772632893883984600,3.753984619140625,1.461876825015992,-0.7640875987201928,-0.2637257552325725,0.3860759139060974,-0.0962833687663078,-0.1842231899499893,walking,2026-03-04_14-01-30
1772632893893933600,3.76393359375,1.615337640325725,-0.8790629082910716,0.0232891056507825,0.3751482963562011,-0.1577740460634231,-0.1452007591724395,walking,2026-03-04_14-01-30
1772632893903882500,3.773882568359375,1.6677765603542327,-1.023778399348259,0.2974281183481216,0.3304266333580017,-0.2356030642986297,-0.1259120106697082,walking,2026-03-04_14-01-30
1772632893913831400,3.78383154296875,1.642630136398971,-1.1564648683071137,0.4037129025936126,0.2648131549358368,-0.3222190141677856,-0.1281029284000396,walking,2026-03-04_14-01-30
1772632893923780400,3.7937802734375,1.5625111822843551,-1.2192957107514142,0.3105599871218204,0.1993017643690109,-0.3837226033210754,-0.1460331976413726,walking,2026-03-04_14-01-30
1772632893933729500,3.8037294921875,1.4474655839562416,-1.1760536581352352,-0.0232072725862264,0.1445892453193664,-0.3994964957237243,-0.1584624350070953,walking,2026-03-04_14-01-30
1772632893943678700,3.8136787109375,1.322253980922699,-1.0457326031334695,-0.5247153634995222,0.1050578206777572,-0.3654205501079559,-0.1578243374824524,walking,2026-03-04_14-01-30
1772632893953627600,3.823627685546875,1.1660578954301777,-0.8907669362187385,-1.086929559788108,0.0557821094989776,-0.2561636865139007,-0.1631950289011001,walking,2026-03-04_14-01-30
1772632893963576600,3.83357666015625,0.9499423248954116,-0.7356625914856791,-1.4719178881675004,0.0013694674707949,-0.2318285256624221,-0.1597893834114074,walking,2026-03-04_14-01-30
1772632893973525500,3.843525390625,0.7889017219811677,-0.4706260459154844,-1.6398796686470507,-0.0514001585543155,-0.2693058252334595,-0.1526504307985305,walking,2026-03-04_14-01-30
1772632893983474400,3.853474365234375,0.6367406641583889,-0.2603694305419922,-1.7735650855153795,-0.0990880504250526,-0.3319851756095886,-0.1549442112445831,walking,2026-03-04_14-01-30
1772632893993423400,3.86342333984375,0.4244814037255942,0.006200169814378,-2.0190338840454816,-0.1286110132932663,-0.3751854002475738,-0.1536451429128646,walking,2026-03-04_14-01-30
1772632894003373600,3.87337353515625,0.1824714769450947,0.3409622857786715,-2.325778696793318,-0.1239579394459724,-0.3673439919948578,-0.1470042914152145,walking,2026-03-04_14-01-30
1772632894013321700,3.88332177734375,-0.032272038051486,0.7320785955190658,-2.596681796309352,-0.108439415693283,-0.292740136384964,-0.1446321755647659,walking,2026-03-04_14-01-30
1772632894023271700,3.893271728515625,-0.1964808957383036,1.096748066230118,-2.636954769986868,-0.0584652014076709,-0.1589085608720779,-0.1020836532115936,walking,2026-03-04_14-01-30
1772632894033220600,3.903220703125,-0.2195192414984106,1.3936474845290183,-2.7110645468145607,0.0252847075462341,0.0267315693199634,-0.0424891039729118,walking,2026-03-04_14-01-30
1772632894043169500,3.91316943359375,-0.2953054636383429,1.7409202686287462,-2.56262988910377,0.1268691122531891,0.1752944141626358,0.0212877448648214,walking,2026-03-04_14-01-30
1772632894053118500,3.923118408203125,-0.2653972321087494,1.9288656834729012,-2.114921192917228,0.2266616523265838,0.2561055421829223,0.0829422920942306,walking,2026-03-04_14-01-30
1772632894063067400,3.9330673828125,-0.1418351863805204,1.9762930589497087,-1.4766367333829402,0.3204909563064575,0.2653405964374542,0.1342520713806152,walking,2026-03-04_14-01-30
1772632894073016600,3.9430166015625,-0.0673618734700605,2.012959240306914,-0.8425900575488805,0.402983546257019,0.225824162364006,0.1845394223928451,walking,2026-03-04_14-01-30
1772632894082965500,3.952965576171875,-0.0109654114548116,2.048244488699734,-0.3186708128631115,0.4803233444690704,0.1981874704360962,0.2491367757320404,walking,2026-03-04_14-01-30
1772632894092914700,3.962914794921875,0.0155015935797244,2.0306654312588277,0.074462243527174,0.5461207628250122,0.1852879226207733,0.3082684576511383,walking,2026-03-04_14-01-30
1772632894102863600,3.972863525390625,-0.1122575019795447,1.9835228640727696,0.4364011202305555,0.5894650220870972,0.1713233739137649,0.3437755703926086,walking,2026-03-04_14-01-30
1772632894112812500,3.9828125,-0.290201893421635,1.8463612955264743,0.7466431274443864,0.6199581623077393,0.1754319816827774,0.3541283011436462,walking,2026-03-04_14-01-30
1772632894122761500,3.992761474609375,-0.5358189413160085,1.672236023981124,1.0063117162406443,0.6260712146759033,0.1840499639511108,0.3418301045894623,walking,2026-03-04_14-01-30
1772632894132710400,4.00271044921875,-0.7955801037665456,1.4920080516465006,1.3180009996533393,0.5996260046958923,0.1847024410963058,0.2942316830158233,walking,2026-03-04_14-01-30
1772632894142659300,4.012659423828125,-1.091789567039907,1.2925073696956038,1.600904918086529,0.527399480342865,0.1827546060085296,0.2060269862413406,walking,2026-03-04_14-01-30
1772632894152608500,4.0226083984375,-1.381980719871819,1.0516863969713448,1.8443594541847703,0.4232229590415954,0.1670922189950943,0.0823182240128517,walking,2026-03-04_14-01-30
1772632894162557700,4.0325576171875,-1.602905736514926,0.9089698246464132,2.0460428870022294,0.2879929840564728,0.1367252618074417,-0.0728407353162765,walking,2026-03-04_14-01-30
1772632894172506600,4.042506591796875,-1.7018392812147736,0.7852768094822764,2.201893373927474,0.1333492249250412,0.136041522026062,-0.2380453497171402,walking,2026-03-04_14-01-30
1772632894182455600,4.05245556640625,-1.6471543358251453,0.6963365432694554,2.2717887479305268,-0.0298010762780904,0.1405451893806457,-0.3722217679023742,walking,2026-03-04_14-01-30
1772632894192404500,4.062404541015625,-1.497713423681259,0.7681780829042196,2.2615689672112462,-0.1868301033973693,0.1425947546958923,-0.4653523564338684,walking,2026-03-04_14-01-30
1772632894202353400,4.072353515625,-1.1983324907649309,0.9263122968524694,2.1481793193966148,-0.3138999044895172,0.1463253200054168,-0.5011497735977173,walking,2026-03-04_14-01-30
1772632894212302300,4.08230224609375,-0.8447142100960016,1.0787260873273017,1.939599112802744,-0.4123798608779907,0.1150307059288024,-0.4994813501834869,walking,2026-03-04_14-01-30
1772632894222251500,4.09225146484375,-0.4966108934562653,1.1903881806969645,1.697214836284518,-0.4804928600788116,0.0563082657754421,-0.4690880179405212,walking,2026-03-04_14-01-30
1772632894232200700,4.10220068359375,-0.3065718673337251,1.2408021707691252,1.377234109866619,-0.5226890444755554,0.0057251239195466,-0.4257896542549133,walking,2026-03-04_14-01-30
1772632894242149600,4.112149658203125,-0.250540621901676,1.247750090210885,1.014660442391038,-0.5448912978172302,-0.0114607866853475,-0.3740465641021728,walking,2026-03-04_14-01-30
1772632894252098600,4.1220986328125,-0.3069130089215934,1.1523897278226911,0.6561766745775938,-0.5395491719245911,0.0001000368501991,-0.3285364210605621,walking,2026-03-04_14-01-30
1772632894262047500,4.132047607421875,-0.380160031440109,0.9471730063125492,0.2635445534467697,-0.5075156092643738,0.0386980287730693,-0.2948727309703827,walking,2026-03-04_14-01-30
1772632894271996400,4.141996337890625,-0.4223874271210283,0.7389787302963435,-0.0719745183646679,-0.4593368172645569,0.0791007727384567,-0.2633975148200989,walking,2026-03-04_14-01-30
1772632894281945300,4.1519453125,-0.4099661908347159,0.54880614092201,-0.233465057003498,-0.3997555375099182,0.096634492278099,-0.2214492708444595,walking,2026-03-04_14-01-30
1772632894291894500,4.16189453125,-0.2684000306539237,0.3341187034942209,-0.2666477801591158,-0.3315040171146393,0.0894436836242675,-0.1600493937730789,walking,2026-03-04_14-01-30
1772632894301843700,4.17184375,-0.0690143533848226,0.1697000024490058,-0.2080231572329998,-0.2634714543819427,0.0610029883682727,-0.0883586928248405,walking,2026-03-04_14-01-30
1772632894311792600,4.181792724609375,0.0934847777746617,0.0128108201257884,-0.030022797819972,-0.2165397554636001,0.0125035271048545,-0.01224335283041,walking,2026-03-04_14-01-30
1772632894321741600,4.191741455078125,0.1369718911930918,-0.1591657489530742,0.2061217075258493,-0.1963266283273697,-0.0515614748001098,0.0391607172787189,walking,2026-03-04_14-01-30
1772632894331690500,4.2016904296875,0.0751842011261731,-0.37854952750355,0.4536655587643384,-0.2041643112897873,-0.1225618869066238,0.0662384107708931,walking,2026-03-04_14-01-30
1772632894341639400,4.211639404296875,-0.1019674325030297,-0.5744673825316131,0.6073731884419917,-0.2308909893035888,-0.1722625941038131,0.0633608624339103,walking,2026-03-04_14-01-30
1772632894351589400,4.22158935546875,-0.2782347575783729,-0.7145604744851589,0.6191454593002795,-0.2592725157737732,-0.1997827142477035,0.0508261807262897,walking,2026-03-04_14-01-30
1772632894361538600,4.23153857421875,-0.3310634075768291,-0.7552681863181293,0.540383472752571,-0.2708202600479126,-0.2347862422466278,0.047856755554676,walking,2026-03-04_14-01-30
1772632894371487700,4.24148779296875,-0.2512997697059065,-0.7141054241940379,0.3001426380038261,-0.243936002254486,-0.2176720798015594,0.0686205923557281,walking,2026-03-04_14-01-30
1772632894381436700,4.251436767578125,-0.186331696037203,-0.576352027234435,-0.0236012403398752,-0.1950001567602157,-0.158585324883461,0.1048158779740333,walking,2026-03-04_14-01-30
1772632894391385600,4.261385498046875,-0.1633986372824758,-0.4305702221199869,-0.1774059006512165,-0.151511088013649,-0.1108108460903167,0.1370083838701248,walking,2026-03-04_14-01-30
1772632894401334500,4.27133447265625,-0.1769951278932392,-0.3790776430308819,-0.1055821889340877,-0.1245894581079483,-0.0683078616857528,0.1624506264925003,walking,2026-03-04_14-01-30
1772632894411283500,4.281283447265625,-0.1938358611222356,-0.3960482131846249,0.076086629858613,-0.1224395558238029,-0.0375788956880569,0.1734173446893692,walking,2026-03-04_14-01-30
1772632894421232400,4.291232421875,-0.2434517596192657,-0.4078938415400683,0.3243465204119682,-0.1431144773960113,-0.0284471809864044,0.170666292309761,walking,2026-03-04_14-01-30
1772632894431181300,4.301181396484375,-0.3098866179049014,-0.446733275283128,0.5563502726912498,-0.1711508780717849,-0.0141147887334227,0.1577057987451553,walking,2026-03-04_14-01-30
1772632894441130800,4.311130859375,-0.3073819416075944,-0.4850234045803546,0.6420142937123775,-0.1975159049034118,0.0171954631805419,0.1455292850732803,walking,2026-03-04_14-01-30
1772632894451079700,4.32107958984375,-0.2860164244305342,-0.4588517292305827,0.6946645184040069,-0.2261994779109954,0.0435692779719829,0.1443934440612793,walking,2026-03-04_14-01-30
1772632894461028600,4.331028564453125,-0.2396888268891721,-0.3837292682290077,0.7915840929329395,-0.2514007091522217,0.0331906750798225,0.1495096534490585,walking,2026-03-04_14-01-30
1772632894470977500,4.3409775390625,-0.0987190982315689,-0.3425770274989306,0.8282675176858901,-0.2509861886501312,0.0010120710358023,0.1668561697006225,walking,2026-03-04_14-01-30
1772632894480926500,4.350926513671875,0.0633479251209646,-0.2876373766958713,0.679856240850687,-0.2255202680826187,-0.0051494184881448,0.1955650448799133,walking,2026-03-04_14-01-30
1772632894490875400,4.36087548828125,0.089592519576475,-0.2189011096000671,0.4326221862137317,-0.196781039237976,0.0264283530414104,0.227343663573265,walking,2026-03-04_14-01-30
1772632894500824600,4.370824462890625,0.0513322739608585,-0.2043283943682909,0.297037657725811,-0.1751500517129898,0.0662239640951156,0.2511517703533172,walking,2026-03-04_14-01-30
1772632894510773500,4.3807734375,-0.0125509270805865,-0.264109932244569,0.284821734753251,-0.1701672524213791,0.0987956896424293,0.2642813920974731,walking,2026-03-04_14-01-30
1772632894520722700,4.39072265625,-0.0251140560556203,-0.3542562132462858,0.3292494900226593,-0.1783471554517746,0.1180828288197517,0.2700410187244415,walking,2026-03-04_14-01-30
1772632894530671600,4.400671630859375,0.0081967504590749,-0.4275051354609429,0.3983089977234602,-0.1951249539852142,0.1166801825165748,0.2771341502666473,walking,2026-03-04_14-01-30
1772632894540620500,4.41062060546875,0.0053507133781909,-0.4864053604580461,0.4422504307806492,-0.2178835272789001,0.0834085121750831,0.2807661890983581,walking,2026-03-04_14-01-30
1772632894550569500,4.420569580078125,-0.0051359746489673,-0.5591955791197717,0.3396645010530948,-0.2244554311037063,0.0233620926737785,0.2707279324531555,walking,2026-03-04_14-01-30
1772632894560518400,4.430518310546875,-0.0592157206870615,-0.59292263828516,0.0626326895236969,-0.208712950348854,-0.0198527555912733,0.2512021660804748,walking,2026-03-04_14-01-30
1772632894570467600,4.440467529296875,-0.1119341152440756,-0.5763209014438092,-0.2903162405163049,-0.1829230189323425,-0.0424630306661129,0.2388926893472671,walking,2026-03-04_14-01-30
1772632894580416500,4.45041650390625,-0.2130390856988727,-0.5243647964961826,-0.6513496928125619,-0.1751247495412826,-0.0152982557192444,0.2142560482025146,walking,2026-03-04_14-01-30
1772632894590365700,4.46036572265625,-0.3405751861572265,-0.4850616907641291,-0.7782026333123445,-0.1795046031475067,-0.0012556703295558,0.217745155096054,walking,2026-03-04_14-01-30
1772632894600314600,4.470314697265625,-0.2466629036854952,-0.5166539298579097,-0.9379045349687336,-0.1695683598518371,0.0627600625157356,0.2499073594808578,walking,2026-03-04_14-01-30
1772632894610263600,4.480263671875,-0.2009928202047944,-0.4181279430456459,-1.188470948898792,-0.1238518506288528,0.1367640793323516,0.3108549416065216,walking,2026-03-04_14-01-30
1772632894620212500,4.49021240234375,-0.1265801879730075,-0.3863758372150361,-1.518370427262783,-0.0305418707430362,0.2460554093122482,0.400445282459259,walking,2026-03-04_14-01-30
1772632894630161400,4.500161376953125,-0.1109450311414897,-0.4138343375049531,-1.815741846987605,0.0841327682137489,0.3415413796901703,0.4946747422218323,walking,2026-03-04_14-01-30
1772632894640110600,4.510110595703125,-0.1490873494658619,-0.4943574885062873,-1.8241314896702765,0.1973200440406799,0.3642578721046448,0.568732738494873,walking,2026-03-04_14-01-30
1772632894650059500,4.5200595703125,-0.1579667484268546,-0.7204922026216983,-1.5550404080122708,0.2824729979038238,0.2843863666057586,0.6137577295303345,walking,2026-03-04_14-01-30
1772632894660008400,4.530008544921875,-0.2027203015845269,-0.9988872653283178,-1.201349135172367,0.3334024846553802,0.1843340843915939,0.6200047135353088,walking,2026-03-04_14-01-30
1772632894669957600,4.53995751953125,-0.4088872364915907,-1.2696835434690117,-0.9333148690909148,0.3346091210842132,0.0974258184432983,0.5708526372909546,walking,2026-03-04_14-01-30
1772632894679906600,4.549906494140625,-0.7449133079770952,-1.4502888246834278,-0.7436106278806924,0.2903841137886047,0.0150097720324993,0.4802151620388031,walking,2026-03-04_14-01-30
1772632894689855500,4.55985546875,-0.981659213282168,-1.4886546495653687,-0.6419359677791595,0.232715368270874,-0.0462663359940052,0.3714739978313446,walking,2026-03-04_14-01-30
1772632894699805400,4.569805419921875,-1.0715150599699468,-1.4303006602741777,-0.7535732189685106,0.1765322536230087,-0.0640876740217208,0.271357774734497,walking,2026-03-04_14-01-30
1772632894709754400,4.57975439453125,-1.0635081329945475,-1.1912966738440096,-1.0043079752027988,0.1279928684234619,-0.0456192269921302,0.1969373375177383,walking,2026-03-04_14-01-30
1772632894719703600,4.58970361328125,-0.9404350763596594,-0.7895397276237607,-1.241700434783101,0.0852872133255004,-0.0287379827350378,0.1563166677951812,walking,2026-03-04_14-01-30
1772632894729652700,4.59965283203125,-0.7332903824616223,-0.3642810559153556,-1.3976473678201435,0.0574896745383739,-0.0107038561254739,0.1459559053182602,walking,2026-03-04_14-01-30
1772632894739601700,4.6096015625,-0.5235997304078192,0.0638492257066071,-1.5700959383249282,0.0564837977290153,0.0005850177258253,0.1505932807922363,walking,2026-03-04_14-01-30
1772632894749550600,4.619550537109375,-0.398398356507346,0.4863021923445165,-1.6940899822622535,0.0819459930062294,0.0200197696685791,0.1601623296737671,walking,2026-03-04_14-01-30
1772632894759499500,4.62949951171875,-0.2955849746994674,0.8337918340653181,-1.7622282834649086,0.1316200643777847,0.0443594641983509,0.1837789863348007,walking,2026-03-04_14-01-30
1772632894769448400,4.639448486328125,-0.1369599815595895,1.0836278878942132,-1.7466484370172022,0.1801880747079849,0.0669984817504882,0.2138832062482834,walking,2026-03-04_14-01-30
1772632894779397400,4.6493974609375,-0.0272529677804559,1.2497815960384904,-1.5719693309813736,0.2109648883342743,0.0667047351598739,0.2435319125652313,walking,2026-03-04_14-01-30
1772632894789346600,4.6593466796875,-0.004744564178586,1.3603840973526238,-1.227015491348505,0.2171211391687393,0.0567127987742424,0.2670439481735229,walking,2026-03-04_14-01-30
1772632894799295500,4.66929541015625,-0.0614664952885359,1.3511625338904558,-0.8923737868934869,0.2031075954437255,0.060028962790966,0.2755815088748932,walking,2026-03-04_14-01-30
1772632894809244700,4.67924462890625,-0.1664797982934862,1.2832124487362802,-0.591680529269576,0.1633461713790893,0.0598209537565708,0.2718317210674286,walking,2026-03-04_14-01-30
1772632894819193600,4.689193603515625,-0.3086028617046773,1.204219429911673,-0.3103536508947611,0.1240650713443756,0.0808335542678833,0.2723438441753387,walking,2026-03-04_14-01-30
1772632894829142500,4.699142578125,-0.3799338945340365,1.059195895818621,-0.1398357561916113,0.0971556007862091,0.1179149001836776,0.2747833430767059,walking,2026-03-04_14-01-30
1772632894839091500,4.709091552734375,-0.413071828699857,0.9450202121928334,-0.0772626879006624,0.0936439484357833,0.165636345744133,0.277388721704483,walking,2026-03-04_14-01-30
1772632894849040100,4.7190400390625,-0.4280126465916633,0.8428821723632514,-0.0377209511071443,0.1115448921918869,0.220711201429367,0.2789602875709533,walking,2026-03-04_14-01-30
1772632894858989000,4.728989013671875,-0.4212583500258624,0.7421436240680516,0.0547194321811199,0.1560572385787964,0.2716111242771148,0.2745404839515686,walking,2026-03-04_14-01-30
1772632894868938200,4.738938232421875,-0.3405567006524652,0.6047793725565076,0.1856879913061857,0.222854271531105,0.3003596365451813,0.2624104022979736,walking,2026-03-04_14-01-30
1772632894878887200,4.74888720703125,-0.2096251125369221,0.5275254524841905,0.4266138857096433,0.290791779756546,0.2850509881973266,0.2386371791362762,walking,2026-03-04_14-01-30
1772632894888836000,4.758836181640625,-0.0924973741725087,0.5155721259705722,0.7529927887320518,0.3253511786460876,0.1974037438631057,0.207072764635086,walking,2026-03-04_14-01-30
1772632894898785000,4.768784912109375,-0.0526822272650897,0.5692543240584432,1.1368488982111216,0.3218922615051269,0.0524827763438224,0.1549794822931289,walking,2026-03-04_14-01-30
1772632894908734200,4.778734130859375,-0.0161352153081446,0.629378830153495,1.4676386034131048,0.2905925512313843,-0.1325782537460327,0.0950191020965576,walking,2026-03-04_14-01-30
1772632894918683100,4.78868310546875,0.1159916470065712,0.7240452189281582,1.6193308016151189,0.2497676014900207,-0.2806502878665924,0.0538223907351493,walking,2026-03-04_14-01-30
1772632894928632000,4.798632080078125,0.245165650865063,0.888110284230113,1.501529182577133,0.1967434883117675,-0.3407381772994995,0.0506177805364131,walking,2026-03-04_14-01-30
1772632894938581200,4.808581298828125,0.2594035081192851,1.1363020779833195,1.276195409581065,0.1199182271957397,-0.3182909190654754,0.0703483447432518,walking,2026-03-04_14-01-30
1772632894948530200,4.8185302734375,0.1762082152992486,1.2642778850331902,1.1163654976308346,0.0277653206139802,-0.240883782505989,0.0865230411291122,walking,2026-03-04_14-01-30
1772632894958479000,4.82847900390625,0.0543155275553464,1.2219479788258671,0.976681132608652,-0.0595498755574226,-0.1334651857614517,0.0848186239600181,walking,2026-03-04_14-01-30
1772632894968428000,4.838427978515625,-0.0897377002008259,1.0893402741916478,0.8333639640420675,-0.1219301223754882,-0.0497747026383876,0.0609347522258758,walking,2026-03-04_14-01-30
1772632894978377200,4.848377197265625,-0.2022656896848231,0.9467204402394592,0.7172504442214965,-0.1593251675367355,-0.0167765375226736,0.0171609055250883,walking,2026-03-04_14-01-30
1772632894988326100,4.858326171875,-0.2456187283948063,0.8107799379207193,0.6981237189471722,-0.179802805185318,-0.05969163402915,-0.0376272983849048,walking,2026-03-04_14-01-30
1772632894998275000,4.868275146484375,-0.282119855383411,0.7077215683758259,0.7365209618806838,-0.2043885737657547,-0.1582339257001876,-0.0990773439407348,walking,2026-03-04_14-01-30
1772632895008224000,4.87822412109375,-0.3045667380563914,0.6394535033136606,0.751217011231184,-0.2351453006267547,-0.2826133668422699,-0.1736226975917816,walking,2026-03-04_14-01-30
1772632895018173200,4.888173095703125,-0.3386714714277535,0.599153641629219,0.5484896223187447,-0.2576098442077636,-0.3410694897174835,-0.2346948385238647,walking,2026-03-04_14-01-30
1772632895028122000,4.8981220703125,-0.3273505975987762,0.6232004337795078,0.1584516093343496,-0.2754753828048706,-0.3183600902557373,-0.2763135433197021,walking,2026-03-04_14-01-30
1772632895038071000,4.908071044921875,-0.2937999179136007,0.7086866140156984,-0.184590843719244,-0.2983383536338806,-0.2549355924129486,-0.3001006245613098,walking,2026-03-04_14-01-30
1772632895048020200,4.918020263671875,-0.1473253812946379,0.7169749882809817,-0.4478530730932951,-0.2857218086719513,-0.1033173277974128,-0.2840786278247833,walking,2026-03-04_14-01-30
1772632895057970000,4.927969970703125,-0.0063127633433789,0.7183855857312679,-0.8078688727796077,-0.2269091159105301,0.1029769852757453,-0.2453264445066452,walking,2026-03-04_14-01-30
1772632895067919000,4.937919189453125,0.1016737102534622,0.8050954625435173,-1.001193058052659,-0.1486165970563888,0.2648100554943084,-0.1869673281908035,walking,2026-03-04_14-01-30
1772632895077868300,4.947868408203125,0.2491407650411128,0.810306767451018,-0.8093938903898,-0.0726728439331054,0.330698549747467,-0.1239521354436874,walking,2026-03-04_14-01-30
1772632895087817200,4.957817138671875,0.4517493498794734,0.6637004942111671,-0.3389730116575956,-0.0169403776526451,0.3015807569026947,-0.0755602642893791,walking,2026-03-04_14-01-30
1772632895097766100,4.96776611328125,0.537580032704398,0.4703244326204061,0.2496615740448236,0.0137586770579218,0.2133848369121551,-0.0540160872042179,walking,2026-03-04_14-01-30
1772632895107715000,4.977715087890625,0.50196153376922,0.283826732366532,0.7645990553736687,0.0163766350597143,0.116271860897541,-0.0565467439591884,walking,2026-03-04_14-01-30
1772632895117664000,4.9876640625,0.4055529044371098,0.1006342111378908,1.1191484063476322,-0.00860514678061,0.0331681817770004,-0.077851764857769,walking,2026-03-04_14-01-30
1772632895127613200,4.99761328125,0.2493365798741579,-0.0233048877418041,1.342770699250698,-0.0635590553283691,-0.022355368360877,-0.1236224845051765,walking,2026-03-04_14-01-30
1772632895137562000,5.00756201171875,0.1462629396948963,-0.1207788812831044,1.4240063824355602,-0.1250743418931961,-0.0459914542734622,-0.1681904941797256,walking,2026-03-04_14-01-30
1772632895147511000,5.017510986328125,0.1797057750914245,-0.155220664589107,1.396865277531743,-0.1838951408863067,-0.0626436471939086,-0.192622110247612,walking,2026-03-04_14-01-30
1772632895157460200,5.027460205078125,0.2670194630157202,-0.0788299372173845,1.2892980522602795,-0.2344163656234741,-0.0756286904215812,-0.196410983800888,walking,2026-03-04_14-01-30
1772632895167409200,5.0374091796875,0.3215888192016631,0.0283865749202668,1.1312468404203653,-0.2632277905941009,-0.095794141292572,-0.1868772953748703,walking,2026-03-04_14-01-30
1772632895177358000,5.047358154296875,0.3151229841884225,0.1083038689829409,0.87043551132977,-0.2585808336734772,-0.1186736300587654,-0.179067850112915,walking,2026-03-04_14-01-30
1772632895187307000,5.05730712890625,0.260756822424382,0.1742776856280863,0.5127303266733885,-0.2202390283346176,-0.1210760697722435,-0.1731160432100296,walking,2026-03-04_14-01-30
1772632895197256200,5.067256103515625,0.1609783513329923,0.2144615197174251,0.1599117450147867,-0.1684543937444687,-0.1036789715290069,-0.1710230708122253,walking,2026-03-04_14-01-30
1772632895207205000,5.077205078125,0.0199403797447681,0.1898353202439844,-0.0740887340396642,-0.1204694435000419,-0.0596735887229442,-0.1762541085481643,walking,2026-03-04_14-01-30
1772632895217154000,5.087154052734375,-0.1009663657017052,0.1109599364496767,-0.1601432156831026,-0.0857111886143684,-0.019721645861864,-0.189953938126564,walking,2026-03-04_14-01-30
1772632895227103200,5.097103271484375,-0.168036891542375,0.0034879882462322,-0.1073094511181116,-0.0705266520380973,0.0124163180589675,-0.2088002413511276,walking,2026-03-04_14-01-30
1772632895237052200,5.10705224609375,-0.1754322624906897,-0.1393900582507252,0.0494160650759935,-0.0772807002067565,0.0289809126406908,-0.2265906780958175,walking,2026-03-04_14-01-30
1772632895247001000,5.1170009765625,-0.1397217013578862,-0.2956359742343425,0.2343324874877929,-0.1020080521702766,0.0257424861192703,-0.2487573027610778,walking,2026-03-04_14-01-30
1772632895256950000,5.126949951171875,-0.1241431700844317,-0.4369036629252135,0.4543395125031471,-0.1407719552516937,-0.0078692678362131,-0.2760352790355682,walking,2026-03-04_14-01-30
1772632895266899200,5.136899169921875,-0.1301611882649362,-0.5783299031786621,0.552024810707569,-0.1582800596952438,-0.0430353246629238,-0.3102882802486419,walking,2026-03-04_14-01-30
1772632895276848000,5.14684814453125,-0.0950067997101694,-0.6708896750628948,0.3621732699811458,-0.1309432387351989,-0.0544190071523189,-0.3311565518379211,walking,2026-03-04_14-01-30
1772632895286797000,5.156797119140625,-0.029739304703474,-0.6863210529506206,0.0311971022963523,-0.0669805184006691,-0.0533691868185997,-0.3306499123573303,walking,2026-03-04_14-01-30
1772632895296746000,5.16674609375,0.0964708078481256,-0.6565767798110842,-0.1954810710459947,0.0032965729478746,-0.0502072162926197,-0.3120413422584533,walking,2026-03-04_14-01-30
1772632895306695200,5.176695068359375,0.241029647038877,-0.6898113792844116,-0.2102823343366384,0.0498042814433574,-0.0800331830978393,-0.2882433831691742,walking,2026-03-04_14-01-30
1772632895316644000,5.18664404296875,0.3454421346064656,-0.7900573217570781,-0.055114568978548,0.0692309737205505,-0.1347622126340866,-0.2745092213153839,walking,2026-03-04_14-01-30
1772632895326593300,5.19659326171875,0.3449021825108677,-0.9287430311307312,0.0933662659615278,0.0718433409929275,-0.1702989786863327,-0.2746962606906891,walking,2026-03-04_14-01-30
1772632895336542200,5.206542236328125,0.3307363675795495,-1.075706885636598,0.0931879867851734,0.0578915737569332,-0.178487941622734,-0.2964332401752472,walking,2026-03-04_14-01-30
1772632895346491100,5.2164912109375,0.2765283920519054,-1.187411356843263,0.0333972426891326,0.0249050706624984,-0.1730089336633682,-0.3248209357261657,walking,2026-03-04_14-01-30
1772632895356440000,5.226440185546875,0.2001926097378134,-1.271314213410765,-0.0299842193752527,-0.0048056859523057,-0.1604020595550537,-0.3573844730854034,walking,2026-03-04_14-01-30
1772632895366389000,5.236388916015625,0.3010853987466543,-1.2877028920233249,-0.1283563308000564,-0.0188263598829507,-0.1653217524290084,-0.3762688338756561,walking,2026-03-04_14-01-30
1772632895376338000,5.246337890625,0.5207485787604004,-1.1828854038514196,-0.2895511013627052,0.0006272322498261,-0.1803531646728515,-0.3679326176643371,walking,2026-03-04_14-01-30
1772632895386287000,5.256287109375,0.76443801959306,-0.99815120613873,-0.554906503623724,0.0548215471208095,-0.1713565438985824,-0.3237733542919159,walking,2026-03-04_14-01-30
1772632895396236300,5.266236328125,1.0034229359965772,-0.7893952045865357,-0.8265794184684753,0.127829447388649,-0.1441411674022674,-0.2591594755649566,walking,2026-03-04_14-01-30
1772632895406186000,5.27618603515625,1.1961843728203323,-0.6421857047565281,-0.9708645552843808,0.1981622576713562,-0.1200751289725303,-0.1893300265073776,walking,2026-03-04_14-01-30
1772632895416135200,5.28613525390625,1.321959089629352,-0.5926813768751918,-0.916840704151988,0.2446868866682052,-0.1077180579304695,-0.1260866075754165,walking,2026-03-04_14-01-30
1772632895426084000,5.296083984375,1.3749518441483377,-0.6361211440205574,-0.7323030519247055,0.25081667304039,-0.1074477434158325,-0.0844511687755584,walking,2026-03-04_14-01-30
1772632895436033000,5.306032958984375,1.334473118765652,-0.7494960326574742,-0.4512199191778898,0.2269986718893051,-0.1289581060409546,-0.0659725591540336,walking,2026-03-04_14-01-30
1772632895450335000,5.3203349609375,1.228183804475516,-0.8890531180381774,-0.2897539304584264,0.1810577064752578,-0.168332502245903,-0.072514921426773,walking,2026-03-04_14-01-30
1772632895460284200,5.3302841796875,1.0907111972186714,-0.9308619229808448,-0.3330325156927108,0.1531445831060409,-0.1872095167636871,-0.0809435620903968,walking,2026-03-04_14-01-30
1772632895470233000,5.340233154296875,0.9176602769065648,-0.8532346395514905,-0.5385767155915498,0.1403499245643615,-0.184005856513977,-0.0802206620573997,walking,2026-03-04_14-01-30
1772632895480182300,5.350182373046875,0.7789020137533545,-0.7635207586176693,-0.7789426380246878,0.1471990346908569,-0.1473059058189392,-0.0732746124267578,walking,2026-03-04_14-01-30
1772632895490131200,5.360131103515625,0.7169369212929159,-0.6374965240269899,-1.0879226624786853,0.1754964888095855,-0.0887356102466583,-0.0555210635066032,walking,2026-03-04_14-01-30
1772632895500080000,5.370080078125,0.6951302362196147,-0.4786630757682025,-1.2946207085877657,0.2096232920885086,-0.0426568053662776,-0.0217066407203674,walking,2026-03-04_14-01-30
1772632895510029000,5.380029052734375,0.6871427445970475,-0.3367839771807193,-1.3006915529340506,0.2267626523971557,-0.0525157041847705,0.0073549952358007,walking,2026-03-04_14-01-30
1772632895519978000,5.38997802734375,0.5985694850657135,-0.2443416941963136,-1.0845949793606997,0.2119078040122985,-0.1040902137756347,0.0088796550408005,walking,2026-03-04_14-01-30
1772632895529927000,5.399927001953125,0.4229214609324931,-0.2456881403692066,-0.8573989196240901,0.1653393357992172,-0.1821915060281753,-0.0190837159752845,walking,2026-03-04_14-01-30
1772632895539876000,5.4098759765625,0.1378018392112106,-0.2006858000822365,-0.7170978840082883,0.089947372674942,-0.2527863085269928,-0.0772335678339004,walking,2026-03-04_14-01-30
1772632895549825300,5.4198251953125,-0.2430904520262032,-0.0453749729916453,-0.7647685667216777,6.07082620263e-05,-0.2540188431739807,-0.14852075278759,walking,2026-03-04_14-01-30
1772632895559774200,5.429774169921875,-0.5580383353760465,0.1800366875462234,-0.9890478622287512,-0.0725269466638565,-0.1573309004306793,-0.2057081460952758,walking,2026-03-04_14-01-30
1772632895569723100,5.43972314453125,-0.6763831579126417,0.4774121989242732,-1.313381523159146,-0.1073923259973526,0.0042074099183082,-0.2282449305057525,walking,2026-03-04_14-01-30
1772632895579672000,5.449672119140625,-0.6398348307814449,0.8671174728229641,-1.538320159357786,-0.0915180221199989,0.1868049055337906,-0.2086592465639114,walking,2026-03-04_14-01-30
1772632895589621000,5.45962109375,-0.5101400544518605,1.2173029294990003,-1.4881880549669264,-0.0321185179054737,0.3161482810974121,-0.1692786365747451,walking,2026-03-04_14-01-30
1772632895599570000,5.46956982421875,-0.303227452276647,1.461179198140651,-1.1950427285045384,0.0621725618839263,0.3346585929393768,-0.1148207187652587,walking,2026-03-04_14-01-30
1772632895609519000,5.47951904296875,-0.0627238384058699,1.547536169862002,-0.8444231181949376,0.1913529187440872,0.2659363746643066,-0.059663638472557,walking,2026-03-04_14-01-30
1772632895619468300,5.48946826171875,0.110651235826686,1.6407647809185086,-0.4941945530295372,0.3413288295269012,0.1420424133539199,-0.002254141960293,walking,2026-03-04_14-01-30
1772632895629417200,5.499417236328125,0.2258318587113171,1.728277644676715,-0.240516729080677,0.4895902276039123,0.0262837875634431,0.0622958652675151,walking,2026-03-04_14-01-30
1772632895639366100,5.5093662109375,0.2613151138942688,1.7517931064292789,-0.0339917014509439,0.6037828326225281,-0.0437032878398895,0.1158717423677444,walking,2026-03-04_14-01-30
1772632895649315000,5.519315185546875,0.0916380539294332,1.7110510539352892,0.2681681215941905,0.6455869674682617,-0.080010287463665,0.1282740980386734,walking,2026-03-04_14-01-30
1772632895659264000,5.529263916015625,-0.1938973089858889,1.5521115149535238,0.6088029289841651,0.6423994302749634,-0.0835099443793296,0.1164057105779647,walking,2026-03-04_14-01-30
1772632895669213200,5.539213134765625,-0.504290451640822,1.2898723450168967,0.7352987266093493,0.572410523891449,-0.0303441304713487,0.0341523475944995,walking,2026-03-04_14-01-30
1772632895679162000,5.549162109375,-1.0037269604444503,1.1953935877688229,1.0856921269476414,0.4204060435295105,-0.021563421934843,-0.0805694386363029,walking,2026-03-04_14-01-30
1772632895689111300,5.559111328125,-1.205432020571828,0.9601258652575312,1.4502964234679936,0.216833010315895,-0.0254270788282156,-0.1980545967817306,walking,2026-03-04_14-01-30
1772632895699060200,5.569060302734375,-1.2113278006121515,0.8049819191664457,1.603358740979433,0.0211788192391395,-0.0076038734987378,-0.2930317223072052,walking,2026-03-04_14-01-30
1772632895709009200,5.579009033203125,-1.101370538398996,0.8611078571446239,1.4300100067645312,-0.1231307536363601,0.0533927157521247,-0.3551410734653473,walking,2026-03-04_14-01-30
1772632895718958000,5.5889580078125,-0.9692590197838842,1.0471319485373791,1.0450064808160069,-0.1971991211175918,0.1376210451126098,-0.3734540343284607,walking,2026-03-04_14-01-30
1772632895728907000,5.598906982421875,-0.7152955107614397,1.2536352027267217,0.6378343776792288,-0.2119070887565612,0.2064522057771682,-0.3520104587078094,walking,2026-03-04_14-01-30
1772632895738856200,5.608856201171875,-0.4168478401072323,1.3842780370287595,0.3818780874043703,-0.1780378073453903,0.230941042304039,-0.305226981639862,walking,2026-03-04_14-01-30
1772632895748805000,5.61880517578125,-0.1303269002206623,1.4377140052706003,0.2963485064178705,-0.1300115585327148,0.2123371660709381,-0.2422735095024109,walking,2026-03-04_14-01-30
1772632895758754000,5.628754150390625,0.1043370111785829,1.3897032769478856,0.383838573822379,-0.0955976545810699,0.1432036310434341,-0.1803803145885467,walking,2026-03-04_14-01-30
1772632895768704300,5.638704345703125,0.2116661899104714,1.21479986063689,0.5830553242653608,-0.1025900617241859,0.0466163046658039,-0.1419116258621215,walking,2026-03-04_14-01-30
1772632895778653200,5.648653076171875,0.1426545399393886,0.961353653486818,0.7921323744654655,-0.1552612632513046,-0.0363110713660717,-0.1308509856462478,walking,2026-03-04_14-01-30
1772632895789223200,5.65922314453125,-0.0825370481070131,0.7112646478101611,0.8849848456859588,-0.2392464429140091,-0.0796124637126922,-0.1509506553411483,walking,2026-03-04_14-01-30
1772632895799172000,5.669172119140625,-0.2806353159140795,0.5399323679842054,0.7268862875729799,-0.2995587885379791,-0.0645214021205902,-0.1633263677358627,walking,2026-03-04_14-01-30
1772632895809121000,5.67912109375,-0.3099700584046542,0.5066222190566361,0.4154401652663946,-0.3166057169437408,-0.0020834486931562,-0.1482757627964019,walking,2026-03-04_14-01-30
1772632895819070200,5.6890703125,-0.2005128546681255,0.5853796755596995,-0.0032382512688636,-0.283982515335083,0.0844575688242912,-0.0987223163247108,walking,2026-03-04_14-01-30
1772632895829019100,5.69901904296875,-0.031709216536954,0.6499706595443189,-0.2712958982259035,-0.2243439257144928,0.1603842079639434,-0.0263670515269041,walking,2026-03-04_14-01-30
1772632895838968000,5.708968017578125,0.1308265933711081,0.596846533730626,-0.2481196052998304,-0.1589808911085128,0.1799925416707992,0.0422809869050979,walking,2026-03-04_14-01-30
1772632895848917000,5.7189169921875,0.2415020137909799,0.4256184449315071,0.0237608148157596,-0.1070716083049774,0.1514426469802856,0.0901762396097183,walking,2026-03-04_14-01-30
1772632895858866700,5.72886669921875,0.2391434679660946,0.1988863494448363,0.3520101878851652,-0.0783568695187568,0.0881393104791641,0.1126221567392349,walking,2026-03-04_14-01-30
1772632895868815600,5.738815673828125,0.1589943379089236,-0.0150390175692737,0.7347399236828088,-0.0934906899929046,-0.0047166966833174,0.1105405315756797,walking,2026-03-04_14-01-30
1772632895878764500,5.7487646484375,0.0170917123153805,-0.2027722509674727,1.0859645141482352,-0.1492104232311248,-0.1163910329341888,0.084387756884098,walking,2026-03-04_14-01-30
1772632895888713500,5.75871337890625,-0.0970831675928085,-0.3704394324146211,1.2171809105545282,-0.2101148515939712,-0.1792308986186981,0.0518384203314781,walking,2026-03-04_14-01-30
1772632895898663400,5.768663330078125,-0.1971981040969491,-0.4295584147289395,1.0153104307323693,-0.258240282535553,-0.1675603985786438,0.0290851686149835,walking,2026-03-04_14-01-30
1772632895908612600,5.778612548828125,-0.3038553018514067,-0.3028261779993772,0.6805822170376777,-0.2852668762207031,-0.1433177590370178,0.0212536212056875,walking,2026-03-04_14-01-30
1772632895918561800,5.788561767578125,-0.2473239979427307,-0.1503453136377036,0.3311228826791048,-0.2748869359493255,-0.1214220523834228,0.0451280623674392,walking,2026-03-04_14-01-30
1772632895928510700,5.7985107421875,-0.0401820805236697,-0.0068961892545223,-0.0752589468628168,-0.2214366346597671,-0.0698335245251655,0.106392815709114,walking,2026-03-04_14-01-30
1772632895938459600,5.808459716796875,0.108164606642723,0.165494075191766,-0.4137807076215744,-0.1478287279605865,-0.0032603575382381,0.1795575618743896,walking,2026-03-04_14-01-30
1772632895948408600,5.81840869140625,0.051835985699296,0.2579913032338023,-0.5155079746931791,-0.090763010084629,0.0563503019511699,0.2323028445243835,walking,2026-03-04_14-01-30
1772632895958357500,5.828357421875,-0.090362261839956,0.1598725820481777,-0.3348854500830173,-0.0718657523393631,0.0906012132763862,0.2443355321884155,walking,2026-03-04_14-01-30
1772632895968306400,5.838306396484375,-0.2533988608770072,-0.079648706254363,0.0421188938051462,-0.0975029096007347,0.1031941026449203,0.2227588444948196,walking,2026-03-04_14-01-30
1772632895978255600,5.848255615234375,-0.3807214647151529,-0.2874786790028214,0.4585696974188089,-0.1556471884250641,0.1099960803985595,0.1947637051343917,walking,2026-03-04_14-01-30
1772632895988204800,5.858204833984375,-0.4034498677432537,-0.4356861038289964,0.787392486461997,-0.218468964099884,0.098519779741764,0.1771878451108932,walking,2026-03-04_14-01-30
1772632895998153700,5.86815380859375,-0.2914826539471745,-0.4996943194895982,0.9368442122608422,-0.261092334985733,0.0706332847476005,0.1767745167016983,walking,2026-03-04_14-01-30
1772632896008102700,5.8781025390625,-0.1123014141865074,-0.4687444699525833,0.8859200807094574,-0.2720336616039276,0.0497704111039638,0.1968568414449691,walking,2026-03-04_14-01-30
1772632896018051600,5.888051513671875,-0.0206163062449544,-0.393359558622539,0.7296896545559167,-0.258926123380661,0.0429117083549499,0.221243679523468,walking,2026-03-04_14-01-30
1772632896028000500,5.89800048828125,0.0138010002069175,-0.3532781619943678,0.5720078605502843,-0.2397644072771072,0.0587537884712219,0.2451183795928955,walking,2026-03-04_14-01-30
1772632896037949400,5.907949462890625,0.0293616304975002,-0.3733104578062892,0.4840975219070911,-0.2176162302494049,0.0836977511644363,0.2686751186847687,walking,2026-03-04_14-01-30
1772632896047898600,5.917898681640625,0.0403081911213695,-0.4134286793135106,0.4447884248256683,-0.1963374763727188,0.1101171523332595,0.2898375689983368,walking,2026-03-04_14-01-30
1772632896057847600,5.92784765625,0.028635142853856,-0.4380928727097809,0.4725537991076707,-0.1870478391647339,0.1079962104558944,0.3071300089359283,walking,2026-03-04_14-01-30
1772632896067796700,5.937796630859375,0.0504645512156188,-0.528746957103163,0.5660568431913853,-0.1886239796876907,0.0772347897291183,0.3132320940494537,walking,2026-03-04_14-01-30
1772632896077745700,5.94774560546875,0.0643883010193705,-0.6136195354856551,0.6245932033121585,-0.1998859494924545,0.0403390899300575,0.3136741816997528,walking,2026-03-04_14-01-30
1772632896087694600,5.957694580078125,0.0619371084749698,-0.649868806605041,0.6088052670717239,-0.2186381071805954,0.0031386017799377,0.3020554482936859,walking,2026-03-04_14-01-30
1772632896097643500,5.9676435546875,0.0222637081257998,-0.6508822214312852,0.492663690200448,-0.2364352196455001,-0.0241891592741012,0.2861020565032959,walking,2026-03-04_14-01-30
1772632896107592700,5.9775927734375,-0.0239055570486932,-0.5865373211622238,0.2419803718924522,-0.2406800985336303,-0.0303332544863224,0.2771565616130829,walking,2026-03-04_14-01-30
1772632896117541600,5.987541748046875,0.0047319238927215,-0.4582847429975867,-0.0975894366145133,-0.2240188270807266,-0.0259049497544765,0.2893801927566528,walking,2026-03-04_14-01-30
1772632896127490600,5.997490478515625,0.1042958754505962,-0.273602859994024,-0.4920172089904546,-0.1843522638082504,-0.0119496807456016,0.3147628605365753,walking,2026-03-04_14-01-30
1772632896137439700,6.007439697265625,0.134418407317996,-0.1197166588790714,-0.8857038076102733,-0.1593992412090301,0.0149495769292116,0.3266434967517853,walking,2026-03-04_14-01-30
1772632896147388700,6.017388671875,0.030435908665508,-0.0139732880339026,-0.9380915819734336,-0.1299271136522293,0.0245266370475292,0.3707453906536102,walking,2026-03-04_14-01-30
1772632896157337600,6.027337646484375,0.1463905846625566,-0.0689860040731728,-1.098704753255844,-0.0837817192077636,0.0722512826323509,0.4120182693004608,walking,2026-03-04_14-01-30
1772632896167286500,6.03728662109375,0.0370271236240863,0.0258918354950845,-1.3968079943865537,-0.019999599084258,0.1523371338844299,0.4424890875816345,walking,2026-03-04_14-01-30
1772632896177235700,6.047235595703125,-0.0782961956668645,0.0643977995000779,-1.5564689795106648,0.0482194051146507,0.231899082660675,0.4956527054309845,walking,2026-03-04_14-01-30
1772632896187184600,6.0571845703125,0.0111374800860881,-0.0653900254078209,-1.52425071747303,0.1065270751714706,0.274103969335556,0.5518658757209778,walking,2026-03-04_14-01-30
1772632896197133600,6.067133544921875,0.027918080625683,-0.2018397924229502,-1.2974755134969949,0.1384711563587188,0.2590027749538421,0.5878507494926453,walking,2026-03-04_14-01-30
1772632896207083800,6.077083740234375,-0.0502339573301374,-0.4104097698837518,-0.9508744911789894,0.144958347082138,0.196592316031456,0.6000111699104309,walking,2026-03-04_14-01-30
1772632896217032700,6.08703271484375,-0.1549925549216568,-0.6679340401276945,-0.7082721879959106,0.1327959448099136,0.1155427396297454,0.5869613885879517,walking,2026-03-04_14-01-30
1772632896226981600,6.096981689453125,-0.3627427404321729,-0.8626748142004013,-0.5986988835990429,0.1028353497385978,0.055401787161827,0.5413439869880676,walking,2026-03-04_14-01-30
1772632896236930600,6.1069306640625,-0.6498599657114594,-0.9783834064818918,-0.6406734004974365,0.0706387981772422,0.0423728041350841,0.4723366796970367,walking,2026-03-04_14-01-30
1772632896246879500,6.11687939453125,-0.8393613778259604,-1.024246309120953,-0.8292834167301655,0.0536306239664554,0.0687435269355773,0.4137226641178131,walking,2026-03-04_14-01-30
1772632896256828700,6.12682861328125,-0.8111375191867352,-0.9553658112488688,-1.0633820954620838,0.0585031434893608,0.109427310526371,0.376372367143631,walking,2026-03-04_14-01-30
1772632896266777600,6.136777587890625,-0.6746496121183038,-0.7876194270856678,-1.2667629798471929,0.0820516198873519,0.1409319639205932,0.3699003458023071,walking,2026-03-04_14-01-30
1772632896276726800,6.146726806640625,-0.4937221862774342,-0.5731117301389574,-1.3546212960422035,0.1104702055454254,0.1446257680654525,0.3783806562423706,walking,2026-03-04_14-01-30
1772632896286675700,6.15667578125,-0.3283140358034521,-0.3918718042828142,-1.334465812242031,0.1400244086980819,0.1352614313364029,0.3965768814086914,walking,2026-03-04_14-01-30
1772632896296624600,6.166624755859375,-0.2545477386511862,-0.2230313412725925,-1.2654337770700457,0.1627166718244552,0.1071091443300247,0.4010651111602783,walking,2026-03-04_14-01-30
1772632896306573600,6.176573486328125,-0.2940291235595941,-0.0627745822124183,-1.093038982579112,0.1527276039123535,0.0823998227715492,0.3856282830238342,walking,2026-03-04_14-01-30
1772632896316522500,6.1865224609375,-0.3719949182283133,-0.0205209561116993,-0.9372598073244094,0.1168641522526741,0.0396150834858417,0.3564581573009491,walking,2026-03-04_14-01-30
1772632896326471700,6.1964716796875,-0.4727660536188632,0.0767941936060786,-0.7695949639648199,0.0758935064077377,-0.0156696029007434,0.3197689652442932,walking,2026-03-04_14-01-30
1772632896336420600,6.206420654296875,-0.5413588936559856,0.2122980580732226,-0.7546627677708864,0.0392380207777023,-0.035473134368658,0.2680653035640716,walking,2026-03-04_14-01-30
1772632896346369500,6.21636962890625,-0.6019922991212457,0.2944660536721348,-0.858370979526639,0.0129514578729867,-0.0695547088980674,0.2156647592782974,walking,2026-03-04_14-01-30
1772632896356318700,6.226318603515625,-0.5964924595959484,0.5037133458726107,-0.9087807318150996,-0.004620078485459,-0.0982161834836006,0.1791799813508987,walking,2026-03-04_14-01-30
1772632896366267600,6.236267578125,-0.4454320564914494,0.6404786085776984,-1.039998297265172,0.0124866366386413,-0.0878846347332,0.1621183604001999,walking,2026-03-04_14-01-30
1772632896376216600,6.246216552734375,-0.3151860394872725,0.8038907629288733,-1.3431488849133253,0.0807168260216713,-0.0229892544448375,0.1829783618450164,walking,2026-03-04_14-01-30
1772632896386165500,6.25616552734375,-0.1998783561568707,1.061030417769402,-1.5938333722651004,0.1824894845485687,0.0788356587290763,0.2427365332841873,walking,2026-03-04_14-01-30
1772632896396114700,6.26611474609375,-0.0562335630711168,1.21950423893556,-1.6869430331170558,0.2910916209220886,0.2123391330242157,0.3204377293586731,walking,2026-03-04_14-01-30
1772632896406063600,6.276063720703125,-0.036668300249055,1.1971456921331585,-1.4140461294353008,0.3757942616939544,0.332146018743515,0.3808905184268951,walking,2026-03-04_14-01-30
1772632896416012500,6.286012451171875,-0.1057079342056065,1.0461299318879842,-0.8069500043690204,0.4195486605167389,0.3785641193389892,0.4080497026443481,walking,2026-03-04_14-01-30
1772632896425961700,6.295961669921875,-0.1443278799790888,0.80270783675462,-0.0546451979011297,0.4238145351409912,0.3768461644649505,0.404272586107254,walking,2026-03-04_14-01-30
1772632896435910700,6.30591064453125,-0.2194537019815295,0.5291913398697972,0.6333668768763542,0.4085250496864319,0.3687594830989837,0.3671574294567108,walking,2026-03-04_14-01-30
1772632896445859600,6.315859619140625,-0.3329292745139449,0.3270247997105121,1.1553700588077307,0.3818597793579101,0.3416213393211365,0.3029590547084808,walking,2026-03-04_14-01-30
1772632896455808500,6.32580859375,-0.3538872338034212,0.2456801031932234,1.604381069764495,0.3468101918697357,0.2765651345252991,0.2236732989549636,walking,2026-03-04_14-01-30
1772632896465757700,6.3357578125,-0.2321960599809885,0.2627681622467935,1.941196026605368,0.3153603076934814,0.1824711412191391,0.1535457372665405,walking,2026-03-04_14-01-30
1772632896475706600,6.34570654296875,0.0317706644006073,0.3636107554383576,2.1165525935113427,0.2802169919013977,0.0524899698793888,0.0986308082938194,walking,2026-03-04_14-01-30
1772632896485655600,6.355655517578125,0.3019813977383077,0.5838165178962051,2.185696272364259,0.2471241354942321,-0.0722729042172432,0.0792253613471984,walking,2026-03-04_14-01-30
1772632896495604500,6.3656044921875,0.4744055644541978,0.8942929183878005,2.1090835728049275,0.2043484449386596,-0.1689802557229995,0.082943394780159,walking,2026-03-04_14-01-30
1772632896505553700,6.3755537109375,0.5663137405619025,1.15415410714671,1.9489543856471776,0.1506832391023636,-0.2219205498695373,0.1028342396020889,walking,2026-03-04_14-01-30
1772632896515503600,6.385503662109375,0.643740752178803,1.287496409665793,1.7364403467357157,0.0835454761981964,-0.2585773766040802,0.1263281255960464,walking,2026-03-04_14-01-30
1772632896525452500,6.39545263671875,0.6005996757190675,1.3692878270372748,1.5003198067873715,0.0139739587903022,-0.2482085675001144,0.1407096236944198,walking,2026-03-04_14-01-30
1772632896535401500,6.4054013671875,0.5004397310294211,1.3718721444420516,1.1548925044238567,-0.0482278950512409,-0.2088435888290405,0.14975506067276,walking,2026-03-04_14-01-30
1772632896545350700,6.4153505859375,0.4082685200713574,1.3340778358377516,0.8327578148424625,-0.098862238228321,-0.1744355708360672,0.1535408794879913,walking,2026-03-04_14-01-30
1772632896555299600,6.425299560546875,0.3297046133790165,1.2783379745677113,0.5663543648332358,-0.1458020657300949,-0.1695327013731002,0.1389638036489486,walking,2026-03-04_14-01-30
1772632896565248800,6.435248779296875,0.1500594093684107,1.1631298791542648,0.3717389707058668,-0.1883828341960907,-0.1956202238798141,0.096960000693798,walking,2026-03-04_14-01-30
1772632896575197700,6.44519775390625,-0.0702400227222591,1.0670486551456153,0.1801806260615587,-0.2348608523607254,-0.2219500988721847,0.0276893116533756,walking,2026-03-04_14-01-30
1772632896585146600,6.455146728515625,-0.2665735458791256,0.9947884517073632,-0.036557752546668,-0.2820591330528259,-0.2311336249113083,-0.0486798249185085,walking,2026-03-04_14-01-30
1772632896595095600,6.465095458984375,-0.4353753573793917,0.9652198273956776,-0.2886006687700748,-0.3245123028755188,-0.2067353427410125,-0.1256545037031173,walking,2026-03-04_14-01-30
1772632896605044500,6.47504443359375,-0.4935102240271866,0.999949195471406,-0.5516524702638388,-0.3507576286792755,-0.1667993515729904,-0.1923450380563736,walking,2026-03-04_14-01-30
1772632896614993700,6.48499365234375,-0.4165904312800615,1.0490823519527912,-0.8491115682721138,-0.3323197662830353,-0.0803763046860694,-0.225486472249031,walking,2026-03-04_14-01-30
1772632896624942600,6.494942626953125,-0.1907509737841785,1.1520781776554885,-1.14714642034173,-0.2670725584030151,0.0615279600024223,-0.1992123872041702,walking,2026-03-04_14-01-30
1772632896634891500,6.5048916015625,0.0488764052413404,1.3442995162531732,-1.3176853578329086,-0.1862123310565948,0.2044209241867065,-0.1327124536037445,walking,2026-03-04_14-01-30
1772632896644840700,6.5148408203125,0.2986037379987538,1.4398817046985029,-1.1841273667365313,-0.0997248813509941,0.3179814517498016,-0.0321356616914272,walking,2026-03-04_14-01-30
1772632896654789600,6.52478955078125,0.5640904384892433,1.351667560803145,-0.8437351359307765,-0.0328861996531486,0.3661327362060547,0.0665301978588104,walking,2026-03-04_14-01-30
1772632896664738600,6.534738525390625,0.6500014930739998,1.1509325147517024,-0.2757581383317709,0.0015382366254925,0.3542957603931427,0.1390256285667419,walking,2026-03-04_14-01-30
1772632896674687700,6.544687744140625,0.6088043902888893,0.8644538065716624,0.3723486270368099,0.0062179430387914,0.3101469278335571,0.1791988760232925,walking,2026-03-04_14-01-30
1772632896684636700,6.55463671875,0.5078537336129695,0.5386347293891013,0.89936174608469,-0.013247026130557,0.2391861230134964,0.1939726769924163,walking,2026-03-04_14-01-30
1772632896694585600,6.564585693359375,0.3624978257603943,0.2667150001764297,1.2080173608899116,-0.0417250096797943,0.1684333980083465,0.1858439147472381,walking,2026-03-04_14-01-30
1772632896704534500,6.574534423828125,0.155902728569135,0.0952908042833209,1.4333184006601571,-0.0865959897637367,0.0831403136253357,0.1475631445646286,walking,2026-03-04_14-01-30
1772632896714483500,6.5844833984375,0.0125854869373142,-0.077412617765367,1.5707815825015303,-0.1394227296113968,-0.0221352465450763,0.0920343846082687,walking,2026-03-04_14-01-30
1772632896724432600,6.5944326171875,-0.020012787393853,-0.2289826508924365,1.5606868894666432,-0.1710506677627563,-0.1354245245456695,0.0357438474893569,walking,2026-03-04_14-01-30
1772632896734381600,6.604381591796875,0.037930502204597,-0.2128495544761419,1.299478085491061,-0.1634342968463897,-0.2091016769409179,0.006794486194849,walking,2026-03-04_14-01-30
1772632896744330800,6.614330810546875,0.1291264383897185,-0.0092860070005059,0.8550982414662838,-0.1359239071607589,-0.2375720590353012,0.0174345560371875,walking,2026-03-04_14-01-30
1772632896754279700,6.62427978515625,0.1472548733416944,0.1909628629691898,0.4537041372090578,-0.1145898476243019,-0.239807516336441,0.0317679531872272,walking,2026-03-04_14-01-30
1772632896764228600,6.634228515625,0.0349329278238117,0.238503489562124,0.195362997624278,-0.1094706207513809,-0.2006934136152267,0.0300973039120435,walking,2026-03-04_14-01-30
1772632896774177500,6.644177490234375,-0.1295947134885937,0.1806982201948762,0.0289350025832653,-0.1177597045898437,-0.1423843055963516,0.0101829823106527,walking,2026-03-04_14-01-30
