time,seconds_elapsed,acc_x,acc_y,acc_z,gyr_x,gyr_y,gyr_z,activity,session
1772632852078518300,0.074518310546875,-0.0574751606300473,-0.24372356229797,0.3022714667260646,-0.0218621045351028,-0.1412672847509384,-0.0357940420508384,walking,2026-03-04_14-00-52
1772632852088467200,0.08446728515625,0.0021381080072373,-0.1948079940900206,0.2292126602560281,-0.0211806017905473,-0.1473342329263687,-0.0455595888197422,walking,2026-03-04_14-00-52
1772632852098416000,0.094416015625,0.0139833710364997,-0.119138420599699,0.0955482861757278,-0.0165041368454694,-0.1036387011408805,-0.0509003214538097,walking,2026-03-04_14-00-52
1772632852108365000,0.104364990234375,0.0397143899466842,-0.0422818292818963,-0.0615624299436807,-0.0200317595154047,-0.0445303693413734,-0.0502915196120739,walking,2026-03-04_14-00-52
1772632852118314000,0.11431396484375,0.0970746920254081,0.0208382053673267,-0.0992939024448394,-0.0350930467247962,-0.0016240391414612,-0.0348418839275836,walking,2026-03-04_14-00-52
1772632852128263000,0.124262939453125,0.1938837188519537,0.0485812216870486,-0.0202858321815729,-0.0500182025134563,0.0165403168648481,-0.0093772690743207,walking,2026-03-04_14-00-52
1772632852138213000,0.134213134765625,0.2383685380708426,0.0403910470992326,0.0254249486356973,-0.0603808760643005,0.0135185727849602,0.0066047366708517,walking,2026-03-04_14-00-52
1772632852148162000,0.144162109375,0.2343998536355793,0.0121180155560374,0.0134101011931896,-0.0533996634185314,0.0057839537039399,0.0120410472154617,walking,2026-03-04_14-00-52
1772632852158111000,0.154111083984375,0.2125267157299444,-0.0423434963412582,-0.0194657479703426,-0.0366302132606506,0.0008915169164538,0.005079043097794,walking,2026-03-04_14-00-52
1772632852168060200,0.16406005859375,0.1769937031211331,-0.0885527281999588,-0.0714765057146549,-0.0214531235396862,-0.0039551700465381,-0.0083986818790435,walking,2026-03-04_14-00-52
1772632852178009000,0.174009033203125,0.1755523452064022,-0.1192015489637851,-0.0222223532021045,-0.0119385728612542,-0.0063657099381089,-0.0156201729550957,walking,2026-03-04_14-00-52
1772632852187958000,0.1839580078125,0.1914830874510109,-0.146623955027014,0.0134451725065708,-0.01010871399194,6.20959326624e-05,-0.02143438719213,walking,2026-03-04_14-00-52
1772632852197907200,0.1939072265625,0.2010598575590178,-0.1409972011864185,0.0604740501850843,-0.0120099456980824,0.0006304145790636,-0.0224695578217506,walking,2026-03-04_14-00-52
1772632852207856000,0.203856201171875,0.2487572821488604,-0.1199886076882481,0.1719774458616972,-0.0231411606073379,-0.0060016554780304,-0.0256485734134912,walking,2026-03-04_14-00-52
1772632852217805000,0.21380517578125,0.290394602982141,-0.115729196678102,0.2422837387531995,-0.0341263189911842,-0.0138897597789764,-0.0318021513521671,walking,2026-03-04_14-00-52
1772632852227754200,0.223754150390625,0.2992666954195127,-0.0911238938622176,0.1981675336509943,-0.0303960312157869,-0.0033039613626897,-0.0362490974366664,walking,2026-03-04_14-00-52
1772632852237703200,0.233703125,0.3019226532883942,-0.0478131599240005,0.0894423705160617,-0.0290323868393898,0.0131937004625797,-0.032522615045309,walking,2026-03-04_14-00-52
1772632852247652000,0.243652099609375,0.3080518036931753,0.004365793994069,0.0610761077314615,-0.0400573424994945,0.0374255403876304,-0.0204419810324907,walking,2026-03-04_14-00-52
1772632852257601000,0.25360107421875,0.318463051863946,0.0230833539456129,0.0899023892432451,-0.0611419193446636,0.0561927258968353,-0.0123353516682982,walking,2026-03-04_14-00-52
1772632852267551200,0.26355126953125,0.2574736725678667,0.0200451552934944,0.1400689804255962,-0.0728989839553833,0.0592436455190181,-0.0124741028994321,walking,2026-03-04_14-00-52
1772632852277500200,0.273500244140625,0.2455033949194476,0.0158631934337317,0.1491547886788845,-0.0690482780337333,0.0546984001994133,-0.0158176850527524,walking,2026-03-04_14-00-52
1772632852287449000,0.283448974609375,0.2096501373803243,0.016028613128513,0.0872726252615451,-0.0514999069273471,0.0532325953245162,-0.0203005839139223,walking,2026-03-04_14-00-52
1772632852297398000,0.29339794921875,0.19048812159691,0.0456045439638197,0.0606739566713571,-0.0302551966160535,0.0597925893962383,-0.0209105089306831,walking,2026-03-04_14-00-52
1772632852307347000,0.303346923828125,0.2416833251746371,0.0437675377950072,0.0646843613564968,-0.0148085970431566,0.0626293942332267,-0.0207429975271224,walking,2026-03-04_14-00-52
1772632852317296000,0.313296142578125,0.2993612053025514,0.0162565766654908,0.1725678129702806,-0.0171580389142036,0.0598349384963512,-0.019844714552164,walking,2026-03-04_14-00-52
1772632852327245000,0.3232451171875,0.2657317612927407,0.0092189331136643,0.336883345901966,-0.0471968948841095,0.043441317975521,-0.0212758965790271,walking,2026-03-04_14-00-52
1772632852337194200,0.3331943359375,0.2150916343145072,-0.0016292086370289,0.5335702856063842,-0.0946397185325622,0.0131463184952735,-0.0265374723821878,walking,2026-03-04_14-00-52
1772632852347143200,0.34314306640625,0.1861451604891568,-0.0346786608017981,0.6128729549020528,-0.1393648535013198,-0.0114351902157068,-0.0389515310525894,walking,2026-03-04_14-00-52
1772632852357092000,0.353092041015625,0.0926238135637715,-0.0243761702351272,0.5065267958581448,-0.1664963364601135,-0.0036278015468269,-0.0532464571297168,walking,2026-03-04_14-00-52
1772632852367041000,0.363041015625,-0.0092459307184442,0.0340989612177014,0.2486000822931528,-0.1707771122455597,0.0256688334047794,-0.0629020109772682,walking,2026-03-04_14-00-52
1772632852376990000,0.372989990234375,-0.0624610227512195,0.0910806392423808,0.0497404747247695,-0.1661067903041839,0.0636433213949203,-0.0558183044195175,walking,2026-03-04_14-00-52
1772632852386939100,0.382939208984375,-0.0445134242588654,0.1380572022117674,-0.0664092854529619,-0.1524447649717331,0.0919804200530052,-0.0417355075478553,walking,2026-03-04_14-00-52
1772632852396889000,0.39288916015625,-0.0123359326230362,0.1810926263399422,-0.0778407800495624,-0.1257492303848266,0.1083065420389175,-0.0218878909945487,walking,2026-03-04_14-00-52
1772632852406838300,0.40283837890625,-0.0206982489073649,0.1832289077162742,-0.0492272645056247,-0.0950877368450164,0.0909856110811233,-0.0110365748405456,walking,2026-03-04_14-00-52
1772632852416787200,0.412787109375,-0.0379356898363679,0.1324392161995172,0.0108037180870771,-0.0634385123848915,0.0668230205774307,-0.0092325815930962,walking,2026-03-04_14-00-52
1772632852426736000,0.422736083984375,-0.1062390088750049,0.0787891668155789,0.0616904402375221,-0.0462113246321678,0.0450695194303989,-0.0155115155503153,walking,2026-03-04_14-00-52
1772632852436685000,0.43268505859375,-0.1487844575291499,0.0406263171598315,0.1941518682688474,-0.0554989129304885,0.0274473372846841,-0.0166129060089588,walking,2026-03-04_14-00-52
1772632852446634000,0.442634033203125,-0.1818043913384899,-0.0138210200816392,0.3503904777288437,-0.0877359434962272,0.0129022169858217,-0.0196204129606485,walking,2026-03-04_14-00-52
1772632852456583000,0.4525830078125,-0.2206629316408187,-0.0475913338668644,0.4538251332402229,-0.1283525675535202,0.0215285830199718,-0.0224378816783428,walking,2026-03-04_14-00-52
1772632852466532400,0.462532470703125,-0.2576516229506582,-0.0465282346799969,0.4889192429751157,-0.1742422878742218,0.0347383953630924,-0.0236283130943775,walking,2026-03-04_14-00-52
1772632852476481300,0.472481201171875,-0.3010088263791054,-0.0615685674235224,0.4442635241687298,-0.2127977907657623,0.0413515903055667,-0.0234876219183206,walking,2026-03-04_14-00-52
1772632852486430200,0.48243017578125,-0.2908517721651121,-0.0832834094949066,0.3478676812529563,-0.2208772897720337,0.0403861962258815,-0.0240423567593097,walking,2026-03-04_14-00-52
1772632852496379100,0.492379150390625,-0.2264869616191834,-0.0745204034551978,0.1372264504760503,-0.2064438164234161,0.0258354805409908,-0.0117226066067814,walking,2026-03-04_14-00-52
1772632852506328000,0.502328125,-0.1811468772778287,-0.0337134690314531,-0.061442602956295,-0.1755141317844391,0.0062039881013333,0.0118764629587531,walking,2026-03-04_14-00-52
1772632852516278000,0.512278076171875,-0.1407178727883845,0.040389439664036,-0.1793149491429329,-0.1420900672674179,-0.0105538852512836,0.0402001366019248,walking,2026-03-04_14-00-52
1772632852526227000,0.52222705078125,-0.1813932167217135,0.0714274058759212,-0.2120218714803457,-0.127211257815361,-0.038110677152872,0.0568134672939777,walking,2026-03-04_14-00-52
1772632852536176000,0.532176025390625,-0.2865619294840842,0.0139050451032817,-0.1544546486526727,-0.1313019692897796,-0.0546465441584587,0.0645967796444892,walking,2026-03-04_14-00-52
1772632852546125000,0.542125,-0.4611819257438183,-0.0325252821601927,-0.1447334651052951,-0.1380754560232162,-0.0339958593249321,0.0604904517531394,walking,2026-03-04_14-00-52
1772632852556074200,0.55207421875,-0.571535384200327,-0.0588528787240386,-0.2170464216440916,-0.1503548473119735,-0.0015409048646688,0.0679166242480278,walking,2026-03-04_14-00-52
1772632852566023200,0.562023193359375,-0.5791226244589314,-0.0822984901107847,-0.2276858890801668,-0.1616085618734359,0.0258435811847448,0.0999302119016647,walking,2026-03-04_14-00-52
1772632852575972000,0.57197216796875,-0.50682460976094,-0.1484931098997592,-0.1720236230909824,-0.1700492650270462,0.0341981276869773,0.1411908119916916,walking,2026-03-04_14-00-52
1772632852585921000,0.581921142578125,-0.4360736783744767,-0.2918110091187059,-0.0900134484022855,-0.1812747567892074,0.0096427183598279,0.1712757498025894,walking,2026-03-04_14-00-52
1772632852595870000,0.591869873046875,-0.4333835990402847,-0.5407017449215055,0.0151864632159471,-0.1937534511089325,-0.030842600390315,0.1788458079099655,walking,2026-03-04_14-00-52
1772632852605819100,0.601819091796875,-0.4996218753078952,-0.8457973291575909,0.0537163926184177,-0.2093406617641449,-0.0694051757454872,0.1583461165428161,walking,2026-03-04_14-00-52
1772632852615768300,0.611768310546875,-0.5997280074510724,-1.099180554074049,0.0495002362281084,-0.2210906147956848,-0.1097321435809135,0.1181400790810585,walking,2026-03-04_14-00-52
1772632852625717200,0.62171728515625,-0.6836625012658536,-1.2737127989850938,-0.0529822331249713,-0.2216485440731048,-0.1323975175619125,0.0694910511374473,walking,2026-03-04_14-00-52
1772632852635666200,0.631666259765625,-0.6838621154911816,-1.3357548291392625,-0.2389367664128542,-0.2025601267814636,-0.1284728497266769,0.0281559601426124,walking,2026-03-04_14-00-52
1772632852645616000,0.6416162109375,-0.625809154973179,-1.2736258513540029,-0.4610445630997419,-0.1650172770023346,-0.092984639108181,0.0010119574144482,walking,2026-03-04_14-00-52
1772632852655565000,0.65156494140625,-0.5206832584392279,-1.1448933807179331,-0.6302262407630682,-0.1195980906486511,-0.0426397025585174,-0.0066664377227425,walking,2026-03-04_14-00-52
1772632852665514200,0.66151416015625,-0.3520581917453557,-0.9883427826993166,-0.6627502077490091,-0.0705200210213661,0.0052940011955797,0.0019568784628063,walking,2026-03-04_14-00-52
1772632852675463200,0.671463134765625,-0.168688450786285,-0.8642031928114593,-0.5797901849895716,-0.0266027972102165,0.0410373844206333,0.0186126008629798,walking,2026-03-04_14-00-52
1772632852685412000,0.681412109375,-0.0315907777890563,-0.7901013070292771,-0.3869540754944086,-0.0018724179826676,0.0560142025351524,0.0299635250121355,walking,2026-03-04_14-00-52
1772632852695361000,0.691361083984375,0.0222441997077316,-0.7222345162443816,-0.1075654717057943,0.0030620745383203,0.0578139200806617,0.0331165380775928,walking,2026-03-04_14-00-52
1772632852705310200,0.701310302734375,0.0396617099113762,-0.6732184102714062,0.1831400603890419,-0.0132636362686753,0.0475202724337577,0.0352087169885635,walking,2026-03-04_14-00-52
1772632852715259100,0.711259033203125,-0.0025538492012768,-0.6153890293762088,0.464041406828165,-0.0439828224480152,0.0370015501976013,0.0293637979775667,walking,2026-03-04_14-00-52
1772632852725208000,0.7212080078125,-0.0082349270449951,-0.5455372022539376,0.6326046603322029,-0.0849784538149833,0.037002082914114,0.0308466460555791,walking,2026-03-04_14-00-52
1772632852735157000,0.731156982421875,0.0090371102733537,-0.472114092516154,0.6961532956570387,-0.1236269697546958,0.0318459272384643,0.0433117449283599,walking,2026-03-04_14-00-52
1772632852745106200,0.741106201171875,0.0332515871407464,-0.368381476971507,0.7242138534933328,-0.1461826264858245,0.0254548732191324,0.0736938789486885,walking,2026-03-04_14-00-52
1772632852755055000,0.75105517578125,0.0874594896031543,-0.2602959269143641,0.6478922458350658,-0.15401391685009,0.0153706120327115,0.1148068234324455,walking,2026-03-04_14-00-52
1772632852765005000,0.761005126953125,0.1362622085537761,-0.1556798065334558,0.5389525631666183,-0.1406629532575607,0.003312085988,0.1597258299589157,walking,2026-03-04_14-00-52
1772632852774954000,0.7709541015625,0.1459965438436716,-0.0959359703190624,0.3970271412193775,-0.117784783244133,-0.0043422365561127,0.2024490684270858,walking,2026-03-04_14-00-52
1772632852784903200,0.780903076171875,0.1026822662414982,-0.0870781256027519,0.3144236768126487,-0.1005685180425643,-0.0121261235326528,0.2376930862665176,walking,2026-03-04_14-00-52
1772632852794852000,0.79085205078125,0.0077804978083819,-0.1427113846931606,0.2897638673305511,-0.0958420634269714,-0.0145912049338221,0.2677699625492096,walking,2026-03-04_14-00-52
1772632852804801300,0.80080126953125,-0.0783194669445976,-0.2478871117182075,0.2998737579345703,-0.1123179718852043,-0.0098800733685493,0.2851841151714325,walking,2026-03-04_14-00-52
1772632852814750700,0.810750732421875,-0.1654952442355453,-0.3715397218067199,0.3420703931510448,-0.1361525207757949,-0.0030926375184208,0.2956764101982116,walking,2026-03-04_14-00-52
1772632852824699600,0.82069970703125,-0.2160417381135746,-0.5033798030693084,0.3208808901280164,-0.1551312804222107,0.0122855203226208,0.302856832742691,walking,2026-03-04_14-00-52
1772632852834648600,0.830648681640625,-0.2035429430790245,-0.5791463341280818,0.1941623896628618,-0.1501501202583313,0.0390030145645141,0.3204624354839325,walking,2026-03-04_14-00-52
1772632852844597500,0.840597412109375,-0.1477891994141042,-0.5950592849876731,0.0701513945907354,-0.1319026798009872,0.0627051517367363,0.3480309247970581,walking,2026-03-04_14-00-52
1772632852854546400,0.85054638671875,-0.0948901875931769,-0.6286658595785498,0.0360749374657869,-0.1095650270581245,0.0623131766915321,0.3673156201839447,walking,2026-03-04_14-00-52
1772632852864495900,0.860495849609375,-0.0603722337784245,-0.6801303816169499,0.0990396354228258,-0.0879694521427154,0.0461856089532375,0.3795634806156158,walking,2026-03-04_14-00-52
1772632852874444800,0.87044482421875,-0.0557743480615317,-0.7649299678284674,0.1619207467496395,-0.0768657252192497,0.0137373302131891,0.3824402093887329,walking,2026-03-04_14-00-52
1772632852884394800,0.880394775390625,-0.0987014164444059,-0.8209127710089087,0.2143646352142095,-0.0701186060905456,-0.0112593648955225,0.3779373466968536,walking,2026-03-04_14-00-52
1772632852894343700,0.89034375,-0.1583520214173942,-0.8539139270525425,0.2075380040645599,-0.068253181874752,-0.004770154133439,0.3701904118061065,walking,2026-03-04_14-00-52
1772632852904292600,0.900292724609375,-0.2122921032564714,-0.8614780786965042,0.1126543192774057,-0.0699983462691307,0.0120586277917027,0.3691171705722809,walking,2026-03-04_14-00-52
1772632852914241500,0.910241455078125,-0.2475378233565017,-0.8431781596351414,0.053068742364645,-0.0764107033610344,0.0289454646408557,0.3724575638771057,walking,2026-03-04_14-00-52
1772632852924190700,0.920190673828125,-0.2679013969494029,-0.8081058964058756,-0.0439765043705701,-0.0783055424690246,0.0552630871534347,0.3768443167209625,walking,2026-03-04_14-00-52
1772632852934139600,0.9301396484375,-0.2819069798177108,-0.7723439704120159,-0.142782915559411,-0.0752098262310028,0.0780217796564102,0.3925777673721313,walking,2026-03-04_14-00-52
1772632852944088600,0.940088623046875,-0.3416576110990718,-0.7627699402503669,-0.2296276707977056,-0.062927059829235,0.0915128216147422,0.4033789932727813,walking,2026-03-04_14-00-52
1772632852954037800,0.950037841796875,-0.4609140320552513,-0.7865773706868291,-0.3123673288047313,-0.0454316325485706,0.1094385534524917,0.3916821777820587,walking,2026-03-04_14-00-52
1772632852963986700,0.959986572265625,-0.5790273473909124,-0.8450257602632045,-0.3502192128151655,-0.0267255902290344,0.1267967671155929,0.3758369088172912,walking,2026-03-04_14-00-52
1772632852973935600,0.969935546875,-0.6601164982445538,-0.8792119613729417,-0.3446574870347976,-0.0069622378796339,0.1419163197278976,0.3620587885379791,walking,2026-03-04_14-00-52
1772632852983884500,0.979884521484375,-0.6803903477273882,-0.9065008772496134,-0.3103583270698785,0.0105373933911323,0.1570031195878982,0.3574158251285553,walking,2026-03-04_14-00-52
1772632852993833500,0.98983349609375,-0.6645581339538097,-0.9049974869493396,-0.2435270168125629,0.0302624218165874,0.1498171240091323,0.3552432656288147,walking,2026-03-04_14-00-52
1772632853003782700,0.99978271484375,-0.6453352548286319,-0.9037904492471368,-0.1711433331251144,0.0465090349316597,0.1302370280027389,0.3532368540763855,walking,2026-03-04_14-00-52
1772632853013732600,1.009732666015625,-0.5942540330193936,-0.8988684096097945,-0.0925251389622688,0.0584574565291404,0.0993165448307991,0.3519136905670166,walking,2026-03-04_14-00-52
1772632853023681500,1.019681640625,-0.5775953418264165,-0.9026754737425596,-0.0557061051309108,0.0721687376499176,0.0915387794375419,0.3541635274887085,walking,2026-03-04_14-00-52
1772632853033630700,1.029630615234375,-0.6225659352682531,-0.892486453487724,-0.1051145714223384,0.0842949226498603,0.1115973815321922,0.3597019910812378,walking,2026-03-04_14-00-52
1772632853043579600,1.03957958984375,-0.6525442363593726,-0.8779368268705904,-0.1504693784087896,0.0967382788658142,0.1454032808542251,0.3605512678623199,walking,2026-03-04_14-00-52
1772632853053528600,1.049528564453125,-0.6928077846214175,-0.9164718708395956,-0.1716127042025327,0.1060705557465553,0.178965151309967,0.3621321618556976,walking,2026-03-04_14-00-52
1772632853063477800,1.059477783203125,-0.6733569419592619,-0.966244786529243,-0.1169622456043958,0.1103843450546264,0.1836299449205398,0.3667974770069122,walking,2026-03-04_14-00-52
1772632853073426700,1.0694267578125,-0.6274401902411133,-1.0358060332071035,0.0055167175948619,0.1089139357209205,0.1400214880704879,0.3666588068008423,walking,2026-03-04_14-00-52
1772632853083375600,1.079375732421875,-0.5932211828403174,-1.1014543442249298,0.0983674352496862,0.1143260151147842,0.067949965596199,0.3585843741893768,walking,2026-03-04_14-00-52
1772632853093324500,1.089324462890625,-0.5876083479272202,-1.1365644552465528,0.0698719931274652,0.1188236847519874,0.0034344689920544,0.3396517634391784,walking,2026-03-04_14-00-52
1772632853103273700,1.099273681640625,-0.6881734028190374,-1.139627569144219,-0.0982113679051399,0.1245217844843864,-0.0239734537899494,0.3149083256721496,walking,2026-03-04_14-00-52
1772632853113222700,1.10922265625,-0.7890402536690234,-1.1019602479204536,-0.3015232787072658,0.1306430995464325,-0.0022650402970612,0.2938674986362457,walking,2026-03-04_14-00-52
1772632853123171600,1.119171630859375,-0.8731295727193356,-1.0486929142437875,-0.5539180771082639,0.1356913745403289,0.0451115295290946,0.2786014676094055,walking,2026-03-04_14-00-52
1772632853133120800,1.129120849609375,-0.8746051982298493,-0.9772159701377152,-0.7157271801769733,0.1353043913841247,0.0692696198821067,0.2695792019367218,walking,2026-03-04_14-00-52
1772632853143070700,1.13907080078125,-0.7947296974822878,-0.9289286168307064,-0.7504618089497089,0.125701293349266,0.0405199974775314,0.2592376172542572,walking,2026-03-04_14-00-52
1772632853153019600,1.14901953125,-0.7303915922801941,-0.8654892870992421,-0.7126818211317062,0.0998767390847206,-0.0538405738770961,0.2274178266525268,walking,2026-03-04_14-00-52
1772632853162968600,1.158968505859375,-0.7812582945559173,-0.802182059314847,-0.6729279028922319,0.0685821995139122,-0.152220144867897,0.1725876033306121,walking,2026-03-04_14-00-52
1772632853172917500,1.16891748046875,-0.9015024844404308,-0.6564994767911732,-0.8404524609982967,0.0249028466641902,-0.1656785458326339,0.0993052423000335,walking,2026-03-04_14-00-52
1772632853182866700,1.17886669921875,-1.1336999326609074,-0.4140810057424008,-1.111834283941984,-0.0298272427171468,-0.2024951577186584,0.0471943654119968,walking,2026-03-04_14-00-52
1772632853192815600,1.188815673828125,-1.3345824243590234,0.0291794788636267,-1.2949118004888296,-0.0879752710461616,-0.1962062865495681,-0.0075605073943734,walking,2026-03-04_14-00-52
1772632853202764800,1.198764892578125,-1.3937233262442053,0.2527943191125988,-1.4872972436070442,-0.1380759924650192,-0.1694399118423462,-0.0591970719397068,walking,2026-03-04_14-00-52
1772632853212713700,1.208713623046875,-1.329639122737944,0.505128473367542,-1.6865256844878196,-0.1315234452486038,-0.1819589883089065,-0.0825075358152389,walking,2026-03-04_14-00-52
1772632853222662700,1.21866259765625,-1.0701127188913524,0.7544327584072947,-1.9343179575294256,-0.0687647089362144,-0.0269116181880235,-0.078488290309906,walking,2026-03-04_14-00-52
1772632853232611600,1.228611572265625,-0.8710553967937826,1.052061075502634,-2.1242232742697,0.032074712216854,0.1210583746433258,0.0141483899205923,walking,2026-03-04_14-00-52
1772632853242560500,1.238560546875,-0.6616919308677315,1.3075947564512491,-2.1014672525823115,0.1445927321910858,0.3061403334140777,0.1451412886381149,walking,2026-03-04_14-00-52
1772632853252509700,1.248509765625,-0.4450543092202395,1.3460210793487726,-1.673285094642639,0.2120866328477859,0.4081126153469085,0.2356531172990799,walking,2026-03-04_14-00-52
1772632853262458600,1.258458740234375,-0.3804022061655298,1.129601265170425,-0.8529963007509708,0.3151616156101227,0.3712547421455383,0.350770890712738,walking,2026-03-04_14-00-52
1772632853272408800,1.268408935546875,-0.2223919839231297,0.6483410125158727,-0.0777256292372941,0.3588629364967346,0.2840169668197632,0.394451767206192,walking,2026-03-04_14-00-52
1772632853282357800,1.278357666015625,-0.296244023130089,0.1711925790943205,0.5641466256558895,0.37840735912323,0.1429322957992553,0.3850305676460266,walking,2026-03-04_14-00-52
1772632853292306700,1.288306640625,-0.5407725086027756,-0.147744775750488,0.9914122532725334,0.3778922855854034,0.0290516689419746,0.3529937863349914,walking,2026-03-04_14-00-52
1772632853302255600,1.298255615234375,-0.7449060014534741,-0.4077135165371,1.1785001745045185,0.3496159017086029,-0.0833177492022514,0.2723021507263183,walking,2026-03-04_14-00-52
1772632853312204500,1.30820458984375,-0.9266234086282552,-0.6639128217875957,1.257138242411613,0.3253349363803863,-0.149289458990097,0.1801384836435318,walking,2026-03-04_14-00-52
1772632853322153500,1.318153564453125,-0.979876567649096,-0.7416486801579594,1.2091869891911744,0.2957450747489929,-0.1582336872816085,0.0914469510316848,walking,2026-03-04_14-00-52
1772632853332102700,1.3281025390625,-0.9763692901805042,-0.6697375824183225,1.1121025794893502,0.2517041265964508,-0.1416975855827331,0.0183879230171442,walking,2026-03-04_14-00-52
1772632853342051800,1.3380517578125,-0.878466257572174,-0.5300805437944829,1.0689181022793055,0.1945079267024994,-0.1326545476913452,-0.0412394516170024,walking,2026-03-04_14-00-52
1772632853352000800,1.348000732421875,-0.7469380187377334,-0.3520478895470499,1.0796399873018263,0.1267821192741394,-0.1460584998130798,-0.0959001779556274,walking,2026-03-04_14-00-52
1772632853361949700,1.35794970703125,-0.5814258599000052,-0.1408639301955699,1.057432247146964,0.0782622620463371,-0.1762997657060623,-0.14106285572052,walking,2026-03-04_14-00-52
1772632853371898600,1.367898681640625,-0.3902636019011959,0.1273791563309729,0.8126029155641794,0.0695561915636062,-0.1708327084779739,-0.1624333709478378,walking,2026-03-04_14-00-52
1772632853381847600,1.37784765625,-0.2173616981383413,0.4438058435291052,0.4545657224744558,0.0861455574631691,-0.1187178492546081,-0.1638786643743515,walking,2026-03-04_14-00-52
1772632853391796500,1.38779638671875,-0.1084913543790578,0.7202341362074017,0.1768675559908151,0.122139923274517,-0.0371970161795616,-0.1589589267969131,walking,2026-03-04_14-00-52
1772632853401746700,1.39774658203125,-0.0155820018721744,0.9223673586189748,0.0570195258170366,0.1555804461240768,0.0333746224641799,-0.1513233780860901,walking,2026-03-04_14-00-52
1772632853411695600,1.407695556640625,0.1182254704732447,1.0138836127996445,0.1707324142366647,0.1841875612735748,0.0654329806566238,-0.1460300981998443,walking,2026-03-04_14-00-52
1772632853421644800,1.417644775390625,0.2868899558620527,1.0827426294922828,0.4237900604605674,0.196815475821495,0.0511107668280601,-0.1347814351320266,walking,2026-03-04_14-00-52
1772632853431593700,1.42759375,0.4416898742884397,1.1430834086865187,0.7171195113182067,0.1935447305440902,0.0132877230644226,-0.1238129884004592,walking,2026-03-04_14-00-52
1772632853441542700,1.437542724609375,0.5209506772037595,1.1616693050824105,0.9546563478052617,0.1739278882741928,-0.0219474956393241,-0.1183758750557899,walking,2026-03-04_14-00-52
1772632853451491600,1.44749169921875,0.5181589641259983,1.0865066582009195,1.102438679087162,0.1356251537799835,-0.0490392781794071,-0.1385379135608673,walking,2026-03-04_14-00-52
1772632853461440500,1.4574404296875,0.4453398116307333,1.0165183452174067,1.1327958234280346,0.0891255661845207,-0.0676193535327911,-0.1695008873939514,walking,2026-03-04_14-00-52
1772632853471389700,1.4673896484375,0.4000967213904485,0.9732447284191846,1.1083008491188286,0.03446014970541,-0.0983509644865989,-0.2076218128204345,walking,2026-03-04_14-00-52
1772632853481338600,1.477338623046875,0.3678063074320554,0.983422277431935,1.0267588764637707,-0.0248716194182634,-0.1372746676206588,-0.2460922300815582,walking,2026-03-04_14-00-52
1772632853491287800,1.487287841796875,0.3510752451226115,1.027920759849995,0.8680296192318201,-0.072778083384037,-0.1666838973760604,-0.2682149410247803,walking,2026-03-04_14-00-52
1772632853501236700,1.49723681640625,0.3700226317746564,1.1210079166091975,0.5887853923499584,-0.0993204787373542,-0.1748491525650024,-0.283730536699295,walking,2026-03-04_14-00-52
1772632853511185700,1.507185546875,0.3467989195102826,1.2324585591852664,0.2263490875184536,-0.1155237480998039,-0.1591224521398544,-0.2959147691726684,walking,2026-03-04_14-00-52
1772632853521134600,1.517134521484375,0.2693974441934377,1.2948442882105706,-0.0859656343162059,-0.1349688172340393,-0.1248590275645256,-0.3045455515384674,walking,2026-03-04_14-00-52
1772632853531083500,1.52708349609375,0.1860848451366648,1.2894026816785336,-0.3199672824144363,-0.159023568034172,-0.0900458395481109,-0.3151345551013946,walking,2026-03-04_14-00-52
1772632853541033700,1.53703369140625,0.1129380681222304,1.2307339273497462,-0.460020480749011,-0.1897252947092056,-0.0591563656926155,-0.3324908912181854,walking,2026-03-04_14-00-52
1772632853550982700,1.546982666015625,0.015748554078117,1.156621374043077,-0.557166849771142,-0.2251681685447693,-0.0328541956841945,-0.3578754365444183,walking,2026-03-04_14-00-52
1772632853560931600,1.556931640625,-0.1099324200328439,1.1106963659532367,-0.6247311504781246,-0.2626569271087646,0.013904521241784,-0.389908492565155,walking,2026-03-04_14-00-52
1772632853570880800,1.566880859375,-0.2258338314726948,1.03122243174389,-0.6803507463693619,-0.2959895431995392,0.0806396529078483,-0.4125017523765564,walking,2026-03-04_14-00-52
1772632853580829700,1.57682958984375,-0.2733274405861273,0.9357122856214642,-0.7721528317540883,-0.3010066747665405,0.1781960427761078,-0.4232436120510101,walking,2026-03-04_14-00-52
1772632853590778600,1.586778564453125,-0.2524233669083565,0.8771868852861225,-0.8481026834905147,-0.2702954113483429,0.2786120772361755,-0.4097445011138916,walking,2026-03-04_14-00-52
1772632853600727600,1.5967275390625,-0.1639752681266516,0.8270989122979342,-0.858439953109622,-0.2078094184398651,0.3469637036323547,-0.3782329261302948,walking,2026-03-04_14-00-52
1772632853610676700,1.6066767578125,0.0027420287171378,0.7243456631794571,-0.6933341465830802,-0.1344670951366424,0.367650032043457,-0.3313581049442291,walking,2026-03-04_14-00-52
1772632853620625700,1.616625732421875,0.1345562814187258,0.571098344489932,-0.3464706739366054,-0.0780168622732162,0.3348851501941681,-0.2883584499359131,walking,2026-03-04_14-00-52
1772632853630574600,1.62657470703125,0.1531038550982251,0.368616454771161,0.1257832654416561,-0.0463464744389057,0.2681649625301361,-0.2527624666690826,walking,2026-03-04_14-00-52
1772632853640523800,1.636523681640625,0.1643587875515222,0.0991505484513938,0.5490262134134769,-0.0372459217905998,0.1856599748134613,-0.2277431339025497,walking,2026-03-04_14-00-52
1772632853650472700,1.64647265625,0.1322061380960047,-0.1443310217842459,0.8906827650666236,-0.0561549924314022,0.1046333163976669,-0.2222011536359787,walking,2026-03-04_14-00-52
1772632853660421600,1.656421630859375,0.0064935998030006,-0.370653951948136,1.1234668540686368,-0.0887203887104988,0.0471982508897781,-0.2334119975566864,walking,2026-03-04_14-00-52
1772632853670371800,1.666371826171875,-0.1090933388601988,-0.5886623504921794,1.1955536006361245,-0.1216804832220077,0.0103532169014215,-0.2623026371002197,walking,2026-03-04_14-00-52
1772632853680320800,1.67632080078125,-0.1796612783625721,-0.7638780476227403,1.163538167694211,-0.1461970061063766,-0.0334512554109096,-0.3026657700538635,walking,2026-03-04_14-00-52
1772632853690269700,1.686269775390625,-0.1874665452860295,-0.8153674118414521,1.0758242284059525,-0.1560189127922058,-0.0880918949842453,-0.3375101387500763,walking,2026-03-04_14-00-52
1772632853700218600,1.696218505859375,-0.0969820453058928,-0.8100912250041962,0.903248232129216,-0.1454712003469467,-0.1279623508453369,-0.3561301529407501,walking,2026-03-04_14-00-52
1772632853710167600,1.70616748046875,0.0046552784599363,-0.7422337865695356,0.6839677678227424,-0.1266706734895706,-0.1563382893800735,-0.3676199615001678,walking,2026-03-04_14-00-52
1772632853720116700,1.71611669921875,0.07349741708301,-0.6320971492014825,0.5081482595801353,-0.1099675968289375,-0.1874711811542511,-0.3741260766983032,walking,2026-03-04_14-00-52
1772632853730065700,1.726065673828125,0.1207807809792459,-0.5601435274943709,0.3979693905055522,-0.0999605357646942,-0.2092760801315307,-0.3863082230091095,walking,2026-03-04_14-00-52
1772632853740014600,1.7360146484375,0.1581098101593553,-0.5521098586425185,0.2898515456140041,-0.0984076485037803,-0.2148743122816085,-0.3992751538753509,walking,2026-03-04_14-00-52
1772632853749963800,1.7459638671875,0.1745792623905465,-0.5358258094482123,0.167512867668271,-0.1067497208714485,-0.2072401493787765,-0.4144443571567535,walking,2026-03-04_14-00-52
1772632853759912700,1.75591259765625,0.1518796470655128,-0.5088879720315337,0.0493044213950634,-0.1113085225224495,-0.1748087108135223,-0.437157928943634,walking,2026-03-04_14-00-52
1772632853769861600,1.765861572265625,0.1458126751767471,-0.4868415599182248,-0.098313659235835,-0.1136929020285606,-0.1277332007884979,-0.4534856677055359,walking,2026-03-04_14-00-52
1772632853779810600,1.775810546875,0.165898199013248,-0.4617426283665001,-0.202425775617361,-0.1087306290864944,-0.0725149512290954,-0.463302344083786,walking,2026-03-04_14-00-52
1772632853789759700,1.785759765625,0.2268207601508125,-0.4364287388898432,-0.2247305464059114,-0.1045270860195159,-0.0441214628517627,-0.4656689465045929,walking,2026-03-04_14-00-52
1772632853799708700,1.795708740234375,0.3300119257625192,-0.4295319651134311,-0.167718034851551,-0.0961570367217063,-0.0440218597650527,-0.4711672961711883,walking,2026-03-04_14-00-52
1772632853809657900,1.805657958984375,0.4032943483879789,-0.447422280460596,-0.1173392622232437,-0.0766947120428085,-0.0316808298230171,-0.4767200648784637,walking,2026-03-04_14-00-52
1772632853819606800,1.815606689453125,0.4427548366388306,-0.5001652980022132,-0.2086398278266191,-0.0484332479536533,-0.0066503109410405,-0.485290378332138,walking,2026-03-04_14-00-52
1772632853829555700,1.8255556640625,0.4215762568686157,-0.4723881602171808,-0.2478857965439558,-0.0204350892454385,0.0086834151297807,-0.4807937145233154,walking,2026-03-04_14-00-52
1772632853839505000,1.8355048828125,0.4490394333336502,-0.4737690201163291,-0.2142459772706031,0.0125047508627176,0.0150683438405394,-0.474550187587738,walking,2026-03-04_14-00-52
1772632853849453800,1.845453857421875,0.5047775410380214,-0.524446702625975,-0.1832955432116985,0.0481799021363258,0.0173355042934417,-0.4672154486179352,walking,2026-03-04_14-00-52
1772632853859403000,1.855403076171875,0.5071444893650711,-0.5827900974579155,-0.1808656857162714,0.0789458081126213,0.0083084553480148,-0.4641879498958587,walking,2026-03-04_14-00-52
1772632853869352000,1.86535205078125,0.4821172348100692,-0.5961849280167371,-0.0988607717245817,0.0934616029262542,-0.0133770015090703,-0.4570786654949188,walking,2026-03-04_14-00-52
1772632853879300900,1.87530078125,0.4662034802328795,-0.6714233435481787,0.0466466003626585,0.0938645377755165,-0.0343254283070564,-0.452088713645935,walking,2026-03-04_14-00-52
1772632853889249800,1.885249755859375,0.4715859769888222,-0.7636842786163092,0.1030494555860757,0.0926427021622657,-0.0349081382155418,-0.4486059546470642,walking,2026-03-04_14-00-52
1772632853899198700,1.89519873046875,0.4254521484538912,-0.8266159510865807,0.0798281544744968,0.0895297303795814,-0.0301051288843154,-0.4487372636795044,walking,2026-03-04_14-00-52
1772632853909148000,1.90514794921875,0.3975578140299767,-0.8417731882080435,0.0874888983607292,0.0876217409968376,-0.0345986559987068,-0.4486270248889923,walking,2026-03-04_14-00-52
1772632853919096800,1.915096923828125,0.4255648150481283,-0.8640380653776228,0.0524666848182678,0.0965641066431999,-0.0431474037468433,-0.4451039433479309,walking,2026-03-04_14-00-52
1772632853929046000,1.9250458984375,0.4474833629980683,-0.8791400651805102,0.0018640403062105,0.105370745062828,-0.0650782957673072,-0.4428894817829132,walking,2026-03-04_14-00-52
1772632853938995700,1.93499560546875,0.4829856151424348,-0.874826585895568,-0.0279816473811864,0.1175344660878181,-0.0741916298866272,-0.4395197927951813,walking,2026-03-04_14-00-52
1772632853948945000,1.94494482421875,0.54985491932258,-0.8808667428426444,-0.060437225306034,0.1233552545309066,-0.0842025503516197,-0.4361489117145538,walking,2026-03-04_14-00-52
1772632853958893800,1.954893798828125,0.5997817103996873,-0.8612146785199641,-0.0257522808939218,0.1289505660533905,-0.0905467346310615,-0.4246043860912323,walking,2026-03-04_14-00-52
1772632853968843000,1.964843017578125,0.6832862152993678,-0.8348639933414757,-0.015790858849883,0.1326963156461715,-0.0898559167981147,-0.4026773571968078,walking,2026-03-04_14-00-52
1772632853978792000,1.9747919921875,0.7840328007705509,-0.8069860985957086,-0.0276408711194992,0.1402999013662338,-0.0858771577477455,-0.3675073981285095,walking,2026-03-04_14-00-52
1772632853988740900,1.984740966796875,0.9369019337974488,-0.7918624714829027,-0.040548868009448,0.1563144773244857,-0.0903675630688667,-0.3283300697803497,walking,2026-03-04_14-00-52
1772632853998689800,1.994689697265625,1.0649968371823428,-0.7993164407506584,-0.0463292049765586,0.1709980815649032,-0.0961418226361274,-0.2896940112113952,walking,2026-03-04_14-00-52
1772632854008639000,2.004638916015625,1.112137504672259,-0.8090085443340241,-0.0865636002093553,0.1847844570875167,-0.1043664664030075,-0.2523383796215057,walking,2026-03-04_14-00-52
1772632854018588000,2.014587890625,1.1119875748075545,-0.8514591543115675,-0.0869137288212776,0.1878963708877563,-0.1241734623908996,-0.2362443506717682,walking,2026-03-04_14-00-52
1772632854028536800,2.024536865234375,1.034807596754283,-0.9377207028344272,-0.0799444743305444,0.1821701526641845,-0.1599320173263549,-0.2353458851575851,walking,2026-03-04_14-00-52
1772632854038485800,2.03448583984375,0.9933590764913708,-0.944909153033793,-0.1173299098730087,0.1766480952501297,-0.1884837746620178,-0.2322443723678589,walking,2026-03-04_14-00-52
1772632854048435000,2.04443505859375,1.0041346644625069,-0.908175021006912,-0.2804676311969757,0.1703724265098571,-0.1891141384840011,-0.2167203724384308,walking,2026-03-04_14-00-52
1772632854058384000,2.0543837890625,1.004543683654815,-0.7777708177663385,-0.4407721749216318,0.1667691618204116,-0.1743599623441696,-0.1841483116149902,walking,2026-03-04_14-00-52
1772632854068332800,2.064332763671875,1.0447419115956873,-0.6150052907556295,-0.5898807863712311,0.1567266136407852,-0.16710165143013,-0.1429948955774307,walking,2026-03-04_14-00-52
1772632854078282800,2.07428271484375,1.0909066467255353,-0.4662991226270794,-0.6850888808071612,0.1570121049880981,-0.172365128993988,-0.0954343155026435,walking,2026-03-04_14-00-52
1772632854088231700,2.084231689453125,1.0872899175330997,-0.3510485032461583,-0.7514139951080083,0.1541866660118103,-0.1841370612382888,-0.0532735884189605,walking,2026-03-04_14-00-52
1772632854098180900,2.094180908203125,1.013699780665338,-0.2840396444648504,-0.8019067495048046,0.1378740072250366,-0.192282885313034,-0.0291568003594875,walking,2026-03-04_14-00-52
1772632854108130000,2.104130126953125,0.8965431815326214,-0.2462156713746487,-0.8149252210319041,0.1066154390573501,-0.2054802477359771,-0.0111689958721399,walking,2026-03-04_14-00-52
1772632854118079000,2.114078857421875,0.7078746400456876,-0.17219123474285,-0.8420616497606038,0.0648309737443924,-0.2225396633148193,-0.0131972599774599,walking,2026-03-04_14-00-52
1772632854128028000,2.12402783203125,0.4512407062375917,-0.0439051927000284,-0.8811053739041089,0.0211288444697856,-0.2264449298381805,-0.0305393263697624,walking,2026-03-04_14-00-52
1772632854137976800,2.133976806640625,0.2291066060656681,0.0893659442789852,-1.000617888513207,-0.0145085118710994,-0.1990098357200622,-0.0563418939709663,walking,2026-03-04_14-00-52
1772632854147925800,2.14392578125,0.0198777993699535,0.2665358442172408,-1.1424942106217146,-0.0377058610320091,-0.1340556442737579,-0.0828119292855262,walking,2026-03-04_14-00-52
1772632854157875000,2.153875,-0.1410905785582959,0.482153548232466,-1.1740227368295193,-0.0498711839318275,-0.0179889630526304,-0.0938350260257721,walking,2026-03-04_14-00-52
1772632854167824000,2.163823974609375,-0.1420958831433206,0.6779084677837789,-1.1071873349189758,-0.0517928376793861,0.1299957484006881,-0.066688448190689,walking,2026-03-04_14-00-52
1772632854177772800,2.173772705078125,-0.0974733359541744,0.7731050179123878,-0.828204389321804,-0.0532455928623676,0.2278469502925872,-0.0409905426204204,walking,2026-03-04_14-00-52
1772632854187722000,2.183721923828125,-0.2038437526565045,0.8628845114283263,-0.3592044833034277,-0.0428737103939056,0.2392790466547012,-0.0490439720451831,walking,2026-03-04_14-00-52
1772632854197671000,2.1936708984375,-0.3965035922693088,1.0178780892632902,0.1092927338898181,0.0031451806426048,0.1886933743953704,-0.0668056607246398,walking,2026-03-04_14-00-52
1772632854207619800,2.203619873046875,-0.3315798691989853,1.0935641754969954,0.3684732469081878,0.0818333253264427,0.1265884637832641,-0.0602190010249614,walking,2026-03-04_14-00-52
1772632854217569800,2.21356982421875,-0.2391206716123968,1.143392328505218,0.4622545234113931,0.1601451635360717,0.081326700747013,-0.0527357868850231,walking,2026-03-04_14-00-52
1772632854227518700,2.223518798828125,-0.3122841805659234,1.198144055520743,0.5679167918443679,0.2237037122249603,0.0717913657426834,-0.05168167501688,walking,2026-03-04_14-00-52
1772632854237467600,2.233467529296875,-0.3285917932989076,1.117837177618593,0.6823170780062675,0.2631000876426697,0.0782652422785759,-0.0493609979748725,walking,2026-03-04_14-00-52
1772632854247417000,2.2434169921875,-0.3086502810429781,1.004437300670892,0.860642431589961,0.2611975967884063,0.0978177636861801,-0.0568352676928043,walking,2026-03-04_14-00-52
1772632854257366000,2.253365966796875,-0.3769524675704538,0.9456044418215752,1.104835803356767,0.2203225940465927,0.1228421628475189,-0.0709865093231201,walking,2026-03-04_14-00-52
1772632854267315000,2.26331494140625,-0.442785487505421,0.8603092541128396,1.3198919279664754,0.1554306894540786,0.1532621085643768,-0.0844727531075477,walking,2026-03-04_14-00-52
1772632854277264000,2.273263916015625,-0.4919196303674951,0.8569852242566645,1.443596633568406,0.0830531567335128,0.1975217163562774,-0.0896824300289154,walking,2026-03-04_14-00-52
1772632854287212800,2.283212890625,-0.544197806876339,0.8957835953369736,1.4139660499364135,-0.0083142910152673,0.1230921596288681,-0.1156169474124908,walking,2026-03-04_14-00-52
1772632854297161700,2.29316162109375,-0.4719701174682006,0.8576469030357897,1.5286416459083556,-0.0749649554491043,-0.0027387384325265,-0.1345997005701065,walking,2026-03-04_14-00-52
1772632854307111000,2.30311083984375,-0.2890151313224807,0.8260603630304336,1.3228145374149085,-0.1155998185276985,-0.1044896468520164,-0.153660386800766,walking,2026-03-04_14-00-52
1772632854317059800,2.313059814453125,-0.2645440128128975,1.0480426336415112,0.9332757061243055,-0.1218435987830162,-0.1583805680274963,-0.124997042119503,walking,2026-03-04_14-00-52
1772632854327009000,2.323009033203125,-0.1227460897028446,1.2339124112553894,0.4207926322102546,-0.1117414012551307,-0.1568259596824646,-0.0713215470314025,walking,2026-03-04_14-00-52
1772632854336958000,2.3329580078125,-0.0597001432031393,1.379337804147601,-0.0128705874890089,-0.1009513363242149,-0.1145218983292579,-0.0164580345153808,walking,2026-03-04_14-00-52
1772632854346908000,2.342907958984375,-0.1391733102275058,1.4278388002052902,-0.2228033777356147,-0.115457035601139,-0.0629791468381881,0.0233952458947896,walking,2026-03-04_14-00-52
1772632854356856800,2.35285693359375,-0.2200306981518864,1.3707194672755896,-0.2543570383846759,-0.1478698253631591,-0.0347991771996021,0.0548833981156349,walking,2026-03-04_14-00-52
1772632854366805800,2.3628056640625,-0.2330046364175155,1.27426955608502,-0.1964262429416179,-0.1901213228702545,-0.0221565216779708,0.0901361033320427,walking,2026-03-04_14-00-52
1772632854376754700,2.372754638671875,-0.238460527203232,1.174826016036421,-0.1943956138968467,-0.221989244222641,-0.0114793768152594,0.1265524178743362,walking,2026-03-04_14-00-52
1772632854386704000,2.382703857421875,-0.2432789603356271,1.0778910978078842,-0.2752490197658538,-0.2330876886844635,0.0189112722873687,0.1687287837266922,walking,2026-03-04_14-00-52
1772632854396653000,2.392653076171875,-0.1641795950597152,0.9340585270650684,-0.4069476467311382,-0.2285536527633667,0.0382900312542915,0.2107753008604049,walking,2026-03-04_14-00-52
1772632854406602000,2.40260205078125,-0.1564571110488846,0.7427933201484381,-0.455011128154397,-0.2056392729282379,0.043921697884798,0.2393426448106765,walking,2026-03-04_14-00-52
1772632854416551000,2.412551025390625,-0.1768209769027307,0.5229154744707047,-0.476473602899909,-0.1701430678367614,0.0376614071428775,0.2529314160346985,walking,2026-03-04_14-00-52
1772632854426499800,2.422499755859375,-0.2380234144276007,0.3073683514736592,-0.4803232640653848,-0.1343617588281631,0.0315115228295326,0.2586270868778229,walking,2026-03-04_14-00-52
1772632854436448800,2.43244873046875,-0.2980509264215827,0.1036839540973305,-0.4094996693015098,-0.1101429685950279,0.0321120657026767,0.2540176808834076,walking,2026-03-04_14-00-52
1772632854446397700,2.442397705078125,-0.3428205539312213,-0.1032338722422718,-0.2971791120231151,-0.1000532656908035,0.0325883626937866,0.2408753931522369,walking,2026-03-04_14-00-52
1772632854456346600,2.4523466796875,-0.3449916508926078,-0.2970489097721874,-0.1809638853937387,-0.0905665531754493,0.0379413142800331,0.2272440046072006,walking,2026-03-04_14-00-52
1772632854466296000,2.462296142578125,-0.2929794318435713,-0.4216866584405302,-0.0956271966308355,-0.0754827260971069,0.0535736829042434,0.220948651432991,walking,2026-03-04_14-00-52
1772632854476245000,2.472244873046875,-0.2258656148504465,-0.4636610292084515,-0.0422281993985176,-0.0543500073254108,0.0738965272903442,0.2287272214889526,walking,2026-03-04_14-00-52
1772632854486195000,2.48219482421875,-0.1436746767673641,-0.4789364858821034,0.0200227973312139,-0.0262804143130779,0.0866347923874855,0.2498247176408767,walking,2026-03-04_14-00-52
1772632854496144000,2.492143798828125,-0.0716956648906692,-0.5122264688044786,0.1352834997147321,-0.0048885741271078,0.0927904248237609,0.2710152268409729,walking,2026-03-04_14-00-52
1772632854506092800,2.5020927734375,-0.1026896092977374,-0.5512019500173628,0.2660632582694291,0.0028596590273082,0.0801137015223503,0.274135410785675,walking,2026-03-04_14-00-52
1772632854516041700,2.512041748046875,-0.2585994617274031,-0.5986598667629063,0.4692641099125146,-0.0147752612829208,0.0551963672041893,0.2512750923633575,walking,2026-03-04_14-00-52
1772632854525991000,2.521990966796875,-0.4786808671532198,-0.6489886627696454,0.6528074904054403,-0.053899236023426,0.0262711886316537,0.1978957653045654,walking,2026-03-04_14-00-52
1772632854535939800,2.53193994140625,-0.7303131932817399,-0.6528557134613394,0.7954395993173122,-0.1128728091716766,-0.0046126912347972,0.1228316351771354,walking,2026-03-04_14-00-52
1772632854545889000,2.541888916015625,-0.9145543467804788,-0.5976090425357222,0.8547744163393973,-0.1689442694187164,-0.0365725792944431,0.0585209801793098,walking,2026-03-04_14-00-52
1772632854555838000,2.551837890625,-0.8932625524267553,-0.4667058037318289,0.7507295199751853,-0.2082594633102417,-0.0556434765458107,0.027688231319189,walking,2026-03-04_14-00-52
1772632854565787000,2.561786865234375,-0.7622109911933541,-0.2362660858988761,0.4819155016928911,-0.2161445468664169,-0.0376540906727314,0.0393784418702125,walking,2026-03-04_14-00-52
1772632854575735800,2.57173583984375,-0.6486755051672458,0.0243842074111104,0.1396574770152568,-0.1973980218172073,-0.0027978387661278,0.0717614144086837,walking,2026-03-04_14-00-52
1772632854585684700,2.581684814453125,-0.5667900893693789,0.2447762862212955,-0.1187497135430574,-0.1629631370306015,0.0238135568797588,0.1226807758212089,walking,2026-03-04_14-00-52
1772632854595634000,2.591634033203125,-0.5129436406305059,0.3302294409707188,-0.2170148574620485,-0.1289268732070922,0.0363613069057464,0.1735215783119201,walking,2026-03-04_14-00-52
1772632854605582800,2.601582763671875,-0.4785892068143934,0.3618628888577223,-0.1909434276163578,-0.1005932316184043,0.0429223887622356,0.2253601402044296,walking,2026-03-04_14-00-52
1772632854615532000,2.611531982421875,-0.5181588179955259,0.2933480094276368,-0.123774848228693,-0.0796767622232437,0.0452273562550544,0.2597700357437134,walking,2026-03-04_14-00-52
1772632854625481700,2.621481689453125,-0.5927162655254825,0.1645603014729917,0.0129600193381309,-0.0724684968590736,0.0432702302932739,0.2815545201301574,walking,2026-03-04_14-00-52
1772632854635431000,2.631430908203125,-0.6402423156037926,-0.0022615151911973,0.1616091965824365,-0.0704940259456634,0.0414811186492443,0.293654590845108,walking,2026-03-04_14-00-52
1772632854645379800,2.6413798828125,-0.6208404266498982,-0.2159237012244761,0.291492883080244,-0.0808370262384414,0.0297033004462718,0.2874132990837097,walking,2026-03-04_14-00-52
1772632854655328800,2.651328857421875,-0.6170825354211033,-0.3824778068631887,0.4226151714622974,-0.0937309861183166,0.0169222578406333,0.2728407680988312,walking,2026-03-04_14-00-52
1772632854665278000,2.66127783203125,-0.5857599070489407,-0.5030865922763943,0.5178641824305057,-0.1018165424466133,-0.0003727860748767,0.2680103480815887,walking,2026-03-04_14-00-52
1772632854675227000,2.671226806640625,-0.5027980941912159,-0.5311453965470194,0.5430787031859159,-0.1008791103959083,-0.0157938189804554,0.2696577608585357,walking,2026-03-04_14-00-52
1772632854685175800,2.68117578125,-0.4432099965278059,-0.5359843610107898,0.4998170690864324,-0.0860275775194168,-0.0027860549744218,0.2724842429161072,walking,2026-03-04_14-00-52
1772632854695125000,2.691125,-0.4227514015952125,-0.5443385670538992,0.4086579577803611,-0.0694962665438652,0.0263393390923738,0.2753969430923462,walking,2026-03-04_14-00-52
1772632854705074000,2.701073974609375,-0.3848313111867755,-0.5499451548893004,0.3918775033712386,-0.0599018260836601,0.0483642593026161,0.2758400440216064,walking,2026-03-04_14-00-52
1772632854715022800,2.71102294921875,-0.3593344298260286,-0.5349050413414835,0.4631605323404073,-0.048326663672924,0.0644145980477333,0.2749838531017303,walking,2026-03-04_14-00-52
1772632854724971800,2.7209716796875,-0.2848657930906861,-0.5724895065873861,0.5077548763483762,-0.0380671732127666,0.072469487786293,0.2749734222888946,walking,2026-03-04_14-00-52
1772632854734921000,2.7309208984375,-0.2083087327087298,-0.5442185208708048,0.5670119519591331,-0.0421386137604713,0.0492808148264884,0.2845514714717865,walking,2026-03-04_14-00-52
1772632854744870000,2.740869873046875,-0.1490467617271468,-0.5069951440222561,0.7085901679039001,-0.061801753938198,0.0009127217344939,0.2905856966972351,walking,2026-03-04_14-00-52
1772632854754819800,2.75081982421875,-0.1477719560183584,-0.5040195622775704,0.7663567126959562,-0.1001805663108825,-0.0459181666374206,0.2828302979469299,walking,2026-03-04_14-00-52
1772632854764768800,2.760768798828125,-0.2297918849160894,-0.5520723031111061,0.7024024191796779,-0.1479872912168502,-0.0705477893352508,0.2682099044322967,walking,2026-03-04_14-00-52
1772632854774717700,2.7707177734375,-0.3260452871538698,-0.5594478003151715,0.4945721541702747,-0.1863330900669098,-0.0601302981376647,0.2611314952373504,walking,2026-03-04_14-00-52
1772632854784667000,2.7806669921875,-0.3727523855321109,-0.5469917119111866,0.1469897195994854,-0.2047478407621383,-0.016058450564742,0.2684690058231354,walking,2026-03-04_14-00-52
1772632854794616000,2.790615966796875,-0.3915817718276754,-0.4924754010867327,-0.2525824299275875,-0.1989983320236206,0.0451143570244312,0.2923253178596496,walking,2026-03-04_14-00-52
1772632854804565000,2.80056494140625,-0.4360400318332016,-0.4448261264875531,-0.5731915173768997,-0.1725781857967376,0.0980207175016403,0.3161651492118835,walking,2026-03-04_14-00-52
1772632854814513700,2.810513671875,-0.4329927365591749,-0.4588612277112901,-0.8105196795493363,-0.117240622639656,0.1212935522198677,0.3418129980564117,walking,2026-03-04_14-00-52
1772632854824462600,2.820462646484375,-0.3875536122901365,-0.5117866891477256,-0.9746797296583652,-0.0445384532213211,0.1196397244930267,0.3687942624092102,walking,2026-03-04_14-00-52
1772632854834411800,2.830411865234375,-0.3944974766112863,-0.5250234796006232,-1.048790091007948,0.0338562205433845,0.1004958599805831,0.3986397981643677,walking,2026-03-04_14-00-52
1772632854844360700,2.840360595703125,-0.4021490508103743,-0.5745027461059391,-1.0507581762105227,0.1051851212978363,0.0858991891145706,0.431252121925354,walking,2026-03-04_14-00-52
1772632854854310000,2.850309814453125,-0.4282837551506236,-0.6844909149140119,-1.012060489025712,0.1599365174770355,0.0676932856440544,0.4569758772850036,walking,2026-03-04_14-00-52
1772632854864258800,2.8602587890625,-0.4842753261594101,-0.7958524909671395,-0.920781550732255,0.1894969046115875,0.0481619052588939,0.4663648903369903,walking,2026-03-04_14-00-52
1772632854874207700,2.870207763671875,-0.5768276819221675,-0.940309184957668,-0.7847375880390405,0.1941092312335968,0.0219832994043827,0.4611847698688507,walking,2026-03-04_14-00-52
1772632854884156700,2.88015673828125,-0.703281686232239,-1.0934683139070869,-0.6710930886805058,0.1791187077760696,-0.0111961914226412,0.4396790266036987,walking,2026-03-04_14-00-52
1772632854894105600,2.890105712890625,-0.830672679131478,-1.1888572448026389,-0.6310270357519387,0.1550703644752502,-0.038395058363676,0.4019886255264282,walking,2026-03-04_14-00-52
1772632854904055800,2.900055908203125,-0.9507721998482942,-1.223660701027885,-0.6466495522975921,0.1236856430768966,-0.0609666481614112,0.3536669909954071,walking,2026-03-04_14-00-52
1772632854914004700,2.910004638671875,-1.0765503507234155,-1.2165137518826872,-0.7522498614102602,0.094845212996006,-0.0706605538725853,0.2947903573513031,walking,2026-03-04_14-00-52
1772632854923953700,2.91995361328125,-1.1574556329101324,-1.142532204544544,-0.925613793194294,0.0725420787930488,-0.0671350508928299,0.2319093942642212,walking,2026-03-04_14-00-52
1772632854933902800,2.92990283203125,-1.1949153027325867,-1.0269902010016143,-1.137995145636797,0.0543433688580989,-0.0539100617170333,0.1691972762346267,walking,2026-03-04_14-00-52
1772632854943851800,2.939851806640625,-1.1712229500431566,-0.8562626090705394,-1.304438922768831,0.0392223708331584,-0.0526092909276485,0.1110254079103469,walking,2026-03-04_14-00-52
1772632854953800700,2.94980078125,-1.125132887584716,-0.619390958493948,-1.389073016220331,0.0199022032320499,-0.0739995315670967,0.0617638491094112,walking,2026-03-04_14-00-52
1772632854963749600,2.95974951171875,-1.0862002226002514,-0.3479544827535748,-1.4149030385255812,0.0039233257994055,-0.0831609740853309,0.0101194670423865,walking,2026-03-04_14-00-52
1772632854973698800,2.96969873046875,-1.0775097703400998,-0.0585159018546342,-1.4746873528808355,-0.0054675131104886,-0.0881823673844337,-0.0363340526819229,walking,2026-03-04_14-00-52
1772632854983647700,2.979647705078125,-1.003670334886387,0.2154861865900456,-1.5329893197238444,0.0090279607102274,-0.0792942941188812,-0.062906727194786,walking,2026-03-04_14-00-52
1772632854993596700,2.9895966796875,-0.8466925244316458,0.4723151680462062,-1.6257155342161655,0.0467356592416763,-0.034508716315031,-0.0620459951460361,walking,2026-03-04_14-00-52
1772632855003545900,2.9995458984375,-0.6920948871117085,0.7208269875340163,-1.6541478479743004,0.1013321503996849,0.0281538441777229,-0.0453623086214065,walking,2026-03-04_14-00-52
1772632855013494800,3.009494873046875,-0.5849943660365418,0.9080961105518044,-1.506467223501205,0.1475835442543029,0.0913410633802414,-0.0145237017422914,walking,2026-03-04_14-00-52
1772632855023443700,3.019443603515625,-0.4589895302660763,0.9868731485381722,-1.1945236730664968,0.1890622526407241,0.1219432428479194,0.0152875818312168,walking,2026-03-04_14-00-52
1772632855033394000,3.029393798828125,-0.330692857231386,0.985816040700674,-0.8190507765293121,0.2307018488645553,0.1438645422458648,0.059184730052948,walking,2026-03-04_14-00-52
1772632855043342800,3.0393427734375,-0.2891363465493545,0.9693782622493804,-0.5013508545249701,0.276235967874527,0.1760666221380233,0.1098895445466041,walking,2026-03-04_14-00-52
1772632855053291800,3.049291748046875,-0.2830314538029954,0.928440394922346,-0.1946206548243761,0.3148376941680908,0.1912668794393539,0.1648830324411392,walking,2026-03-04_14-00-52
1772632855063240700,3.05924072265625,-0.3021829481923953,0.8082853446260094,0.1756160946249961,0.3427840173244476,0.1667125523090362,0.2028728425502777,walking,2026-03-04_14-00-52
1772632855073189600,3.069189697265625,-0.3013347703978419,0.5934482695944607,0.5346405451864004,0.3611126840114593,0.1257257014513015,0.2204302698373794,walking,2026-03-04_14-00-52
1772632855083138800,3.079138916015625,-0.3757900727275758,0.3826831201769411,0.8292670501172542,0.3636880218982696,0.0775296837091445,0.20591501891613,walking,2026-03-04_14-00-52
1772632855093087700,3.089087646484375,-0.5689026976091787,0.2229338722474872,1.100610879138112,0.3582985699176788,0.065714031457901,0.1564316153526306,walking,2026-03-04_14-00-52
1772632855103036700,3.09903662109375,-0.6776558081969618,0.0481314320929348,1.244660453632474,0.3450220227241516,0.0583160184323787,0.089226521551609,walking,2026-03-04_14-00-52
1772632855112985900,3.10898583984375,-0.6286280117861927,-0.000620031594485,1.396671216264367,0.3214448094367981,0.0529193915426731,0.0170399416238069,walking,2026-03-04_14-00-52
1772632855122934800,3.118934814453125,-0.5041512988984584,0.02537804075405,1.555571738409996,0.284516841173172,0.0237294100224971,-0.0551495812833309,walking,2026-03-04_14-00-52
1772632855132883700,3.1288837890625,-0.3058248848913237,0.1818874299794435,1.7324983311116695,0.2379445433616638,-0.0328915230929851,-0.112422727048397,walking,2026-03-04_14-00-52
1772632855142832600,3.13883251953125,-0.0403328871712088,0.3924944662258028,1.828940351256728,0.186251625418663,-0.1049700006842613,-0.1440354585647583,walking,2026-03-04_14-00-52
1772632855152781800,3.14878173828125,0.1885269045265391,0.6494828760273754,1.7951526479452848,0.1396199315786361,-0.1880664825439453,-0.1646571159362793,walking,2026-03-04_14-00-52
1772632855162730800,3.158730712890625,0.3505242967089638,0.9051632719703018,1.6291747347593306,0.108944185078144,-0.256027340888977,-0.1726911514997482,walking,2026-03-04_14-00-52
1772632855172679700,3.1686796875,0.4961541626647114,1.1266032523982226,1.362270934012532,0.0948073267936706,-0.292974978685379,-0.1552495658397674,walking,2026-03-04_14-00-52
1772632855182630000,3.1786298828125,0.6380635102599859,1.3453170227326452,1.056006013736129,0.0762676447629928,-0.309588760137558,-0.1248245984315872,walking,2026-03-04_14-00-52
1772632855192578800,3.188578857421875,0.7121787669803947,1.4744104356355965,0.8664192614257336,0.0372925475239753,-0.3031649589538574,-0.0900700837373733,walking,2026-03-04_14-00-52
1772632855202527700,3.19852783203125,0.664474693454057,1.4778779656156895,0.7311568044990301,-0.0160671770572662,-0.2575883865356445,-0.0703108012676239,walking,2026-03-04_14-00-52
1772632855212476700,3.2084765625,0.5135220250403508,1.402830177285522,0.5813444286942482,-0.0809463039040565,-0.1903006881475448,-0.0799919217824935,walking,2026-03-04_14-00-52
1772632855222425600,3.218425537109375,0.2905435464661568,1.2929483914613722,0.4219903175622224,-0.1432703584432602,-0.1198274567723274,-0.1111275851726532,walking,2026-03-04_14-00-52
1772632855232374800,3.228374755859375,0.092520718515478,1.150772940275818,0.2800023517727851,-0.2010822594165802,-0.0718319714069366,-0.159279927611351,walking,2026-03-04_14-00-52
1772632855242323700,3.23832373046875,0.0176083931332454,1.0476974734656512,0.1588730496168136,-0.2376873195171356,-0.0726303979754448,-0.2130053043365478,walking,2026-03-04_14-00-52
1772632855252273000,3.24827294921875,0.0190056927105411,0.980505220941454,0.0062754270076751,-0.2500936686992645,-0.1006194204092025,-0.2640466690063476,walking,2026-03-04_14-00-52
1772632855262221800,3.258221923828125,0.10710373594556,0.9652101827844976,-0.2210708548545837,-0.2432793825864792,-0.1388524323701858,-0.2971080243587494,walking,2026-03-04_14-00-52
1772632855272170800,3.268170654296875,0.2103384484380483,0.9922169937841594,-0.453632825538516,-0.2311758548021316,-0.1675578504800796,-0.3198008239269256,walking,2026-03-04_14-00-52
1772632855282119700,3.27811962890625,0.2223048353626392,1.037716469938308,-0.6640542760848999,-0.2286373674869537,-0.1563345491886139,-0.3348952531814575,walking,2026-03-04_14-00-52
1772632855292068600,3.288068603515625,0.151821505403798,1.0736695345900953,-0.8537742993861437,-0.2417534440755844,-0.0876806676387786,-0.3473577797412872,walking,2026-03-04_14-00-52
1772632855302017800,3.298017822265625,0.0295906717467121,1.0757193067267536,-1.0267179599314928,-0.2566209137439728,0.0407063923776149,-0.3475692868232727,walking,2026-03-04_14-00-52
1772632855311967700,3.3079677734375,-0.0039006607003509,1.049420936257392,-1.1569319012969732,-0.2587088346481323,0.2041107714176178,-0.3239574134349823,walking,2026-03-04_14-00-52
1772632855321917000,3.3179169921875,0.0309213175622746,1.0110917901240288,-1.1818261040568352,-0.2347151637077331,0.3479641675949096,-0.2751029729843139,walking,2026-03-04_14-00-52
1772632855331865900,3.327865966796875,0.1848918359598144,0.944204950287193,-1.0199836832404137,-0.1889141201972961,0.4261647164821625,-0.2122225612401962,walking,2026-03-04_14-00-52
1772632855341814800,3.337814697265625,0.3606837986083701,0.7803567426063119,-0.6850754368036985,-0.1291517317295074,0.434316486120224,-0.1515720188617706,walking,2026-03-04_14-00-52
1772632855351763700,3.347763671875,0.474619097607024,0.5573104960255324,-0.2363619474887847,-0.0653336122632026,0.3821917474269867,-0.102400466799736,walking,2026-03-04_14-00-52
1772632855361712600,3.357712646484375,0.4792024068092927,0.2802202323071658,0.2126706907778978,-0.0158992409706115,0.2856966555118561,-0.0721534863114357,walking,2026-03-04_14-00-52
1772632855371661600,3.36766162109375,0.4551558703873306,0.0157142864823341,0.5790735611528158,0.022355468943715,0.1817638874053955,-0.066430352628231,walking,2026-03-04_14-00-52
1772632855381610800,3.37761083984375,0.3853895661240443,-0.2077403947688639,0.8360346445560455,0.0433160886168479,0.0818750411272049,-0.0759288147091865,walking,2026-03-04_14-00-52
1772632855391560000,3.387559814453125,0.2759582274811342,-0.3744314246602356,0.9916823023855684,0.0475486516952514,0.0084809847176074,-0.0982983037829399,walking,2026-03-04_14-00-52
1772632855401508900,3.3975087890625,0.1828507951188832,-0.4676863392017781,1.0521119289070366,0.0335931181907653,-0.044141549617052,-0.1257759034633636,walking,2026-03-04_14-00-52
1772632855411457800,3.407457763671875,0.1426857753278687,-0.5120800460711121,1.0803437516570091,0.0032623764127492,-0.0875774472951889,-0.1514146775007248,walking,2026-03-04_14-00-52
1772632855421406700,3.41740673828125,0.1204368994450196,-0.501731378275156,1.040554177582264,-0.0374045446515083,-0.1039783284068107,-0.1719569116830825,walking,2026-03-04_14-00-52
1772632855431355600,3.427355712890625,0.0965900503136217,-0.4389220170103013,0.9374240579754114,-0.0742078348994255,-0.1023623198270797,-0.1866357326507568,walking,2026-03-04_14-00-52
1772632855441304600,3.4373046875,0.092793105716072,-0.3829176595851778,0.7607692679524422,-0.1015374958515167,-0.0897495150566101,-0.2002162784337997,walking,2026-03-04_14-00-52
1772632855451253800,3.447253662109375,0.1060178038723766,-0.3309695918135344,0.5560282011300325,-0.1133326366543769,-0.0783181563019752,-0.2090459764003753,walking,2026-03-04_14-00-52
1772632855461203700,3.45720361328125,0.1079198015687987,-0.2875571510665118,0.3666898706227541,-0.1127097830176353,-0.0619349144399166,-0.2195110470056533,walking,2026-03-04_14-00-52
1772632855471153000,3.46715283203125,0.0919376213978976,-0.2738980435483157,0.1791220569193363,-0.1057554706931114,-0.0397816747426986,-0.2340036928653717,walking,2026-03-04_14-00-52
1772632855481101800,3.477101806640625,0.0504154879095032,-0.2938686723008751,0.0643430005729198,-0.0932731330394744,-0.0274872798472642,-0.2559042870998382,walking,2026-03-04_14-00-52
1772632855491050800,3.48705078125,0.0496919228753075,-0.341387379322946,0.0100830025970935,-0.0823320746421814,-0.0134231271222233,-0.2816003262996673,walking,2026-03-04_14-00-52
1772632855500999700,3.496999755859375,0.0686352544067427,-0.4145215891167521,-0.0288368029057979,-0.0769380778074264,0.0113107021898031,-0.3083814680576324,walking,2026-03-04_14-00-52
1772632855510948600,3.506948486328125,0.0549197405261918,-0.4898043552465737,-0.0372854822993278,-0.0723145678639411,0.0421098917722702,-0.3382671773433685,walking,2026-03-04_14-00-52
1772632855520897500,3.5168974609375,0.0416478056946769,-0.5642125304989516,-0.0357487742513418,-0.0737803131341934,0.070141315460205,-0.3690386712551117,walking,2026-03-04_14-00-52
1772632855530846700,3.5268466796875,0.0372988167049363,-0.5963197333775461,-0.0294119724452495,-0.0686867535114288,0.0879943519830703,-0.4003981947898865,walking,2026-03-04_14-00-52
1772632855540796000,3.5367958984375,0.0709463808933272,-0.6384300054848194,-0.0188455702453851,-0.0493010804057121,0.0994236394762992,-0.419524610042572,walking,2026-03-04_14-00-52
1772632855550744800,3.546744873046875,0.1703964602805674,-0.6048042147368192,-0.0617880553930997,-0.0148778585717082,0.1032958775758743,-0.4166643917560577,walking,2026-03-04_14-00-52
1772632855560693800,3.55669384765625,0.2802932244781405,-0.5432476300120354,-0.1057160444468259,0.0279519278556108,0.1058078408241272,-0.3908744156360626,walking,2026-03-04_14-00-52
1772632855570642700,3.566642578125,0.3708863359319045,-0.5214896794512868,-0.1011626189261674,0.0736962407827377,0.108155146241188,-0.36263507604599,walking,2026-03-04_14-00-52
1772632855580591600,3.576591552734375,0.4639923069894313,-0.5764627941325307,-0.0030704934865236,0.1035404056310653,0.0848345160484314,-0.3286411762237549,walking,2026-03-04_14-00-52
1772632855590540500,3.58654052734375,0.5122309257838875,-0.6762658151432871,0.1936065093457698,0.1115394830703735,0.0275128986686468,-0.3026260733604431,walking,2026-03-04_14-00-52
1772632855600490800,3.59649072265625,0.5206961909860373,-0.7923144530341029,0.4005851259618997,0.1027593538165092,-0.0495322942733764,-0.2873357832431793,walking,2026-03-04_14-00-52
1772632855610439700,3.606439697265625,0.4796284867342561,-0.8970784574531018,0.4772685526698828,0.0860637351870536,-0.1201899573206901,-0.2901880443096161,walking,2026-03-04_14-00-52
1772632855620388900,3.616388916015625,0.3767389709502458,-0.9720843063376844,0.3778974933356046,0.0741168707609176,-0.1497820913791656,-0.3058004975318908,walking,2026-03-04_14-00-52
1772632855630337800,3.626337890625,0.212931387540698,-1.0112325137689708,0.108614103975892,0.070649430155754,-0.1267289668321609,-0.3374508321285248,walking,2026-03-04_14-00-52
1772632855640286700,3.63628662109375,0.0982265289416536,-1.0132591972909868,-0.1480114638626575,0.0728217363357544,-0.080518789589405,-0.3685451149940491,walking,2026-03-04_14-00-52
1772632855650235600,3.646235595703125,0.1475541120165958,-0.9819112883470952,-0.3325631446152925,0.0830615907907486,-0.0380530841648578,-0.3799484968185425,walking,2026-03-04_14-00-52
1772632855660184600,3.6561845703125,0.3217460921226069,-0.8733345937721431,-0.4101338755518198,0.1078058034181594,-0.0144685301929712,-0.3650507926940918,walking,2026-03-04_14-00-52
1772632855670133800,3.6661337890625,0.5613644841240719,-0.7549835241578519,-0.4188496814489364,0.1372246742248535,-0.016880290582776,-0.3326326906681061,walking,2026-03-04_14-00-52
1772632855680082700,3.676082763671875,0.8148590969931334,-0.6405139721520244,-0.345294615894556,0.1678882986307144,-0.0416401661932468,-0.2846064269542694,walking,2026-03-04_14-00-52
1772632855690031900,3.686031982421875,1.003863080979511,-0.5675139101319014,-0.2536141110628843,0.1987543404102325,-0.0654165968298912,-0.2290140241384506,walking,2026-03-04_14-00-52
1772632855699980800,3.695980712890625,1.1045970261648297,-0.5435761313140391,-0.1924555857449769,0.2187060564756393,-0.073555052280426,-0.1800200492143631,walking,2026-03-04_14-00-52
1772632855709929700,3.7059296875,1.1088343714736402,-0.5995533084712922,-0.1705722552388906,0.2255075126886367,-0.0745047405362129,-0.1480650454759597,walking,2026-03-04_14-00-52
1772632855719878700,3.715878662109375,1.0727717089675366,-0.6948518576696515,-0.129117962822318,0.2191492319107055,-0.0857591181993484,-0.1254015266895294,walking,2026-03-04_14-00-52
1772632855729827600,3.72582763671875,1.0229877604272215,-0.7744720684818923,-0.088188571062684,0.2052816301584243,-0.1041913926601409,-0.1052778884768486,walking,2026-03-04_14-00-52
1772632855739777800,3.73577783203125,1.027536509772763,-0.8397641864731907,-0.1202858370691537,0.1861718744039535,-0.1300483494997024,-0.0921611413359642,walking,2026-03-04_14-00-52
1772632855749726700,3.745726806640625,0.97335125753358,-0.8550218152292072,-0.2207861926943063,0.1660058796405792,-0.165458008646965,-0.0824837461113929,walking,2026-03-04_14-00-52
1772632855759675600,3.755675537109375,0.8837113186188041,-0.8280756483756005,-0.3656429919183254,0.1501028686761856,-0.1916623413562774,-0.0809111222624778,walking,2026-03-04_14-00-52
1772632855769624800,3.765624755859375,0.7558124492626637,-0.7803878683969379,-0.5663841754496097,0.1399176120758056,-0.1968126147985458,-0.0834672227501869,walking,2026-03-04_14-00-52
1772632855779573800,3.77557373046875,0.6547162466362119,-0.6761557788975536,-0.8074977013796567,0.1345084309577942,-0.1789123117923736,-0.0810763910412788,walking,2026-03-04_14-00-52
1772632855789522700,3.785522705078125,0.5913811444642022,-0.5411931817002594,-1.0515975496441126,0.1370986104011535,-0.1517312973737716,-0.0657608211040496,walking,2026-03-04_14-00-52
1772632855799471900,3.795471923828125,0.5552608700193464,-0.3670410221479833,-1.2372229971081017,0.142328605055809,-0.1461419314146042,-0.0491732768714427,walking,2026-03-04_14-00-52
1772632855809421000,3.805421142578125,0.5276614268887788,-0.1792206949882209,-1.3132622806936505,0.1213333085179328,-0.148076981306076,-0.035417515784502,walking,2026-03-04_14-00-52
1772632855819370000,3.815369873046875,0.4429326043585315,0.0061349956236779,-1.2718582571595909,0.0813344866037368,-0.208244651556015,-0.0118827708065509,walking,2026-03-04_14-00-52
1772632855829319000,3.82531884765625,0.3023204934995621,0.2212457730300724,-1.248781917476654,0.0377787537872791,-0.230233833193779,-0.0060272784903645,walking,2026-03-04_14-00-52
1772632855839268000,3.83526806640625,0.0673369582245126,0.3696927057005464,-1.3930056794941426,0.0013914266601204,-0.2061105221509933,-0.01920647919178,walking,2026-03-04_14-00-52
1772632855849217000,3.845217041015625,-0.2446919324060902,0.5966079026691615,-1.6175386575013395,-0.0176909212023019,-0.1309808790683746,-0.0405977889895439,walking,2026-03-04_14-00-52
1772632855859166200,3.855166259765625,-0.3733381129981949,0.8005155874073505,-1.789769785863161,0.0026242970488965,-0.0196578428149223,-0.0522192455828189,walking,2026-03-04_14-00-52
1772632855869115100,3.865115234375,-0.3167803229413926,1.0003393638327718,-1.9273405197322369,0.0612287521362304,0.1123020574450492,-0.0376075431704521,walking,2026-03-04_14-00-52
1772632855879065000,3.875065185546875,-0.1606234004154801,1.2802306564465165,-1.834952158892155,0.1447900533676147,0.2366697788238525,0.0202994793653488,walking,2026-03-04_14-00-52
1772632855889014000,3.885013916015625,0.1036180857868865,1.5004431409060954,-1.4497797061175106,0.2330208420753479,0.3054552674293518,0.0943545326590538,walking,2026-03-04_14-00-52
1772632855898963000,3.894962890625,0.3273253535596653,1.5973362658195196,-0.8730874871432781,0.3157292902469635,0.3059017360210418,0.1635071039199829,walking,2026-03-04_14-00-52
1772632855908911900,3.904911865234375,0.4007656701605767,1.5859354586221277,-0.2364694995164871,0.3853909075260162,0.2544337511062622,0.2077246308326721,walking,2026-03-04_14-00-52
1772632855918861000,3.914861083984375,0.3341296998122707,1.4654687120281158,0.3118307377099991,0.4451922178268432,0.1739229261875152,0.2141894549131393,walking,2026-03-04_14-00-52
1772632855928810200,3.924810302734375,0.1748817524684593,1.349999773721397,0.7295973000973462,0.4951906502246856,0.1054884791374206,0.1909579038619995,walking,2026-03-04_14-00-52
1772632855938759200,3.93475927734375,0.0507944407571107,1.2471414567932486,1.0929337686389684,0.5153942108154297,0.0475989319384098,0.1613474190235138,walking,2026-03-04_14-00-52
1772632855948708000,3.9447080078125,-0.0721423857448622,1.2196870481565594,1.37368840008378,0.4983534514904022,0.0002135762479156,0.1323450654745102,walking,2026-03-04_14-00-52
1772632855958657000,3.954656982421875,-0.2106497063443064,1.21491632662341,1.61386435290277,0.4522966146469116,0.0280812606215477,0.1086263507604599,walking,2026-03-04_14-00-52
1772632855968606000,3.96460595703125,-0.4082937275778502,1.1978753215819598,1.6440502323299646,0.3699577748775482,0.0003471013624221,0.0605746656656265,walking,2026-03-04_14-00-52
1772632855978555000,3.974554931640625,-0.5976724996933713,1.1636829829923807,1.7890175061911344,0.2649753391742706,-0.0084233209490776,0.0037844181060791,walking,2026-03-04_14-00-52
1772632855988503800,3.98450390625,-0.7179315583534538,1.01656802957803,1.81086459634006,0.1424275636672973,0.0104068247601389,-0.0584491305053234,walking,2026-03-04_14-00-52
1772632855998453200,3.994453369140625,-0.9424692125357688,0.998352866190672,1.769109275150299,0.0127680338919162,0.0389587357640266,-0.1174522936344146,walking,2026-03-04_14-00-52
1772632856008402200,4.004402099609375,-1.1169451972149311,0.9701740888021886,1.5999918948948382,-0.1010458841919899,0.0949098840355873,-0.1697399914264679,walking,2026-03-04_14-00-52
1772632856018352000,4.01435205078125,-1.192027399271354,0.9013035278022288,1.3676789305359125,-0.1815088242292404,0.1530719250440597,-0.2209084033966064,walking,2026-03-04_14-00-52
1772632856028301000,4.024301025390625,-1.153705632726848,0.8534402451261878,1.0663801082342863,-0.2235681265592575,0.1800497472286224,-0.2547758221626282,walking,2026-03-04_14-00-52
1772632856038250000,4.03425,-1.026572121720016,0.8406682957060635,0.8499626321434974,-0.2402666360139846,0.1608348935842514,-0.2654339075088501,walking,2026-03-04_14-00-52
1772632856048199000,4.044198974609375,-0.8471523970283568,0.803692463877797,0.6885077493399381,-0.2350905090570449,0.1187244653701782,-0.2527996003627777,walking,2026-03-04_14-00-52
1772632856058148000,4.054148193359375,-0.6958841963920742,0.7644426957681775,0.537366170758009,-0.2187668234109878,0.0685191377997398,-0.2278434485197067,walking,2026-03-04_14-00-52
1772632856068097000,4.064096923828125,-0.6170336547780781,0.724701198618859,0.3940092547029256,-0.210719808936119,0.0135078150779008,-0.1992632001638412,walking,2026-03-04_14-00-52
1772632856078046200,4.074046142578125,-0.6262420664977282,0.6365351316489279,0.2903881367087364,-0.215507224202156,-0.0310646966099739,-0.1759710162878036,walking,2026-03-04_14-00-52
1772632856087995100,4.0839951171875,-0.6600898294333368,0.4666602110244333,0.2057943752676248,-0.2403555810451507,-0.0643416941165924,-0.1623739749193191,walking,2026-03-04_14-00-52
1772632856097944000,4.093944091796875,-0.6739230514094233,0.2610899999015033,0.1147077446758747,-0.2787568867206573,-0.0916959941387176,-0.1533415168523788,walking,2026-03-04_14-00-52
1772632856107893000,4.10389306640625,-0.6478179384898394,0.0949843686826527,-0.024810031607747,-0.3181402385234833,-0.1233934685587883,-0.149647980928421,walking,2026-03-04_14-00-52
1772632856117842000,4.113842041015625,-0.6079322105642407,-0.0306232479311525,-0.2113455796539783,-0.3462191224098205,-0.1451864838600158,-0.1456462144851684,walking,2026-03-04_14-00-52
1772632856127790800,4.123790771484375,-0.5442862523447722,-0.1201762392148375,-0.4929150346130132,-0.3509712517261505,-0.1319718658924102,-0.1361187547445297,walking,2026-03-04_14-00-52
1772632856137740000,4.133739990234375,-0.4665034130275249,-0.1375648886501789,-0.7679793454617262,-0.3257691264152527,-0.1144057512283325,-0.1220128834247589,walking,2026-03-04_14-00-52
1772632856147689200,4.143689208984375,-0.3461500636801123,-0.1362494221374392,-1.0704308449298143,-0.2551873624324798,-0.0710324496030807,-0.0952877923846244,walking,2026-03-04_14-00-52
1772632856157639000,4.153638916015625,-0.1869292235389351,-0.1136471297070384,-1.3142244037240742,-0.1491609215736389,-0.0223238132894039,-0.0601550377905368,walking,2026-03-04_14-00-52
1772632856167588000,4.163588134765625,-0.0663523676339536,-0.0373589859269559,-1.359378719702363,-0.0363337099552154,0.0059062270447611,-0.0217250920832157,walking,2026-03-04_14-00-52
1772632856177537000,4.173537109375,0.0402083474760875,-0.0168410985551774,-1.1986737784832715,0.0615401491522789,0.0193939432501792,0.0104027641937136,walking,2026-03-04_14-00-52
1772632856187486000,4.18348583984375,0.1134059048296883,-0.0558040125474333,-0.8427554772436618,0.1182170063257217,0.0161550063639879,0.0237041879445314,walking,2026-03-04_14-00-52
1772632856197435100,4.19343505859375,0.0908311214607208,-0.1169846035666763,-0.396416315844655,0.1305946707725525,0.0156505815684795,0.0194335896521806,walking,2026-03-04_14-00-52
1772632856207384000,4.203384033203125,-0.0096708415996283,-0.1566188409492373,0.0356172568261623,0.106130875647068,0.0318386070430278,0.0015994659624993,walking,2026-03-04_14-00-52
1772632856217333000,4.2133330078125,-0.0801427003163844,-0.169705263146013,0.3782850313484668,0.0639510378241539,0.0601911842823028,-0.0162945315241813,walking,2026-03-04_14-00-52
1772632856227282000,4.223281982421875,-0.0729249144246801,-0.139406278733164,0.6306248846918344,0.0215838737785816,0.0965119078755378,-0.0199369378387928,walking,2026-03-04_14-00-52
1772632856237231000,4.233231201171875,-0.000837692933157,-0.0588698298588395,0.7552016969531774,-0.0174570009112358,0.1206398755311966,-0.0082589760422706,walking,2026-03-04_14-00-52
1772632856247180000,4.243179931640625,0.0397089465865865,0.0386962258800864,0.8844687128573655,-0.0520426779985427,0.1187873855233192,0.0093860635533928,walking,2026-03-04_14-00-52
1772632856257129000,4.25312890625,0.0871687995608895,0.090691493794322,1.0108248097509145,-0.0862774401903152,0.0775781795382499,0.0275517050176858,walking,2026-03-04_14-00-52
1772632856267078000,4.263077880859375,0.0393705449450761,0.1337253104873001,1.098445810058713,-0.1249862164258956,0.0138897504657506,0.0255673825740814,walking,2026-03-04_14-00-52
1772632856277027000,4.273027099609375,-0.1287025138892233,0.1295807580284774,1.099223224171996,-0.1632177233695984,-0.0407316125929355,0.009245291352272,walking,2026-03-04_14-00-52
1772632856286976000,4.28297607421875,-0.2751392757810652,0.1219338965371251,0.977210709440708,-0.1980518698692321,-0.0677778795361518,-0.0099217444658279,walking,2026-03-04_14-00-52
1772632856296926000,4.292926025390625,-0.3414947121549397,0.1355795600518584,0.7523106516867876,-0.2253124117851257,-0.0531088858842849,-0.0032872301526367,walking,2026-03-04_14-00-52
1772632856306875000,4.302875,-0.322595219765231,0.2453762979410588,0.4783569324284791,-0.2345940619707107,0.002346912631765,0.0247883461415767,walking,2026-03-04_14-00-52
1772632856316824000,4.312823974609375,-0.2310698324300348,0.3849650936342775,0.2389110474497079,-0.233204573392868,0.0644804909825325,0.0833779498934745,walking,2026-03-04_14-00-52
1772632856326773000,4.32277294921875,-0.102494671247527,0.4350580350585281,0.1674672749608755,-0.2196426838636398,0.1015034914016723,0.1489489674568176,walking,2026-03-04_14-00-52
1772632856336722200,4.33272216796875,0.0238512695781886,0.3981329105041921,0.1740010606437921,-0.1970148235559463,0.099515825510025,0.2168027460575103,walking,2026-03-04_14-00-52
1772632856346671000,4.342671142578125,0.1230281945798546,0.3365532371647656,0.2759896090000868,-0.168809562921524,0.0690663084387779,0.276233047246933,walking,2026-03-04_14-00-52
1772632856356620000,4.3526201171875,0.1734427691739052,0.2388287759937346,0.4259562985837459,-0.1431964039802551,0.0343268625438213,0.3270645141601562,walking,2026-03-04_14-00-52
1772632856366569000,4.36256884765625,0.1406377932894975,0.1082142910033464,0.5533265409559011,-0.1253574788570404,0.0063966941088438,0.3642515540122986,walking,2026-03-04_14-00-52
1772632856376518000,4.372517822265625,0.0817322345301508,-0.0020322364799678,0.7029547923654318,-0.1205293536186218,-0.0166508555412292,0.3804036974906921,walking,2026-03-04_14-00-52
1772632856386467000,4.382467041015625,0.0408979371754452,-0.1094648755863308,0.829369925969839,-0.1263773888349533,-0.0359803438186645,0.396958440542221,walking,2026-03-04_14-00-52
1772632856396416000,4.392416015625,0.0764762136980891,-0.1996677090808749,0.9522849424988032,-0.1416713893413543,-0.0526319593191146,0.4199373722076416,walking,2026-03-04_14-00-52
1772632856406365000,4.402364990234375,0.1519386107111349,-0.2407252572648227,0.9884551570326088,-0.1628464460372924,-0.0684271678328514,0.4519578814506531,walking,2026-03-04_14-00-52
1772632856416314000,4.412314208984375,0.1458314894750714,-0.2707652984805405,0.975759926110506,-0.1853836327791214,-0.0814007744193077,0.4845976233482361,walking,2026-03-04_14-00-52
1772632856426263000,4.422262939453125,0.160299319560267,-0.3449016710542142,0.9111918846100568,-0.2060558944940567,-0.0987078621983528,0.5113109946250916,walking,2026-03-04_14-00-52
1772632856436213000,4.432212890625,0.1279575772734358,-0.4070258265338838,0.8194681251585483,-0.2320369780063629,-0.1187808886170387,0.5249311327934265,walking,2026-03-04_14-00-52
1772632856446162000,4.442161865234375,-0.0282560804083943,-0.4729666176922619,0.6877408566206693,-0.2626715898513794,-0.130178153514862,0.523327648639679,walking,2026-03-04_14-00-52
1772632856456110800,4.45211083984375,-0.1789279225867241,-0.5488586017616093,0.4853805474549532,-0.2828319072723388,-0.1330023854970932,0.506872832775116,walking,2026-03-04_14-00-52
1772632856466060000,4.46206005859375,-0.3210638089468702,-0.6048449851386248,0.1919786158829927,-0.2932741641998291,-0.1127708703279495,0.4879958033561706,walking,2026-03-04_14-00-52
1772632856476009200,4.47200927734375,-0.4033387720515951,-0.6213261643402278,-0.1715396389663219,-0.2829604148864746,-0.0810499340295791,0.4725796580314636,walking,2026-03-04_14-00-52
1772632856485958100,4.481958251953125,-0.4179841141281649,-0.597663403071463,-0.5313385810315608,-0.2519359290599823,-0.0497396774590015,0.4687532186508178,walking,2026-03-04_14-00-52
1772632856495907000,4.491906982421875,-0.3731319594342261,-0.5433754211101681,-0.8851181166768074,-0.2044319361448288,-0.0092896064743399,0.4895211160182953,walking,2026-03-04_14-00-52
1772632856505856000,4.50185595703125,-0.3292169394599273,-0.49683293870911,-1.1625789672732352,-0.1403943598270416,0.0283496472984552,0.5180899500846863,walking,2026-03-04_14-00-52
1772632856515805000,4.511804931640625,-0.3672521806806326,-0.4778970598317682,-1.3575000663489103,-0.0772595256567001,0.0631438121199607,0.5408126711845398,walking,2026-03-04_14-00-52
1772632856525753900,4.52175390625,-0.4569340225083753,-0.5116483035903424,-1.4517121354848146,-0.0109409531578421,0.0827284306287765,0.5515745282173157,walking,2026-03-04_14-00-52
1772632856535703000,4.531703125,-0.5949602085273713,-0.5844396182306111,-1.4619921219587326,0.0582999028265476,0.108215682208538,0.5525758862495422,walking,2026-03-04_14-00-52
1772632856545652200,4.54165234375,-0.7332644443027675,-0.6801650876041502,-1.4548048408031462,0.1197552755475044,0.1445148289203643,0.5476543307304382,walking,2026-03-04_14-00-52
1772632856555601200,4.55160107421875,-0.8108561449620872,-0.7769242839395999,-1.3754519026249643,0.1686509251594543,0.1753291338682174,0.5463194251060486,walking,2026-03-04_14-00-52
1772632856565550000,4.561550048828125,-0.8120140097603201,-0.8806414096541703,-1.174573356449604,0.2128229141235351,0.1908316612243652,0.5522564053535461,walking,2026-03-04_14-00-52
1772632856575500000,4.5715,-0.776705965013802,-1.0023577179178595,-0.95292499396801,0.2371191382408142,0.1646343469619751,0.552786111831665,walking,2026-03-04_14-00-52
1772632856585449000,4.581448974609375,-0.7927033062212169,-1.0726008824452755,-0.6643143883258104,0.246154710650444,0.1047001779079437,0.5356494784355164,walking,2026-03-04_14-00-52
1772632856595398000,4.59139794921875,-0.8753770593851804,-1.163613424887508,-0.4231207828968763,0.2324744313955307,0.0213412884622812,0.4869787991046905,walking,2026-03-04_14-00-52
1772632856605346800,4.601346923828125,-1.0319650668047369,-1.219274521832913,-0.3056991030871868,0.2184518128633499,-0.0620446801185607,0.408595323562622,walking,2026-03-04_14-00-52
1772632856615296000,4.6112958984375,-1.2280034794725476,-1.2412466996662317,-0.4700660739451646,0.2277712076902389,-0.1035110056400299,0.3112748563289642,walking,2026-03-04_14-00-52
1772632856625245200,4.6212451171875,-1.3900604198224842,-1.12673403917104,-0.8652385272085666,0.2573176622390747,-0.1155841797590255,0.2084749639034271,walking,2026-03-04_14-00-52
1772632856635194000,4.631194091796875,-1.446116507434845,-0.8553263511337339,-1.199562251755595,0.2898887097835541,-0.1360261589288711,0.1267320662736892,walking,2026-03-04_14-00-52
1772632856645143000,4.64114306640625,-1.3042882622517644,-0.5468517919838428,-1.3474959742069244,0.3104435205459595,-0.1564589887857437,0.0623578764498233,walking,2026-03-04_14-00-52
1772632856655092000,4.651092041015625,-1.159060437758267,-0.2047108178146183,-1.471426305258274,0.3158327937126159,-0.1142685040831565,0.0341185741126537,walking,2026-03-04_14-00-52
1772632856665041000,4.661041015625,-0.9805714180454612,0.2066001386925578,-1.4642343479275703,0.2811690866947174,-0.1352691203355789,0.028515551239252,walking,2026-03-04_14-00-52
1772632856674989800,4.67098974609375,-0.7571399715393782,0.4726747951388358,-1.4303180498003958,0.2157550603151321,-0.0871970281004905,0.0388402827084064,walking,2026-03-04_14-00-52
1772632856684939300,4.680939208984375,-0.5683196370242163,0.5877024194188416,-1.2952759576261044,0.1441636979579925,0.014523739926517,0.0588544681668281,walking,2026-03-04_14-00-52
1772632856694888200,4.69088818359375,-0.4902351478792727,0.7193463935874402,-1.2451958756834267,0.0824337899684906,0.1202678680419921,0.0899097472429275,walking,2026-03-04_14-00-52
1772632856704837000,4.700837158203125,-0.3927510713353753,0.8490043085053562,-1.1752227602690457,0.0572839640080928,0.2169936150312423,0.1324734538793563,walking,2026-03-04_14-00-52
1772632856714787000,4.710787109375,-0.2674986248347908,0.8583565126098692,-1.083980646854639,0.0519663132727146,0.2634118795394897,0.1795157343149185,walking,2026-03-04_14-00-52
1772632856724736000,4.720736083984375,-0.1897936365267261,0.7884531014308332,-0.8340852640539407,0.0609552823007106,0.2405377030372619,0.2108550071716308,walking,2026-03-04_14-00-52
1772632856734685000,4.730684814453125,-0.179669900060445,0.6277022752434015,-0.5306517678111792,0.0870008841156959,0.1942876875400543,0.223424419760704,walking,2026-03-04_14-00-52
1772632856744634000,4.740634033203125,-0.2044995496841147,0.3750239837259054,-0.3261030086904764,0.1164176240563392,0.1452293395996093,0.2081623673439026,walking,2026-03-04_14-00-52
1772632856754583000,4.7505830078125,-0.3871365559218451,0.2014713975019753,-0.1764730037152767,0.142792522907257,0.1160188466310501,0.1692517399787902,walking,2026-03-04_14-00-52
1772632856764532000,4.760531982421875,-0.5442683513619005,0.0786788383089005,-0.0407826767653226,0.1613760590553283,0.1140150874853134,0.1229425594210624,walking,2026-03-04_14-00-52
1772632856774481200,4.770481201171875,-0.5972137230752036,0.0250613760203123,0.0683984134435653,0.1790873259305954,0.1189050078392028,0.0769559741020202,walking,2026-03-04_14-00-52
1772632856784430000,4.78043017578125,-0.5709061463860795,0.0445152874223887,0.1577168653190135,0.1962950825691223,0.1620266586542129,0.0441221296787261,walking,2026-03-04_14-00-52
1772632856794379000,4.79037890625,-0.4141127891201526,0.178120040269941,0.2110825448036193,0.2158533334732055,0.189334437251091,0.0289136115461587,walking,2026-03-04_14-00-52
1772632856804328000,4.800327880859375,-0.3165416918799281,0.388855525201559,0.3496966502457856,0.227027952671051,0.1853466182947158,0.0134963085874915,walking,2026-03-04_14-00-52
1772632856814277000,4.810277099609375,-0.040152744831331,0.5219511594831944,0.6234726748496293,0.2627601325511932,0.190604954957962,0.0189443528652191,walking,2026-03-04_14-00-52
1772632856824226000,4.82022607421875,0.2016043031666427,0.6460913338929415,0.5751555109262466,0.3134949505329132,0.1538794338703155,0.0113293100148439,walking,2026-03-04_14-00-52
1772632856834175200,4.83017529296875,0.1724839706117287,0.8802391124635934,0.5647229642391205,0.3613373637199402,0.1452907919883728,-0.0080859018489718,walking,2026-03-04_14-00-52
1772632856844124200,4.840124267578125,0.2021086724922061,1.0443218595527113,0.763337657135725,0.4163723886013031,0.1278257817029953,-0.0019041727064177,walking,2026-03-04_14-00-52
1772632856854074000,4.85007421875,0.3717137266667559,1.19752475457862,0.8124503553509712,0.4214994013309479,0.0531927049160003,-0.0092316567897796,walking,2026-03-04_14-00-52
1772632856864023300,4.860023193359375,0.4046440459638833,1.3683034921750423,1.202329962903261,0.3918757438659668,-0.0089763943105936,-0.0075794314034283,walking,2026-03-04_14-00-52
1772632856873972200,4.86997216796875,0.4358259141584858,1.3154824409611523,1.3439806595623491,0.3284029364585876,-0.0901464596390724,-0.0006701578386127,walking,2026-03-04_14-00-52
1772632856883921200,4.879921142578125,0.5866311003929003,1.2452465829573571,1.494854527118802,0.2335962802171707,-0.1484837979078292,-0.0017029317095875,walking,2026-03-04_14-00-52
1772632856893870000,4.8898701171875,0.5028151549238711,1.3975349934868513,1.5565496435314417,0.1362264752388,-0.1962637454271316,0.0223028808832168,walking,2026-03-04_14-00-52
1772632856903819000,4.899819091796875,0.4977501266192644,1.4533208858557043,1.4879226820290088,0.0382900573313236,-0.2216034531593322,0.0496463552117347,walking,2026-03-04_14-00-52
1772632856913768000,4.909767822265625,0.5027258326726034,1.4155955508343874,1.3520441390305755,-0.0462394505739212,-0.228532612323761,0.0540773384273052,walking,2026-03-04_14-00-52
1772632856923717400,4.91971728515625,0.2627148246243596,1.368468911869824,1.1639736365020277,-0.123713731765747,-0.2159598171710968,0.0301544293761253,walking,2026-03-04_14-00-52
1772632856933666300,4.929666259765625,-0.010437697786279,1.2556155628889798,0.9509113160580396,-0.1940695643424987,-0.2133234590291977,-0.0243211593478918,walking,2026-03-04_14-00-52
1772632856943615200,4.939615234375,-0.2595280112817883,1.119235938500613,0.7517237917095422,-0.2603881359100342,-0.225608617067337,-0.1027347445487976,walking,2026-03-04_14-00-52
1772632856953564200,4.949564208984375,-0.3793037434043362,1.0022798303760587,0.5468073683202266,-0.3162149786949157,-0.2452291697263717,-0.181129440665245,walking,2026-03-04_14-00-52
1772632856963513000,4.95951318359375,-0.377272749033384,0.930076617822051,0.2952320696085691,-0.3682273030281067,-0.2498628050088882,-0.2549511790275574,walking,2026-03-04_14-00-52
1772632856973462000,4.9694619140625,-0.3324588439906016,0.8967096241407095,0.0198421800673007,-0.4121416509151459,-0.2281777262687683,-0.306873470544815,walking,2026-03-04_14-00-52
1772632856983411200,4.9794111328125,-0.2468567092245444,0.8812743007302284,-0.321905557000637,-0.4343777000904083,-0.1469758152961731,-0.3403296768665313,walking,2026-03-04_14-00-52
1772632856993361200,4.989361083984375,-0.1513266893578693,0.9158538850717246,-0.6689484778672456,-0.425978273153305,-0.0178533177822828,-0.348951905965805,walking,2026-03-04_14-00-52
1772632857003310000,4.99931005859375,-0.0041251901712268,0.9399440779723226,-0.956475964447856,-0.3808257281780243,0.1454543769359588,-0.3260782659053802,walking,2026-03-04_14-00-52
1772632857013259300,5.00925927734375,0.169598514835909,0.951682592691481,-1.086679384419322,-0.3103246092796325,0.3116617202758789,-0.2707586586475372,walking,2026-03-04_14-00-52
1772632857023208200,5.019208251953125,0.3240356643645092,0.9348822645381092,-0.9430296228975056,-0.2332087904214859,0.4171942770481109,-0.2050771117210388,walking,2026-03-04_14-00-52
1772632857033157000,5.0291572265625,0.4609477516617625,0.8139008464202284,-0.4271522303700447,-0.1834068447351455,0.4244127571582794,-0.1444956511259079,walking,2026-03-04_14-00-52
1772632857043106000,5.03910595703125,0.5542819419845938,0.5479391488291323,0.2413116788506507,-0.1611875593662262,0.3566528856754303,-0.1059330776333808,walking,2026-03-04_14-00-52
1772632857053055000,5.049054931640625,0.5749647375945002,0.180375856372714,0.8628396493732928,-0.1640037447214126,0.256617933511734,-0.0869406908750534,walking,2026-03-04_14-00-52
1772632857063004200,5.059004150390625,0.511270775514841,-0.1082194055698811,1.2816858236908912,-0.1812857836484909,0.1564098298549652,-0.0831225216388702,walking,2026-03-04_14-00-52
1772632857072953300,5.068953369140625,0.4187527238804847,-0.305369578871876,1.5432430027127264,-0.2131370157003402,0.0787118002772331,-0.0904375985264778,walking,2026-03-04_14-00-52
1772632857082902300,5.07890234375,0.3362720821358263,-0.496416028471291,1.6246452746361493,-0.2472382485866546,0.0154076647013425,-0.1022793427109718,walking,2026-03-04_14-00-52
1772632857092851200,5.088851318359375,0.2829664622753858,-0.6501495232425629,1.5878040289729831,-0.2839473783969879,-0.0388408899307251,-0.1206856966018676,walking,2026-03-04_14-00-52
1772632857102800100,5.098800048828125,0.205875185418874,-0.7200960429109633,1.497555018249154,-0.3274050951004028,-0.1072705462574958,-0.1465394049882888,walking,2026-03-04_14-00-52
1772632857112749000,5.1087490234375,0.1816033523410558,-0.7559593834526837,1.3701385986477137,-0.3623937964439392,-0.1965995579957962,-0.1720530539751052,walking,2026-03-04_14-00-52
1772632857122698000,5.118697998046875,0.1938558809969574,-0.7210913375586271,1.076346790975332,-0.3639861047267914,-0.2598466873168945,-0.1837968081235885,walking,2026-03-04_14-00-52
1772632857132648200,5.128648193359375,0.1921636170610785,-0.6045066930949687,0.5447229632616043,-0.329529732465744,-0.2719699144363403,-0.1832853853702545,walking,2026-03-04_14-00-52
1772632857142597000,5.13859716796875,0.1450197347007691,-0.4603460594415664,0.0230278243660926,-0.2743335664272308,-0.2518252432346344,-0.1738660633563995,walking,2026-03-04_14-00-52
1772632857152546000,5.148546142578125,0.1083942141475155,-0.3675971947260201,-0.3578787876576185,-0.2157079428434372,-0.2127735316753387,-0.1614881604909896,walking,2026-03-04_14-00-52
1772632857162495200,5.1584951171875,0.0845587997255846,-0.3118899205513298,-0.5739806219279766,-0.1565050780773162,-0.1576599478721618,-0.1513990312814712,walking,2026-03-04_14-00-52
1772632857172444200,5.168444091796875,0.0927808672890067,-0.3417579662010073,-0.64318450653553,-0.1191233769059181,-0.110907606780529,-0.144408643245697,walking,2026-03-04_14-00-52
1772632857182393000,5.17839306640625,0.0871144390251487,-0.4030322268530726,-0.572163343372941,-0.1025412008166313,-0.0785142481327056,-0.1505746692419052,walking,2026-03-04_14-00-52
1772632857192342000,5.188342041015625,0.0562216899702325,-0.5136553325638175,-0.4002636389225721,-0.0986595898866653,-0.0619328133761882,-0.1638606190681457,walking,2026-03-04_14-00-52
1772632857202291200,5.198291259765625,0.0318401494402438,-0.6354200100138783,-0.2209235553383827,-0.1028087958693504,-0.0556378997862339,-0.1845970600843429,walking,2026-03-04_14-00-52
1772632857212240100,5.208240234375,0.0512790824688971,-0.7346069449529051,-0.1003548096746206,-0.1102437302470207,-0.0552431754767894,-0.2048267722129821,walking,2026-03-04_14-00-52
1772632857222189300,5.218189208984375,0.0807990088006481,-0.7772672521583736,0.0122235217571258,-0.1153716444969177,-0.057238683104515,-0.2196928262710571,walking,2026-03-04_14-00-52
1772632857232138200,5.22813818359375,0.0963864905655384,-0.8807549530312418,0.0762818601697683,-0.1093254163861274,-0.0489194430410862,-0.2352488487958908,walking,2026-03-04_14-00-52
1772632857242087200,5.238087158203125,0.0857900585535913,-0.9268297448553144,0.0910544818878173,-0.0909666493535041,-0.0419246517121791,-0.2575967609882355,walking,2026-03-04_14-00-52
1772632857252036000,5.2480361328125,0.0708745212335139,-0.9954934581715612,0.0637912119090557,-0.0682046711444854,-0.0453878156840801,-0.2901924252510071,walking,2026-03-04_14-00-52
1772632857261986300,5.257986328125,0.0227061911962926,-1.11845582097359,0.038659693261981,-0.039049182087183,-0.0610855557024478,-0.3270255625247955,walking,2026-03-04_14-00-52
1772632857271935200,5.267935302734375,0.0127502490449696,-1.1993993893440813,0.0154611885040998,-0.0028519947081804,-0.0783210769295692,-0.3570015132427215,walking,2026-03-04_14-00-52
1772632857281884200,5.27788427734375,0.0974193772772327,-1.1926717615894973,-0.0411152697205543,0.0258925668895244,-0.1024096384644508,-0.3662354946136474,walking,2026-03-04_14-00-52
1772632857291833000,5.2878330078125,0.2145501478489488,-1.1897416994869707,-0.0619563976973295,0.0443577878177166,-0.1242524608969688,-0.3559885025024414,walking,2026-03-04_14-00-52
1772632857301782000,5.297781982421875,0.3072541505094617,-1.182370586197078,-0.0649514878600835,0.0530559383332729,-0.1316121071577072,-0.3399975299835205,walking,2026-03-04_14-00-52
1772632857311731200,5.307731201171875,0.3573261222109198,-1.194639919857308,-0.1226601649850606,0.0559160858392715,-0.1225573346018791,-0.327426940202713,walking,2026-03-04_14-00-52
1772632857321680100,5.31768017578125,0.3503854362275451,-1.226918460714817,-0.1455138018280267,0.046303667128086,-0.1176962703466415,-0.3260458409786224,walking,2026-03-04_14-00-52
1772632857334739200,5.3307392578125,0.3474470446880907,-1.2622946022614836,-0.1261994450271129,0.0238320920616388,-0.1324783861637115,-0.3349283039569855,walking,2026-03-04_14-00-52
1772632857344688000,5.340688232421875,0.3561033389503136,-1.29106856906414,-0.1541518663138151,0.0183433052152395,-0.129979208111763,-0.3414441347122192,walking,2026-03-04_14-00-52
1772632857354637000,5.350636962890625,0.4460377307670191,-1.2430848748788237,-0.3442810549378395,0.0338809862732887,-0.1141613647341728,-0.3405541181564331,walking,2026-03-04_14-00-52
1772632857364586200,5.360586181640625,0.5358881706273183,-1.1327927546881138,-0.527224131450057,0.0759982019662857,-0.0948962792754173,-0.3250204920768738,walking,2026-03-04_14-00-52
1772632857374535200,5.37053515625,0.7045532405380159,-1.0137639319427312,-0.6640232964247464,0.1356980204582214,-0.0839674621820449,-0.2958399653434753,walking,2026-03-04_14-00-52
1772632857384484000,5.380484130859375,0.9364217490650713,-0.8855974246263504,-0.7473907309412956,0.2055005133152008,-0.0699242204427719,-0.2467731088399887,walking,2026-03-04_14-00-52
1772632857394433300,5.390433349609375,1.1506086896248162,-0.7702090042099357,-0.7190273907661437,0.2706302404403686,-0.0608873143792152,-0.1879326850175857,walking,2026-03-04_14-00-52
1772632857404382200,5.40038232421875,1.3487458281375466,-0.7071838082373142,-0.5727104558616877,0.3086316287517547,-0.0782535150647163,-0.1295060515403747,walking,2026-03-04_14-00-52
1772632857414332200,5.410332275390625,1.4786046724550426,-0.6951464567020536,-0.3411526937842369,0.323411613702774,-0.1018770858645439,-0.0754555836319923,walking,2026-03-04_14-00-52
1772632857424281000,5.420281005859375,1.5192945563703777,-0.7143912553980946,-0.1352121880441904,0.3123315572738647,-0.1376242339611053,-0.0347975008189678,walking,2026-03-04_14-00-52
1772632857434230000,5.43022998046875,1.4528842480041086,-0.7002924412883818,-0.0254693722993135,0.2827028334140777,-0.1699028015136718,-0.010315328836441,walking,2026-03-04_14-00-52
1772632857444179000,5.440178955078125,1.2864318491742015,-0.715051619002968,0.0091799162775278,0.2427644729614257,-0.1818791180849075,-0.0018468679627403,walking,2026-03-04_14-00-52
1772632857454128400,5.45012841796875,1.1243703787796198,-0.70908920346722,-0.0949479821950197,0.2011358141899109,-0.1961765587329864,0.0021795653738081,walking,2026-03-04_14-00-52
1772632857464077300,5.460077392578125,0.9813898948214947,-0.6560666383318603,-0.2737479675531387,0.1751452684402465,-0.1911741644144058,0.0042247637175023,walking,2026-03-04_14-00-52
1772632857474026200,5.470026123046875,0.8867135691747069,-0.5442746349722146,-0.5925052896559239,0.1724365949630737,-0.1705977767705917,0.0205693822354078,walking,2026-03-04_14-00-52
1772632857483975200,5.47997509765625,0.8271918512783945,-0.4164917201459407,-0.8883516917705535,0.1768476068973541,-0.1692570000886917,0.0392373576760292,walking,2026-03-04_14-00-52
1772632857493924000,5.489924072265625,0.750191175314784,-0.2831388962328434,-1.047449197793007,0.1664463728666305,-0.1771298348903656,0.0410080961883068,walking,2026-03-04_14-00-52
1772632857503873000,5.499873046875,0.5859224041342735,-0.2186171780921518,-1.10809334384799,0.1294523477554321,-0.174839973449707,0.0224599596112966,walking,2026-03-04_14-00-52
1772632857513822000,5.509822021484375,0.3311080869687721,-0.1319214759357273,-1.1185101084440945,0.0736902877688407,-0.2023429721593856,-2.16469634324e-05,walking,2026-03-04_14-00-52
1772632857523771100,5.519771240234375,0.1135810239345766,0.0531746869571507,-1.191361994165182,0.0201117005199193,-0.2195644378662109,-0.0285852700471878,walking,2026-03-04_14-00-52
1772632857533720300,5.52972021484375,-0.0271636637954972,0.2273597258657217,-1.3629846352398394,-0.0403031706809997,-0.2255096733570099,-0.0664572864770889,walking,2026-03-04_14-00-52
1772632857543670300,5.539670166015625,-0.1049258256508968,0.4447022078469395,-1.4237187976658343,-0.0524623692035675,-0.1368469148874282,-0.0686655789613723,walking,2026-03-04_14-00-52
1772632857553619200,5.549619140625,-0.1528453502925112,0.6861873435683548,-1.87358496414721,-0.0235921032726764,-0.007153102196753,-0.0611733086407184,walking,2026-03-04_14-00-52
1772632857563568000,5.559568115234375,-0.1581537954315543,1.0323892835661768,-2.0404384911239144,0.0536368004977703,0.1824755072593689,-0.0129596274346113,walking,2026-03-04_14-00-52
1772632857573517000,5.56951708984375,0.0186040165744721,1.2229257378168403,-2.045886819657684,0.1721690446138382,0.3345401287078857,0.0750924721360206,walking,2026-03-04_14-00-52
1772632857583466000,5.579466064453125,0.2814296628958545,1.3722943153768776,-1.7938117547303438,0.2978111505508423,0.4155999720096588,0.1503333151340484,walking,2026-03-04_14-00-52
1772632857593415200,5.589415283203125,0.3823606467569246,1.412046480050683,-1.164830545592308,0.4002075791358948,0.4058530628681183,0.2154188454151153,walking,2026-03-04_14-00-52
1772632857603364400,5.5993642578125,0.423564288880676,1.2834538562767206,-0.3964350205451249,0.4747846126556396,0.3065285980701446,0.2509946823120117,walking,2026-03-04_14-00-52
1772632857613313300,5.609313232421875,0.3903598288172856,1.1180959746852517,0.3016144641220569,0.521229088306427,0.1777146905660629,0.2540506720542907,walking,2026-03-04_14-00-52
1772632857623262200,5.61926220703125,0.2791808062568306,0.9960404975950716,0.7604495344787836,0.550733208656311,0.0556618124246597,0.2354413121938705,walking,2026-03-04_14-00-52
1772632857633211100,5.629211181640625,0.134188982476294,0.9567400222115218,1.0057634347081184,0.5561908483505249,-0.0300136767327785,0.2079907804727554,walking,2026-03-04_14-00-52
1772632857643160000,5.63916015625,-0.0668020476302131,1.005945513276756,1.169514319494367,0.5251870155334473,-0.0713376402854919,0.1816343665122985,walking,2026-03-04_14-00-52
1772632857653109000,5.64910888671875,-0.2550031177358701,1.0302956722877918,1.2738304340153932,0.4577099680900574,-0.0722998529672622,0.1434699296951294,walking,2026-03-04_14-00-52
1772632857663058000,5.659057861328125,-0.4844945584006607,1.0410923761121929,1.2931512205570936,0.3722291886806488,-0.0332382880151271,0.0941150486469268,walking,2026-03-04_14-00-52
1772632857673629000,5.66962890625,-0.6701634066149592,1.058751513051987,1.2200117500662804,0.2773327827453613,0.0258053243160247,0.0394403524696826,walking,2026-03-04_14-00-52
1772632857683578400,5.679578369140625,-0.8616488321535288,1.1379074673533438,1.134156590387225,0.1888756304979324,0.0914304032921791,-0.0103905862197279,walking,2026-03-04_14-00-52
1772632857693527300,5.68952734375,-0.9579597732648252,1.1889939498595892,1.0824112055808306,0.105129987001419,0.1564845591783523,-0.0599507465958595,walking,2026-03-04_14-00-52
1772632857703476200,5.699476318359375,-0.9900490020953118,1.240754239974171,1.04546649954319,0.0328877456486225,0.2070451974868774,-0.1012081727385521,walking,2026-03-04_14-00-52
1772632857713425200,5.709425048828125,-0.9531785303376614,1.2905622269771992,1.0214058249980211,-0.0293230190873146,0.211684376001358,-0.1316789239645004,walking,2026-03-04_14-00-52
1772632857723374000,5.7193740234375,-0.8662151902209967,1.3135343756332991,1.026281322079897,-0.0772058516740799,0.1720578670501709,-0.1533519923686981,walking,2026-03-04_14-00-52
1772632857733324000,5.729323974609375,-0.7409114519245922,1.3316574768230318,0.9982850616514682,-0.1085093989968299,0.1184704005718231,-0.1647573709487915,walking,2026-03-04_14-00-52
1772632857743273200,5.739273193359375,-0.6037563861843198,1.3478253522917627,0.8717232130527496,-0.1286700665950775,0.0798851922154426,-0.1600217372179031,walking,2026-03-04_14-00-52
1772632857753222100,5.74922216796875,-0.5397619067881256,1.3512553267404437,0.721811468526721,-0.1469802856445312,0.0714811608195304,-0.1488366872072219,walking,2026-03-04_14-00-52
1772632857763171000,5.759171142578125,-0.5386659647775813,1.3251793668501075,0.5481523531883955,-0.1683465838432312,0.0826568529009819,-0.1263425648212433,walking,2026-03-04_14-00-52
1772632857773120300,5.769120361328125,-0.5151612070821225,1.262219198937714,0.4089665853381157,-0.1927893757820129,0.0870260596275329,-0.0954957157373428,walking,2026-03-04_14-00-52
1772632857783069200,5.779069091796875,-0.4725997936738654,1.1618838246159255,0.3559294071555137,-0.2254474461078643,0.0590293109416961,-0.0632016956806182,walking,2026-03-04_14-00-52
1772632857793018000,5.78901806640625,-0.414467813102901,0.996018724154681,0.3350713280439377,-0.2564693987369537,0.0057255122810602,-0.0332450680434703,walking,2026-03-04_14-00-52
1772632857802967000,5.798967041015625,-0.3805815447878092,0.801595345468074,0.2058306156247854,-0.269031286239624,-0.0217290148138999,0.0002481779083609,walking,2026-03-04_14-00-52
1772632857812916200,5.808916259765625,-0.40577272120025,0.6378180110663175,-0.0437128849983215,-0.2600110173225403,-0.0134815191850066,0.0282428581267595,walking,2026-03-04_14-00-52
1772632857822865200,5.818865234375,-0.4487640869909897,0.4800630056940019,-0.2524696172028779,-0.2487184107303619,0.0115854842588305,0.0462218560278415,walking,2026-03-04_14-00-52
1772632857832814300,5.828814453125,-0.5142412061603739,0.2683639364272356,-0.3400882794231176,-0.2355790734291076,0.0318741574883461,0.0422440841794014,walking,2026-03-04_14-00-52
1772632857842763300,5.83876318359375,-0.574543260779418,0.0499661001741886,-0.3299818959504366,-0.2131922841072082,0.0524787679314613,0.02072574198246,walking,2026-03-04_14-00-52
1772632857852712400,5.84871240234375,-0.5831688676424324,-0.1156919334076344,-0.3325058614701032,-0.1747251451015472,0.056714866310358,-0.0043719364330172,walking,2026-03-04_14-00-52
1772632857862662400,5.858662353515625,-0.529984207280539,-0.1666669183634221,-0.2643774971395731,-0.1311022937297821,0.0427580401301384,-0.019327450543642,walking,2026-03-04_14-00-52
1772632857872611300,5.868611328125,-0.3615482699505984,-0.177984869582951,-0.1542728623449802,-0.0858484879136085,0.0088488757610321,-0.0180979780852794,walking,2026-03-04_14-00-52
1772632857882560300,5.878560302734375,-0.160747428653948,-0.1708529718764126,-0.0115261871427297,-0.0428259149193763,-0.0382174365222454,-0.001761615043506,walking,2026-03-04_14-00-52
1772632857892509200,5.88850927734375,-0.0069563219439238,-0.084009970203787,0.1045510923206806,-0.0110655417665839,-0.0735942125320434,0.0178710985928773,walking,2026-03-04_14-00-52
1772632857902458000,5.8984580078125,0.0620645707795396,-0.0228526139296591,0.2215507473260164,-0.0014478024095296,-0.0830281972885131,0.0331195592880249,walking,2026-03-04_14-00-52
1772632857912407300,5.9084072265625,0.0436609356153756,0.010751695638895,0.3357423591732978,-0.0181549377739429,-0.0618143081665039,0.0475583896040916,walking,2026-03-04_14-00-52
1772632857922356500,5.9183564453125,-0.0329796017989516,0.0238395791403949,0.4501876535207033,-0.0629820674657821,-0.0366080254316329,0.047377560287714,walking,2026-03-04_14-00-52
1772632857932305400,5.928305419921875,-0.158477730156295,0.0092751933455467,0.5679746595114469,-0.1199270486831665,-0.0184776317328214,0.0321708023548126,walking,2026-03-04_14-00-52
1772632857942254300,5.93825439453125,-0.2701716069037094,-0.0199370187439024,0.6421855586260556,-0.1741577982902526,0.0007783544715493,0.0060880677774548,walking,2026-03-04_14-00-52
1772632857952203300,5.948203369140625,-0.2941552706899121,0.0030406828701496,0.5977379296123981,-0.2162050753831863,0.0049734883941709,-0.0108819706365466,walking,2026-03-04_14-00-52
1772632857962152200,5.958152099609375,-0.2489112671341747,0.0583304622851312,0.5059124633520842,-0.2377037107944488,-0.0036745949182659,-0.0081876507028937,walking,2026-03-04_14-00-52
1772632857972101000,5.96810107421875,-0.1400196248585358,0.1400147660203278,0.3231874135047197,-0.229293018579483,-0.0121280318126082,0.0138590149581432,walking,2026-03-04_14-00-52
1772632857982050300,5.97805029296875,-0.0043766441816464,0.2633776724472642,0.1237988136261701,-0.1959835290908813,-0.0211396347731351,0.0532753951847553,walking,2026-03-04_14-00-52
1772632857991999500,5.98799951171875,0.0740614441739395,0.3614972704157233,-0.0614309125185012,-0.1520824283361435,-0.0271185021847486,0.108279101550579,walking,2026-03-04_14-00-52
1772632858001949200,5.99794921875,0.1272886650359257,0.4312671183429658,-0.164853293070197,-0.1160069853067398,-0.032748956233263,0.1676817089319229,walking,2026-03-04_14-00-52
1772632858011898400,6.0078984375,0.0795064482394605,0.4148527207672596,-0.1670271299779415,-0.0874633640050888,-0.031693696975708,0.2143424898386001,walking,2026-03-04_14-00-52
1772632858021847300,6.017847412109375,-0.0390125618202611,0.3378394775830209,-0.0909615429073572,-0.0823572874069213,-0.0129042994230985,0.2435171455144882,walking,2026-03-04_14-00-52
1772632858031796200,6.027796142578125,-0.1771358150055632,0.1990571759670972,-0.0088110829651355,-0.0935840383172035,0.0190031435340642,0.2633193731307983,walking,2026-03-04_14-00-52
1772632858041745200,6.0377451171875,-0.2833465111015364,0.0592468464776873,0.1171200665146112,-0.1115337461233139,0.0657080635428428,0.2778935432434082,walking,2026-03-04_14-00-52
1772632858051694300,6.0476943359375,-0.2940437000742182,-0.0741812346287071,0.2226139926433563,-0.1268282979726791,0.1078563258051872,0.2900104820728302,walking,2026-03-04_14-00-52
1772632858061643300,6.057643310546875,-0.2374904400620609,-0.1850700055383145,0.3394014662027358,-0.1340156346559524,0.1103322729468345,0.2999299764633178,walking,2026-03-04_14-00-52
1772632858071592400,6.067592529296875,-0.1604274759845808,-0.2415133389025926,0.5049526784092188,-0.1368681341409683,0.0800907984375953,0.3105197846889496,walking,2026-03-04_14-00-52
1772632858081541400,6.077541259765625,-0.0379466496217995,-0.2926148728474974,0.5807546461075545,-0.1283468306064605,0.0456316247582435,0.326439619064331,walking,2026-03-04_14-00-52
1772632858091490300,6.087490234375,0.0302684796767309,-0.3224634831443428,0.6040659635901451,-0.1047258377075195,0.0268607903271913,0.3432742953300476,walking,2026-03-04_14-00-52
1772632858101439200,6.097439208984375,0.0280610692929476,-0.3195727301388978,0.5452829352319241,-0.0766417384147644,0.0315383672714233,0.3557663857936859,walking,2026-03-04_14-00-52
1772632858111388200,6.10738818359375,0.0199058564206585,-0.3027836540319025,0.5458674571216106,-0.0598747655749321,0.0219284817576408,0.3607643246650696,walking,2026-03-04_14-00-52
1772632858121338400,6.11733837890625,0.0249551756994798,-0.3327390857040881,0.6144681151390076,-0.0577133446931839,0.001552103087306,0.3648927509784698,walking,2026-03-04_14-00-52
1772632858131287300,6.127287353515625,0.0164046798992902,-0.3425779042817652,0.6848141555190086,-0.0830119624733924,-0.0308284293860197,0.3683116436004638,walking,2026-03-04_14-00-52
1772632858141236200,6.137236328125,-0.0249709212578833,-0.3719005910083651,0.7489899828314781,-0.135488212108612,-0.0785219147801399,0.3622050285339355,walking,2026-03-04_14-00-52
1772632858151185200,6.14718505859375,-0.1173488337691873,-0.408923038457334,0.7358844175428152,-0.1926216781139373,-0.1144305542111396,0.3540727198123932,walking,2026-03-04_14-00-52
1772632858161134300,6.15713427734375,-0.2133002208530902,-0.4341549487389624,0.4837853872179984,-0.234410673379898,-0.1040932238101959,0.3526436686515808,walking,2026-03-04_14-00-52
1772632858171083300,6.167083251953125,-0.319210253502056,-0.3744906075015664,0.0436269602805376,-0.2447138875722885,-0.0508023686707019,0.3609065413475036,walking,2026-03-04_14-00-52
1772632858181032200,6.1770322265625,-0.4008271910894662,-0.3070692223966121,-0.4227157092273235,-0.2253812104463577,0.0131214866414666,0.3817047476768493,walking,2026-03-04_14-00-52
1772632858190981400,6.1869814453125,-0.4018957701690495,-0.2635128431342542,-0.7793395283877849,-0.1758023500442505,0.0524526089429855,0.4161553382873535,walking,2026-03-04_14-00-52
1772632858200930300,6.196930419921875,-0.3827706523299217,-0.2575663558200001,-1.0258382544875144,-0.1091114729642868,0.0643260478973388,0.4557171165943146,walking,2026-03-04_14-00-52
1772632858210879200,6.206879150390625,-0.3796694349115714,-0.3089255177877843,-1.1679887173622845,-0.0358268469572067,0.0701564252376556,0.4930008351802826,walking,2026-03-04_14-00-52
1772632858220828400,6.216828369140625,-0.4341834076484665,-0.4422692816115915,-1.2380769835889338,0.0322313010692596,0.0711694955825805,0.5170034170150757,walking,2026-03-04_14-00-52
1772632858230777300,6.22677734375,-0.5140886824797839,-0.5979632628008723,-1.250529637926817,0.0921158790588378,0.0826750919222831,0.5352545380592346,walking,2026-03-04_14-00-52
1772632858240726300,6.236726318359375,-0.5999533041069284,-0.7561334248453379,-1.2312176192134618,0.1485985964536667,0.1105394810438156,0.5459492802619934,walking,2026-03-04_14-00-52
1772632858250676500,6.246676513671875,-0.6250545372135937,-0.883740690843761,-1.1824369294315575,0.2031052261590957,0.1406758278608322,0.5626567006111145,walking,2026-03-04_14-00-52
1772632858260625400,6.25662548828125,-0.6163908998951315,-1.0013454721353947,-1.0435872616678477,0.2414222508668899,0.1438540369272232,0.5765557289123535,walking,2026-03-04_14-00-52
1772632858270574300,6.26657421875,-0.595598177637346,-1.1060282280117273,-0.8235738069117069,0.2582492530345917,0.1000074818730354,0.5798633098602295,walking,2026-03-04_14-00-52
1772632858280523300,6.276523193359375,-0.6420989763211459,-1.2177635327480734,-0.5624620335698127,0.2489753365516662,0.0215686000883579,0.5572197437286377,walking,2026-03-04_14-00-52
1772632858290472200,6.28647216796875,-0.7430168267060071,-1.3384542973563074,-0.3530459606736898,0.2175354957580566,-0.0591015256941318,0.5103530287742615,walking,2026-03-04_14-00-52
1772632858300421000,6.296421142578125,-0.8610453133024275,-1.3619681516736746,-0.3388455858856439,0.1807513833045959,-0.1021730974316597,0.451447069644928,walking,2026-03-04_14-00-52
1772632858310370300,6.306370361328125,-1.0034656060945242,-1.3282372931160031,-0.490375287002325,0.1493424028158188,-0.0821548551321029,0.3869219422340393,walking,2026-03-04_14-00-52
1772632858320319200,6.3163193359375,-1.0992836491223423,-1.2030177990369495,-0.7725894696056842,0.1300334185361862,-0.0300738122314214,0.3244361877441406,walking,2026-03-04_14-00-52
1772632858330268400,6.326268310546875,-1.0535628583677112,-0.9772356977514922,-0.9696218617469072,0.1228840947151184,-0.0002579689025878,0.2776601314544678,walking,2026-03-04_14-00-52
1772632858340217300,6.33621728515625,-0.8753891151491552,-0.7299988666355609,-1.1051116976886988,0.1341681778430938,0.0164496395736932,0.2441492974758148,walking,2026-03-04_14-00-52
1772632858350166300,6.346166259765625,-0.6710521721482277,-0.4954441146992147,-1.1648410669863225,0.1464047878980636,0.0127356024459004,0.2115847766399383,walking,2026-03-04_14-00-52
1772632858360115200,6.356115234375,-0.5665374297825619,-0.2143441769480705,-1.1121785673350095,0.137188121676445,-0.0221046693623065,0.176754355430603,walking,2026-03-04_14-00-52
1772632858370064400,6.366064453125,-0.5271463169734925,0.0568980913944542,-0.9849439340412616,0.1157289072871208,-0.0660024732351303,0.1490594893693924,walking,2026-03-04_14-00-52
1772632858380014000,6.37601416015625,-0.4608340621542185,0.3451264197207987,-0.9458692302376032,0.0969030261039733,-0.0984096750617027,0.1285145431756973,walking,2026-03-04_14-00-52
1772632858389963300,6.38596337890625,-0.3926511911574751,0.6222454711422324,-0.9842407542079686,0.0931965708732605,-0.1112413704395294,0.1241067945957183,walking,2026-03-04_14-00-52
1772632858399912400,6.395912353515625,-0.2977512128226459,0.8864112252272665,-1.129257127907872,0.1050050258636474,-0.078889288008213,0.1329498291015625,walking,2026-03-04_14-00-52
1772632858409861400,6.405861328125,-0.2473605122945271,1.0787458149410785,-1.2956108886688946,0.1412864774465561,0.0078539624810218,0.1503593772649765,walking,2026-03-04_14-00-52
1772632858419810300,6.415810302734375,-0.203864740645606,1.2390374991841613,-1.3926310009628533,0.1951363980770111,0.1110714301466941,0.1912287920713424,walking,2026-03-04_14-00-52
1772632858429759200,6.42575927734375,-0.1623552839756943,1.3685367164090274,-1.2939227894514798,0.2510701417922973,0.2055050134658813,0.2420224100351333,walking,2026-03-04_14-00-52
1772632858439708200,6.435708251953125,-0.1291991382997483,1.406524209497869,-0.9837193606823682,0.2966642677783966,0.2536025047302246,0.2938547134399414,walking,2026-03-04_14-00-52
1772632858449657000,6.445656982421875,-0.0908234313446097,1.3230726038292049,-0.514918776628375,0.3191227912902832,0.2640299499034881,0.3398877680301666,walking,2026-03-04_14-00-52
1772632858459606300,6.455606201171875,-0.1316754287527874,1.0984126384414732,0.0159106858372688,0.3214397430419922,0.2537722289562225,0.359281450510025,walking,2026-03-04_14-00-52
1772632858469555500,6.465555419921875,-0.2389642754742875,0.8211407345458864,0.4869482351630926,0.3063124120235443,0.2164378762245178,0.3441559970378876,walking,2026-03-04_14-00-52
1772632858479504400,6.47550439453125,-0.3555504177752882,0.583633124153316,0.8756915321618318,0.2718010544776916,0.173012375831604,0.3062222003936767,walking,2026-03-04_14-00-52
1772632858489453300,6.485453369140625,-0.5049362752636894,0.4066127156883478,1.1924702476680278,0.2259800434112548,0.1455418020486831,0.2466516941785812,walking,2026-03-04_14-00-52
1772632858499402200,6.49540234375,-0.5164400313789025,0.2909780654259026,1.3778127865374088,0.1825982183218002,0.1240293234586715,0.1840801835060119,walking,2026-03-04_14-00-52
1772632858509352200,6.505352294921875,-0.4969811880733817,0.2638433902628719,1.44733815818429,0.148542508482933,0.1109364181756973,0.1168548092246055,walking,2026-03-04_14-00-52
1772632858519301000,6.515301025390625,-0.4212079350128769,0.3020538784526288,1.4732862539112568,0.1211968958377838,0.0956794321537017,0.052604716271162,walking,2026-03-04_14-00-52
1772632858529250300,6.525250244140625,-0.2177635204048827,0.4143310349807143,1.5143518392711877,0.0936058983206749,0.054422166198492,0.0064155897125601,walking,2026-03-04_14-00-52
1772632858539199200,6.53519921875,0.0072675433175638,0.5875111346304416,1.5621096157461405,0.06888297945261,-0.0104271406307816,-0.0152188651263713,walking,2026-03-04_14-00-52
1772632858549148400,6.5451484375,0.2303188313996419,0.771206929206103,1.5371148752212525,0.0444929748773574,-0.0919351801276207,-0.0220155045390129,walking,2026-03-04_14-00-52
1772632858559097300,6.555097412109375,0.430090914170444,0.9417446976535022,1.4502595985889437,0.03012415766716,-0.1765432804822921,-0.0119594074785709,walking,2026-03-04_14-00-52
1772632858569046300,6.56504638671875,0.6001168241055682,1.0882248602956532,1.2604559886574744,0.0207677073776721,-0.2409228831529617,0.0073711634613573,walking,2026-03-04_14-00-52
1772632858578995200,6.5749951171875,0.6828785112813115,1.2034382164061068,0.9995049588352442,0.0147444363683462,-0.2632167339324951,0.0323034077882766,walking,2026-03-04_14-00-52
1772632858588944100,6.584944091796875,0.6500130373813211,1.2587886399671435,0.7230062312692404,-0.0042318529449403,-0.2474970519542694,0.0492531321942806,walking,2026-03-04_14-00-52
1772632858598893000,6.59489306640625,0.5182585885755717,1.233744507342577,0.5176742128163576,-0.03808568790555,-0.2048537135124206,0.047616884112358,walking,2026-03-04_14-00-52
1772632858608842500,6.604842529296875,0.3284523482955992,1.1374714140236375,0.3563035011649131,-0.0808119550347328,-0.1429434418678283,0.0226863138377666,walking,2026-03-04_14-00-52
1772632858618791400,6.61479150390625,0.1461552598030306,0.9919706178076564,0.2530740128368139,-0.1268769204616546,-0.0862306281924247,-0.0192968230694532,walking,2026-03-04_14-00-52
1772632858628740400,6.624740234375,0.002125540786609,0.8798032052643596,0.1946346833497285,-0.1762522906064987,-0.0618083477020263,-0.0754629373550415,walking,2026-03-04_14-00-52
1772632858638690300,6.634690185546875,-0.0255546028973534,0.765347097261995,0.1534796661406755,-0.217568039894104,-0.0688353702425956,-0.13108491897583,walking,2026-03-04_14-00-52
1772632858648639200,6.64463916015625,-0.0136457365799695,0.7011176400661469,0.0859551129221916,-0.2516033947467804,-0.0993983671069145,-0.1882753223180771,walking,2026-03-04_14-00-52
