time,seconds_elapsed,acc_x,acc_y,acc_z,gyr_x,gyr_y,gyr_z,activity,session
1772633076431248000,0.068247802734375,0.6562472555957735,-0.6583401362217962,-1.0779144786834716,-0.0311731249094009,-0.191456913948059,-0.1534262001514434,walking,2026-03-04_14-04-36
1772633076441196800,0.07819677734375,0.4662540413763373,-0.4625292486995458,-1.2072300099045037,-0.0671668127179145,-0.1462731957435608,-0.1475318223237991,walking,2026-03-04_14-04-36
1772633076451146000,0.08814599609375,0.2530789447402581,-0.2868218225292861,-1.3553694840610029,-0.0853356122970581,-0.111046515405178,-0.1424541920423507,walking,2026-03-04_14-04-36
1772633076461095000,0.098094970703125,0.0969062583896331,-0.0669227879330515,-1.5100544343382118,-0.0767879337072372,-0.0872445106506347,-0.1346950680017471,walking,2026-03-04_14-04-36
1772633076471044000,0.108044189453125,-0.0032976715722121,0.1869356532797217,-1.621481257647276,-0.0408314019441604,-0.0670371502637863,-0.1162516772747039,walking,2026-03-04_14-04-36
1772633076480993000,0.117992919921875,-0.0230077496924437,0.4734888880006969,-1.7140923213273285,0.0132472803816199,-0.0661979839205741,-0.081985056400299,walking,2026-03-04_14-04-36
1772633076490942000,0.12794189453125,0.0115628110923804,0.7754324379466474,-1.7171178066283463,0.0730369091033935,-0.0782674476504325,-0.0307001527398824,walking,2026-03-04_14-04-36
1772633076500891000,0.137890869140625,0.0485208880682475,1.0859247666597365,-1.5839596285045143,0.1628829091787338,-0.0737139731645584,0.0426952354609966,walking,2026-03-04_14-04-36
1772633076510840000,0.147840087890625,0.1206372077900916,1.2627876464754342,-1.5335183120340108,0.274284303188324,-0.0202038194984197,0.0976922065019607,walking,2026-03-04_14-04-36
1772633076520789000,0.1577890625,-0.0192044849519617,1.4459979956217108,-1.5132628749907016,0.3856169581413269,0.0622037053108215,0.1221296414732933,walking,2026-03-04_14-04-36
1772633076530738000,0.167738037109375,-0.2769751311724074,1.5714099435329436,-1.364279935747385,0.4835473895072937,0.1490450203418731,0.1373727321624755,walking,2026-03-04_14-04-36
1772633076540687000,0.17768701171875,-0.384449216534011,1.5678936059750617,-1.0087778140932322,0.5396623611450195,0.1956146508455276,0.1474943459033966,walking,2026-03-04_14-04-36
1772633076550636000,0.187635986328125,-0.4487763619506731,1.5498780568130313,-0.4271054686188698,0.5597702860832214,0.1995004713535308,0.1458957493305206,walking,2026-03-04_14-04-36
1772633076560585000,0.1975849609375,-0.4975217612234875,1.482252819699049,0.1806698708832264,0.5496675968170166,0.1879972070455551,0.1390170603990554,walking,2026-03-04_14-04-36
1772633076570534000,0.207533935546875,-0.5367382481180131,1.3700304620981216,0.6774602856248617,0.5102224946022034,0.1604965329170227,0.1166740357875824,walking,2026-03-04_14-04-36
1772633076580483000,0.217483154296875,-0.6225105518192052,1.2494824669614433,1.1578934398055076,0.439377874135971,0.0804325938224792,0.0794907137751579,walking,2026-03-04_14-04-36
1772633076590432000,0.227431884765625,-0.6548954025954008,1.0852706866651771,1.56028240031898,0.3366170525550842,-0.0416077487170696,-0.007757025770843,walking,2026-03-04_14-04-36
1772633076600381000,0.237380859375,-0.8720144510842859,0.9647305825740098,1.8536615355372428,0.2360257506370544,-0.1160430982708931,-0.1044915542006492,walking,2026-03-04_14-04-36
1772633076610329900,0.247329833984375,-1.0623081826202572,0.8109329365253448,1.8616846829950808,0.138326421380043,-0.1414079368114471,-0.1999273598194122,walking,2026-03-04_14-04-36
1772633076620279000,0.257279052734375,-1.1990570787124335,0.8165250574439764,1.680642471668124,0.0534762479364872,-0.1399133652448654,-0.2923025488853454,walking,2026-03-04_14-04-36
1772633076630228000,0.26722802734375,-1.2831830765113237,0.9104673697277904,1.4587047708511351,-0.0125521766021847,-0.0904154181480407,-0.3656146824359894,walking,2026-03-04_14-04-36
1772633076640177000,0.277177001953125,-1.2145537769213317,0.9688491238087416,1.1417734951317309,-0.067615695297718,0.0010881323833018,-0.4040800333023071,walking,2026-03-04_14-04-36
1772633076650126000,0.2871259765625,-1.0272172877557575,1.0890277011111378,0.8959159895449876,-0.1229603141546249,0.0744940117001533,-0.4020380079746246,walking,2026-03-04_14-04-36
1772633076660075000,0.297074951171875,-0.7730581100307404,1.205166939894855,0.7806938656061887,-0.1753878444433212,0.1290861368179321,-0.3717362880706787,walking,2026-03-04_14-04-36
1772633076670024000,0.30702392578125,-0.5110425197169184,1.2461790415018796,0.7546265274137258,-0.2260496169328689,0.1465341597795486,-0.3271675109863281,walking,2026-03-04_14-04-36
1772633076679972900,0.316972900390625,-0.3524576393917202,1.2100208096668124,0.7659288426727056,-0.2784789800643921,0.1046202629804611,-0.2917914092540741,walking,2026-03-04_14-04-36
1772633076689921800,0.326921875,-0.3269239696845412,1.0774965455323458,0.8054156344085931,-0.3203533887863159,0.0429256595671176,-0.2863367795944214,walking,2026-03-04_14-04-36
1772633076699871000,0.33687109375,-0.4341028897581622,0.8729881184220314,0.7343027013093233,-0.3499520123004913,-0.0002569672651588,-0.30055832862854,walking,2026-03-04_14-04-36
1772633076709821000,0.346821044921875,-0.5518442665088922,0.6512406794801354,0.5261532873481511,-0.3623850047588348,-0.0025470848195254,-0.3110300898551941,walking,2026-03-04_14-04-36
1772633076719769900,0.356769775390625,-0.6223211667269468,0.5006231247723102,0.2915934208452701,-0.3607985377311706,0.0298012662678957,-0.308711290359497,walking,2026-03-04_14-04-36
1772633076729719000,0.366718994140625,-0.5953078529212623,0.4136901067286729,0.0898468596637249,-0.3391441702842712,0.0738107487559318,-0.2899556159973144,walking,2026-03-04_14-04-36
1772633076739668000,0.37666796875,-0.4663119455760344,0.3154072810225188,-0.0751946494549512,-0.2915465533733368,0.1193156465888023,-0.2548671364784241,walking,2026-03-04_14-04-36
1772633076749617000,0.386616943359375,-0.3339822541655972,0.2414652619771659,-0.1722825662881136,-0.2279807329177856,0.1491621881723404,-0.1955954879522323,walking,2026-03-04_14-04-36
1772633076759566000,0.396566162109375,-0.1901025928780436,0.2167370634339749,-0.1600210506081581,-0.1620339453220367,0.1432249397039413,-0.1297829151153564,walking,2026-03-04_14-04-36
1772633076769515000,0.406514892578125,-0.0463627053873613,0.095545948088169,-0.0325549466460943,-0.1071068421006202,0.1038054376840591,-0.0722007751464843,walking,2026-03-04_14-04-36
1772633076779464000,0.4164638671875,-0.0067261664498597,-0.0967274129576981,0.2016922006458044,-0.0655410289764404,0.0542378835380077,-0.0389275029301643,walking,2026-03-04_14-04-36
1772633076789412900,0.426412841796875,-0.0796263848247006,-0.282869139380753,0.4450082050561905,-0.0428903736174106,0.0094278212636709,-0.0181565880775451,walking,2026-03-04_14-04-36
1772633076799362000,0.436362060546875,-0.1395321701351553,-0.4867252400621771,0.659852148219943,-0.0424275174736976,-0.0326858088374137,-0.0072248447686433,walking,2026-03-04_14-04-36
1772633076809311000,0.44631103515625,-0.1698491651287302,-0.6312598215945064,0.8472270696997642,-0.0555785559117794,-0.0636085495352745,0.0010317068081349,walking,2026-03-04_14-04-36
1772633076819260000,0.456260009765625,-0.1823713775714859,-0.7498802096694708,0.9865700739383696,-0.0823430567979812,-0.1010629832744598,0.0026905899867415,walking,2026-03-04_14-04-36
1772633076829208800,0.466208740234375,-0.1849968307042494,-0.8183103334255516,1.0697890398949383,-0.1154760122299194,-0.1379532068967819,-0.0027659491170197,walking,2026-03-04_14-04-36
1772633076839158000,0.476157958984375,-0.2484782460117712,-0.8559455059453844,1.0923194361329078,-0.1435044407844543,-0.1489544659852981,-0.0193342715501785,walking,2026-03-04_14-04-36
1772633076849107000,0.48610693359375,-0.357186531077139,-0.8372473813466728,0.9850485634595156,-0.1650571525096893,-0.1431670933961868,-0.0390161387622356,walking,2026-03-04_14-04-36
1772633076859055900,0.496055908203125,-0.4233454219656065,-0.7896329588651657,0.8374182078689336,-0.1775367259979248,-0.1394109725952148,-0.0491302907466888,walking,2026-03-04_14-04-36
1772633076869005000,0.506005126953125,-0.3987170305350795,-0.6449911175660789,0.6937380512088537,-0.1674872487783432,-0.1088009998202323,-0.0360438972711563,walking,2026-03-04_14-04-36
1772633076878954000,0.5159541015625,-0.3064618310879916,-0.4853741177141666,0.4795744915246963,-0.1444136202335357,-0.0683779492974281,-0.0039096609689295,walking,2026-03-04_14-04-36
1772633076888903000,0.52590283203125,-0.1943751190980896,-0.326978330220282,0.3229968593686819,-0.1284257471561432,-0.0448982119560241,0.0272070951759815,walking,2026-03-04_14-04-36
1772633076898851800,0.535851806640625,-0.1324760776111856,-0.253778653974831,0.3323860344827175,-0.1264363676309585,-0.0388648174703121,0.051490593701601,walking,2026-03-04_14-04-36
1772633076908801000,0.545801025390625,-0.1030776587672531,-0.2606679750971496,0.4444704449176788,-0.135299265384674,-0.0273087881505489,0.0701198503375053,walking,2026-03-04_14-04-36
1772633076918750000,0.55575,-0.0754807729199528,-0.2955509262993931,0.5790975265502929,-0.1430927366018295,-0.0021613570861518,0.0874660834670066,walking,2026-03-04_14-04-36
1772633076928699100,0.56569921875,-0.0442522525720298,-0.3685194241374731,0.6131254683583974,-0.1570068001747131,0.0223261043429374,0.0936338901519775,walking,2026-03-04_14-04-36
1772633076938648000,0.57564794921875,-0.055400144454278,-0.4190208002321421,0.6284446180433034,-0.1670202761888504,0.0470279864966869,0.0917718037962913,walking,2026-03-04_14-04-36
1772633076948597000,0.585596923828125,-0.0687212156571447,-0.4557363736890256,0.6425427015006542,-0.1658295542001724,0.0658521950244903,0.0998801812529563,walking,2026-03-04_14-04-36
1772633076958546000,0.5955458984375,0.0468242584845051,-0.4537843628384173,0.6690647977232933,-0.1585282385349273,0.0557979643344879,0.1282444447278976,walking,2026-03-04_14-04-36
1772633076968494800,0.605494873046875,0.1768120994765311,-0.3913873817667365,0.6602502076268195,-0.1416248530149459,0.0271097943186759,0.1468526870012283,walking,2026-03-04_14-04-36
1772633076978443800,0.61544384765625,0.2212152682939544,-0.3833355927363038,0.6311521234363318,-0.1152475774288177,0.0180185623466968,0.1554107517004013,walking,2026-03-04_14-04-36
1772633076988393000,0.62539306640625,0.2124482436662539,-0.4170753652527928,0.4916442840248346,-0.0909842923283577,0.0196597911417484,0.1656321883201599,walking,2026-03-04_14-04-36
1772633076998343000,0.635343017578125,0.1858773033332079,-0.4192461334206163,0.3346913888156413,-0.0820299461483955,0.031780369579792,0.1721867471933365,walking,2026-03-04_14-04-36
1772633077008291800,0.645291748046875,0.1516287045117467,-0.4337231331929564,0.2547954298019409,-0.0947468131780624,0.0373473167419433,0.1675205528736114,walking,2026-03-04_14-04-36
1772633077018241000,0.655240966796875,0.0944631212875247,-0.4807517186105251,0.1942220108956098,-0.1242256090044975,0.0241753179579973,0.1548447012901306,walking,2026-03-04_14-04-36
1772633077028187100,0.665187255859375,0.0461013145048171,-0.509404835512489,0.15501929679811,-0.1594883650541305,0.012825216166675,0.1457444727420807,walking,2026-03-04_14-04-36
1772633077038136000,0.675135986328125,0.0202422487681731,-0.5237133468501269,-0.0022018939584493,-0.189155176281929,0.0270848460495471,0.1384924203157425,walking,2026-03-04_14-04-36
1772633077048085000,0.6850849609375,-0.0630131767412647,-0.5112007790185511,-0.3015817308962344,-0.2056180387735366,0.077188491821289,0.1366162151098251,walking,2026-03-04_14-04-36
1772633077058034200,0.6950341796875,-0.1626663774851709,-0.4589480292119085,-0.6477192273557186,-0.2088367342948913,0.1366989612579345,0.1449527144432068,walking,2026-03-04_14-04-36
1772633077067983000,0.704983154296875,-0.2127032048080116,-0.4188581570163369,-0.9471990175366402,-0.2020954489707946,0.1932775527238845,0.1663116961717605,walking,2026-03-04_14-04-36
1772633077077932000,0.71493212890625,-0.2187604955529793,-0.3766077457860112,-1.1079174027591945,-0.1486551463603973,0.2556301355361938,0.220656156539917,walking,2026-03-04_14-04-36
1772633077087881200,0.724881103515625,-0.0927043679866939,-0.3545544655404984,-1.3923860862910746,-0.0554236471652984,0.3468609750270843,0.288747102022171,walking,2026-03-04_14-04-36
1772633077097830100,0.734830078125,0.0038863764466717,-0.3592424772262573,-1.606645507565141,0.062453456223011,0.4076079428195953,0.3720425069332123,walking,2026-03-04_14-04-36
1772633077107779000,0.744779052734375,0.1854736544357612,-0.5048081553719937,-1.5155974554181098,0.1674297153949737,0.3947018980979919,0.434971272945404,walking,2026-03-04_14-04-36
1772633077117728000,0.75472802734375,0.2688591360656544,-0.746109605089575,-1.260923021647334,0.2296344935894012,0.2735182046890259,0.4628971815109253,walking,2026-03-04_14-04-36
1772633077127677200,0.76467724609375,0.2398816825801506,-0.9782819919340312,-0.7827870384931563,0.2348236143589019,0.1055255681276321,0.4574379324913025,walking,2026-03-04_14-04-36
1772633077137626000,0.774626220703125,0.1254005132017657,-1.2415335537835954,-0.3717816408038139,0.1874891221523285,-0.0178307183086872,0.4060493111610412,walking,2026-03-04_14-04-36
1772633077147575000,0.784574951171875,-0.1980120142957195,-1.4282229772172867,-0.1911883422881364,0.1022196933627128,-0.0774718597531318,0.3284478187561035,walking,2026-03-04_14-04-36
1772633077157524200,0.794524169921875,-0.5102814722165465,-1.5141099933393298,-0.220844644883275,0.0043969908729195,-0.0887596681714057,0.2703741490840912,walking,2026-03-04_14-04-36
1772633077167473200,0.80447314453125,-0.5897056490000337,-1.452109464239329,-0.4298299251466989,-0.0845498293638229,-0.054366298019886,0.2389682233333587,walking,2026-03-04_14-04-36
1772633077177422000,0.814422119140625,-0.5379558802794665,-1.2697940181061624,-0.805069012928009,-0.1497964709997177,-0.010281128808856,0.2233258783817291,walking,2026-03-04_14-04-36
1772633077187371000,0.82437109375,-0.4379225576441735,-1.0003351260490716,-1.1720078898757695,-0.1856905817985534,0.0172447115182876,0.2139627188444137,walking,2026-03-04_14-04-36
1772633077197320000,0.83431982421875,-0.4106658270040527,-0.6854118291512131,-1.5124942287057637,-0.1856903135776519,0.0210058949887752,0.1928957849740982,walking,2026-03-04_14-04-36
1772633077207269000,0.84426904296875,-0.4316097943007946,-0.3189313634954392,-1.7600708131700753,-0.1417413800954818,0.0138982851058244,0.1818377375602722,walking,2026-03-04_14-04-36
1772633077217218000,0.854218017578125,-0.3725329340951517,0.039681729786098,-1.9743565379291768,-0.072423554956913,0.0091434763744473,0.1894264221191406,walking,2026-03-04_14-04-36
1772633077227167200,0.864167236328125,-0.2395409793836996,0.3979254052333533,-2.147543359580636,0.0059276102110743,0.0387841537594795,0.2131283730268478,walking,2026-03-04_14-04-36
1772633077237116200,0.8741162109375,-0.1037470093961805,0.6665924162603915,-2.170932418474555,0.0689939260482788,0.0720108076930046,0.2538358569145202,walking,2026-03-04_14-04-36
1772633077247065000,0.884065185546875,0.038364765436016,0.7975874250009656,-2.074807793715596,0.1262302100658416,0.0762119069695472,0.3063921928405761,walking,2026-03-04_14-04-36
1772633077257014000,0.894013916015625,0.1193981675144284,0.912709595696628,-1.8648013537108896,0.1921477019786834,0.1243078038096427,0.3455084562301636,walking,2026-03-04_14-04-36
1772633077266963000,0.903962890625,0.0907639745086431,0.9028143707565964,-1.675711445006728,0.2711799740791321,0.2169454544782638,0.3675909042358398,walking,2026-03-04_14-04-36
1772633077276911900,0.913911865234375,-0.035523221867159,0.8746464070230722,-1.4952210223436355,0.3396730422973633,0.3175607323646545,0.3724271953105926,walking,2026-03-04_14-04-36
1772633077286861000,0.923861083984375,-0.1854515156691893,0.8235255838558078,-1.108679034781456,0.3976421952247619,0.3920318782329559,0.3640497326850891,walking,2026-03-04_14-04-36
1772633077296810200,0.933810302734375,-0.1920147831749171,0.7230873336814343,-0.5477314974278211,0.4397643208503723,0.406778335571289,0.347950130701065,walking,2026-03-04_14-04-36
1772633077306760200,0.94376025390625,-0.0512820781435817,0.6432987805649638,0.0289256502330303,0.4746726453304291,0.3567531108856201,0.3338475525379181,walking,2026-03-04_14-04-36
1772633077316709000,0.953709228515625,0.182713140213862,0.6238615280367433,0.5587491505265235,0.5019308924674988,0.2863039672374725,0.3181570172309875,walking,2026-03-04_14-04-36
1772633077326658000,0.963657958984375,0.3509077065359801,0.6229280465789139,0.9397861109316348,0.5114967823028564,0.1733598113059997,0.3000211417675018,walking,2026-03-04_14-04-36
1772633077336607000,0.97360693359375,0.4196954846233129,0.6876157689362764,1.170535479235649,0.4682366251945495,0.0317201241850853,0.2588068544864654,walking,2026-03-04_14-04-36
1772633077346556200,0.98355615234375,0.4608118503224104,0.741570938746631,1.546807417196035,0.3834250569343567,-0.1210923269391059,0.2325139790773391,walking,2026-03-04_14-04-36
1772633077356505000,0.993505126953125,0.4438924988992512,0.8203829019159078,1.8092706051468848,0.2769121825695038,-0.2513656318187713,0.2206786274909973,walking,2026-03-04_14-04-36
1772633077366454000,1.0034541015625,0.4306873091610148,0.9276989289052784,1.7949392974555491,0.1616158634424209,-0.3177151978015899,0.1986435949802398,walking,2026-03-04_14-04-36
1772633077376403200,1.0134033203125,0.2997012509118765,1.057189962823689,1.5638468148022888,0.05589609593153,-0.3063339293003082,0.1763761043548584,walking,2026-03-04_14-04-36
1772633077386352000,1.02335205078125,0.1074843692936003,1.1333560876592994,1.1594710643857715,-0.0361825078725814,-0.2486825287342071,0.1569372415542602,walking,2026-03-04_14-04-36
1772633077396301000,1.033301025390625,-0.0424648211659863,1.1958169277474284,0.7236509589135647,-0.1212899461388588,-0.1902314722537994,0.1363227814435959,walking,2026-03-04_14-04-36
1772633077406250000,1.04325,-0.2137209670158103,1.250506403181702,0.3909095351219177,-0.1947587430477142,-0.1481676548719406,0.109363816678524,walking,2026-03-04_14-04-36
1772633077416199200,1.05319921875,-0.3994091775177046,1.2465085657171904,0.135867437082529,-0.2517024278640747,-0.1187626421451568,0.0705335959792137,walking,2026-03-04_14-04-36
1772633077426148000,1.063148193359375,-0.5383721694627777,1.1780766883954406,-0.1026361986100673,-0.2688233554363251,-0.0715123042464256,0.0255883950740098,walking,2026-03-04_14-04-36
1772633077436097000,1.073096923828125,-0.6199026343431323,1.151057456305623,-0.4152928657501936,-0.2402015626430511,0.0131029803305864,-0.008460383862257,walking,2026-03-04_14-04-36
1772633077446046200,1.083046142578125,-0.6434680727172643,1.1674649857491255,-0.7028209368526935,-0.1677422672510147,0.11770960688591,-0.0242954120039939,walking,2026-03-04_14-04-36
1772633077455995100,1.0929951171875,-0.5390582154981791,1.1905318269513547,-0.8793903866797685,-0.0677187293767929,0.2292324155569076,-0.0131218545138835,walking,2026-03-04_14-04-36
1772633077465944000,1.102944091796875,-0.3573804827466607,1.1929581773154436,-0.8718196591645478,0.0330181419849395,0.2930706739425659,0.0172113478183746,walking,2026-03-04_14-04-36
1772633077475893000,1.11289306640625,-0.1441372162451967,1.1800056106314063,-0.5470312402039766,0.1057972684502601,0.2948126494884491,0.0550751090049743,walking,2026-03-04_14-04-36
1772633077485842000,1.122842041015625,0.0400842096397653,1.0493445100203156,0.0124625912100076,0.1416749805212021,0.2574142515659332,0.084986075758934,walking,2026-03-04_14-04-36
1772633077495791000,1.132791015625,0.1565009867232293,0.8393950608998536,0.6337117447912692,0.1382139325141906,0.2035086750984192,0.1012454703450203,walking,2026-03-04_14-04-36
1772633077505740300,1.142740234375,0.1850509355116635,0.6073053839027881,1.1970377017140388,0.1043426096439361,0.151174396276474,0.1106865480542182,walking,2026-03-04_14-04-36
1772633077515689200,1.152689208984375,0.1883797876734286,0.3888590323328971,1.623776090586185,0.0559865310788154,0.1230559572577476,0.107947751879692,walking,2026-03-04_14-04-36
1772633077525638100,1.16263818359375,0.1281189418476075,0.164595080525428,1.877061115825176,0.0012474269606173,0.1139016598463058,0.0935894176363945,walking,2026-03-04_14-04-36
1772633077535587000,1.172587158203125,0.0478041728999465,-0.0555469690464437,1.9924147571891544,-0.0687732025980949,0.087978720664978,0.0541352182626724,walking,2026-03-04_14-04-36
1772633077545536000,1.182535888671875,-0.0062443012170493,-0.2273259697265922,2.114733561390638,-0.1537279039621353,0.0173505824059247,0.0077358847483992,walking,2026-03-04_14-04-36
1772633077555485000,1.19248486328125,-0.0030607027448713,-0.3539671671718359,2.2419097424954173,-0.2276029288768768,-0.0435585752129554,-0.0228092409670352,walking,2026-03-04_14-04-36
1772633077565433900,1.202433837890625,0.1249042175848036,-0.4416448661029338,2.1294179203033448,-0.2873726189136505,-0.0874105542898178,-0.0500280149281024,walking,2026-03-04_14-04-36
1772633077575383300,1.21238330078125,0.1407220375068485,-0.3960756857134401,1.8743319831222292,-0.3297595083713531,-0.1240473985671997,-0.0781371444463729,walking,2026-03-04_14-04-36
1772633077585332200,1.222332275390625,0.0799581375297159,-0.32085093338117,1.520248496094346,-0.3525055348873138,-0.1436348855495453,-0.0977436751127243,walking,2026-03-04_14-04-36
1772633077595281200,1.23228125,0.1035578069670125,-0.2544113989204168,1.1079080504089591,-0.34438157081604,-0.1386710107326507,-0.097359649837017,walking,2026-03-04_14-04-36
1772633077605230000,1.24222998046875,0.1573155910417437,-0.1191223462477326,0.6600637451440096,-0.3162094950675964,-0.1164945587515831,-0.0850440189242363,walking,2026-03-04_14-04-36
1772633077615179000,1.252178955078125,0.2055100419009104,0.0005414134003221,0.3077040131688118,-0.2755427658557892,-0.089898370206356,-0.071509838104248,walking,2026-03-04_14-04-36
1772633077625129000,1.26212890625,0.2229366487264633,0.0280265094362199,0.0213292037546634,-0.2473769783973693,0.0151843233034014,-0.075593464076519,walking,2026-03-04_14-04-36
1772633077635078100,1.272078125,0.113596422433108,-0.0494479215189814,-0.2202297278553247,-0.2408801913261413,0.1381475329399109,-0.0707049667835235,walking,2026-03-04_14-04-36
1772633077645027000,1.282027099609375,-0.0495653008209541,-0.0494606348700821,-0.2688742240369319,-0.2640347778797149,0.2386436313390731,-0.0590058788657188,walking,2026-03-04_14-04-36
1772633077654976300,1.291976318359375,-0.1231618308968841,-0.1036025594241917,-0.156134564563632,-0.2868455350399017,0.2511322498321533,-0.0594900399446487,walking,2026-03-04_14-04-36
1772633077664925200,1.30192529296875,-0.1495814165931195,-0.2130158509537577,0.0176139826238155,-0.2731277048587799,0.213319256901741,-0.0764148980379104,walking,2026-03-04_14-04-36
1772633077674874000,1.3118740234375,-0.215685581619665,-0.3380342695027589,0.040705519875884,-0.2086078375577926,0.1424687951803207,-0.115380935370922,walking,2026-03-04_14-04-36
1772633077684823000,1.321822998046875,-0.2642043325297534,-0.4729880988717079,-0.0558346999466419,-0.0985917076468467,0.048294261097908,-0.16549713909626,walking,2026-03-04_14-04-36
1772633077694772000,1.33177197265625,-0.2462864715885371,-0.571436928794533,-0.1466115339368581,0.0268716756254434,-0.0285709630697965,-0.214742973446846,walking,2026-03-04_14-04-36
1772633077704721000,1.341720947265625,-0.1438626005548983,-0.6690002080544829,-0.206140996748209,0.1226390600204467,-0.0874378979206085,-0.2591181397438049,walking,2026-03-04_14-04-36
1772633077714670000,1.351670166015625,-0.080557418597117,-0.7284433077566326,-0.072613985311985,0.1601022779941558,-0.1192059516906738,-0.2788196504116058,walking,2026-03-04_14-04-36
1772633077724619300,1.361619384765625,0.0566973081253468,-0.7861245123527943,0.1951613375723362,0.1424357742071151,-0.1151698231697082,-0.2795410752296448,walking,2026-03-04_14-04-36
1772633077734568200,1.371568115234375,0.1970849260460585,-0.8730550461784005,0.4188865063279867,0.0808336660265922,-0.0934943556785583,-0.2865608930587768,walking,2026-03-04_14-04-36
1772633077744517000,1.38151708984375,0.1803051292240619,-0.9671502109363674,0.599465191796422,-0.0069910907186567,-0.086487092077732,-0.298340231180191,walking,2026-03-04_14-04-36
1772633077754466000,1.391466064453125,0.1688687392566353,-1.082352461130917,0.7164888121992349,-0.0917365998029708,-0.1143128648400306,-0.3149298727512359,walking,2026-03-04_14-04-36
1772633077764415000,1.4014150390625,0.2443362143035977,-1.2127896898582575,0.6796048964381217,-0.1556157022714615,-0.1752403974533081,-0.3299635052680969,walking,2026-03-04_14-04-36
1772633077774364000,1.411364013671875,0.2686376388020813,-1.239814767166972,0.4550841933906078,-0.1777337789535522,-0.2242393642663955,-0.3432612121105194,walking,2026-03-04_14-04-36
1772633077784313000,1.42131298828125,0.2856415267035365,-1.2003504795238376,0.0195487500786781,-0.1541909724473953,-0.237186774611473,-0.342158704996109,walking,2026-03-04_14-04-36
1772633077794262300,1.43126220703125,0.3176455249359831,-1.0999214355692266,-0.5064198283523321,-0.090337686240673,-0.2256033569574356,-0.3215785920619964,walking,2026-03-04_14-04-36
1772633077804211200,1.441211181640625,0.4036654832553118,-0.9707295307278632,-1.0367688138246536,-0.0035129305906593,-0.1921219825744629,-0.2845438420772552,walking,2026-03-04_14-04-36
1772633077814160100,1.45116015625,0.5162343162063509,-0.8282162258900702,-1.4102525823712349,0.0896891877055168,-0.1426553726196289,-0.2271292507648468,walking,2026-03-04_14-04-36
1772633077824109000,1.461109130859375,0.6794777629271149,-0.7254204528041184,-1.5121943689763546,0.1981090307235717,-0.1053053140640258,-0.134989708662033,walking,2026-03-04_14-04-36
1772633077834058000,1.47105810546875,1.0148377717193215,-0.7965167270295321,-1.613871367165446,0.2965988516807556,-0.09225395321846,-0.0766893699765205,walking,2026-03-04_14-04-36
1772633077844007000,1.4810068359375,1.0852230481311678,-0.7440519419074058,-1.5138690241903066,0.3706585466861725,-0.1038555055856704,-0.0355142913758754,walking,2026-03-04_14-04-36
1772633077853956000,1.4909560546875,1.083967787373066,-0.833355488474667,-1.2551093669325113,0.4017120599746704,-0.1581187546253204,-0.0079308664426207,walking,2026-03-04_14-04-36
1772633077863905300,1.5009052734375,1.128326495994255,-1.0039565314166248,-0.905454802262783,0.3897040486335754,-0.2485921084880828,2.88705341517e-05,walking,2026-03-04_14-04-36
1772633077873854200,1.510854248046875,1.0305310884788632,-1.012765422424674,-0.6042278761535883,0.3496096432209015,-0.3230522274971008,-0.0051421895623207,walking,2026-03-04_14-04-36
1772633077883803100,1.52080322265625,0.8369609656207263,-0.9758208625175058,-0.4524421544492244,0.2824841439723968,-0.3762882649898529,-0.0211474522948265,walking,2026-03-04_14-04-36
1772633077893752000,1.530751953125,0.6171338272169232,-0.9082301121950148,-0.4220107758283615,0.2043099999427795,-0.4195095002651214,-0.0502864271402359,walking,2026-03-04_14-04-36
1772633077903701000,1.540700927734375,0.3450646065309644,-0.7894136170260607,-0.5357049595475196,0.1287402659654617,-0.4319559037685394,-0.0832735076546669,walking,2026-03-04_14-04-36
1772633077913650000,1.55064990234375,0.0946212344586849,-0.6238650351680814,-0.8034048791080712,0.055664986371994,-0.4292850196361542,-0.1220355480909347,walking,2026-03-04_14-04-36
1772633077923599000,1.56059912109375,-0.1473049595611169,-0.439453201277554,-1.0822855333745478,-0.0263310372829437,-0.417828232049942,-0.1614627093076706,walking,2026-03-04_14-04-36
1772633077933548000,1.570548095703125,-0.3593216068770736,-0.2405867255769669,-1.3024059556365013,-0.1068258732557296,-0.3842721581459045,-0.2042383998632431,walking,2026-03-04_14-04-36
1772633077943497200,1.580497314453125,-0.5418416722042486,-0.034761809040606,-1.4823071802347898,-0.1766816824674606,-0.3593098819255829,-0.2505455613136291,walking,2026-03-04_14-04-36
1772633077953446100,1.590446044921875,-0.6120654379114508,0.2295161732472479,-1.6073989562809463,-0.1861723810434341,-0.2364009916782379,-0.2594333291053772,walking,2026-03-04_14-04-36
1772633077963395000,1.60039501953125,-0.6210318575687707,0.5561315153740346,-1.869718936368823,-0.1298606395721435,-0.0993589907884597,-0.2390894442796707,walking,2026-03-04_14-04-36
1772633077973344000,1.610343994140625,-0.51446303221751,1.1032860896967351,-2.1831839972823857,-0.0223802514374256,-0.004887081682682,-0.2132218927145004,walking,2026-03-04_14-04-36
1772633077983293200,1.620293212890625,-0.3661242726292461,1.557034212177992,-2.116971695706248,0.1346120536327362,0.0810100436210632,-0.1168875098228454,walking,2026-03-04_14-04-36
1772633077993243000,1.630242919921875,0.0742296038150787,1.810092004532367,-1.9424656081497669,0.3056634068489074,0.109344482421875,-0.0126772159710526,walking,2026-03-04_14-04-36
1772633078003192000,1.640192138671875,0.4099150817019865,2.091814458096027,-1.554829395610094,0.4619744420051574,0.0838089734315872,0.0772481188178062,walking,2026-03-04_14-04-36
1772633078013141200,1.650141357421875,0.507721485535428,2.238097929122299,-0.9288245719343424,0.5783314108848572,0.0016565739642828,0.1460175961256027,walking,2026-03-04_14-04-36
1772633078023090200,1.660090087890625,0.6364483301483095,2.114232333870232,-0.2507376788437366,0.6394995450973511,-0.1108094751834869,0.18415467441082,walking,2026-03-04_14-04-36
1772633078033038800,1.670038818359375,0.5910377013213932,1.9750889438569543,0.3952490256309509,0.6382217407226562,-0.2258026450872421,0.1848164647817611,walking,2026-03-04_14-04-36
1772633078042988000,1.679988037109375,0.4636468545526266,1.743258502317965,0.9019336423993112,0.5610931515693665,-0.3203599154949188,0.1632143855094909,walking,2026-03-04_14-04-36
1772633078052937000,1.68993701171875,0.2894181226328015,1.497797594833374,1.29614221906662,0.4309892356395721,-0.3604381084442138,0.1129174008965492,walking,2026-03-04_14-04-36
1772633078062886000,1.699885986328125,0.0182791959337424,1.2280772753611209,1.4029402135312556,0.2730772495269775,-0.309183806180954,0.0406551510095596,walking,2026-03-04_14-04-36
1772633078072835000,1.7098349609375,-0.2916152673508971,1.071835743291676,1.3408832780689,0.1118398979306221,-0.1981025487184524,-0.026487935334444,walking,2026-03-04_14-04-36
1772633078082784000,1.719783935546875,-0.4767823035228997,0.9418588255524636,1.1781330947577953,-0.0322322510182857,-0.0662872865796089,-0.0840051472187042,walking,2026-03-04_14-04-36
1772633078092733000,1.72973291015625,-0.4997783079786226,0.9013865299105644,0.962149333909154,-0.1316187530755996,0.0437276363372802,-0.1152887716889381,walking,2026-03-04_14-04-36
1772633078102681900,1.739681884765625,-0.378376253295876,0.9201189951702952,0.7616337758272885,-0.1868279427289962,0.1051262840628624,-0.1250399351119995,walking,2026-03-04_14-04-36
1772633078112631000,1.749631103515625,-0.1832077553303912,0.9483318209588528,0.6267009892463684,-0.2035254389047622,0.1045867204666137,-0.1274476945400238,walking,2026-03-04_14-04-36
1772633078122580000,1.759580078125,-0.0299279956759884,0.9383566626504064,0.5489876349687576,-0.191591128706932,0.0616551302373409,-0.1367599964141845,walking,2026-03-04_14-04-36
1772633078132529000,1.76952880859375,0.0259263770855031,0.8576523098632692,0.4766939676523208,-0.1578840315341949,0.0288971867412328,-0.1507562398910522,walking,2026-03-04_14-04-36
1772633078142478000,1.77947802734375,0.022390083584981,0.7739198414266109,0.3633060734033584,-0.1142928898334503,0.0404648929834365,-0.1560521125793457,walking,2026-03-04_14-04-36
1772633078152427000,1.789427001953125,0.0007836520578246,0.7166802431181073,0.2807996396303177,-0.0836902409791946,0.0720486491918563,-0.154924526810646,walking,2026-03-04_14-04-36
1772633078162376000,1.7993759765625,-0.017848777760379,0.6247960324078798,0.3143850983679294,-0.0694911777973175,0.0999404266476631,-0.148065373301506,walking,2026-03-04_14-04-36
1772633078172324900,1.809324951171875,0.034627679533232,0.5215623062960804,0.4574368939965963,-0.0714209079742431,0.1271901577711105,-0.1252892166376114,walking,2026-03-04_14-04-36
1772633078182273800,1.819273681640625,0.0760581526827998,0.4492378054499626,0.622074498489499,-0.0893723219633102,0.1483883559703827,-0.0962957218289375,walking,2026-03-04_14-04-36
1772633078192223000,1.829222900390625,0.0751323613410815,0.3354990519367158,0.8185486722260713,-0.1199166551232338,0.1480365544557571,-0.0772706344723701,walking,2026-03-04_14-04-36
1772633078202172200,1.839172119140625,0.0265023686088621,0.193949331434071,0.9966402170538902,-0.1402640640735626,0.1414079666137695,-0.0617635548114776,walking,2026-03-04_14-04-36
1772633078212121000,1.84912109375,0.0035375082100741,0.0341293563559651,1.0217074382930993,-0.1396262347698211,0.1441001445055008,-0.0355838797986507,walking,2026-03-04_14-04-36
1772633078222070000,1.859070068359375,-0.0001329056646674,-0.1025773080296814,0.9391934057354928,-0.1347652971744537,0.1293360143899917,-0.0097015211358666,walking,2026-03-04_14-04-36
1772633078232019000,1.86901904296875,-0.0462437734491191,-0.1803324556224048,0.8874129496157169,-0.140903353691101,0.0807253345847129,0.0128099136054515,walking,2026-03-04_14-04-36
1772633078241967900,1.8789677734375,-0.1217774456000886,-0.307842398726195,0.9256371740698812,-0.1571991294622421,0.0184187963604927,0.0251269806176424,walking,2026-03-04_14-04-36
1772633078251916800,1.888916748046875,-0.1981389651436358,-0.4336151427738368,0.962857774439454,-0.1812160462141037,-0.0440951809287071,0.0346352644264698,walking,2026-03-04_14-04-36
1772633078261865700,1.89886572265625,-0.2941155962666496,-0.5043779472611845,0.9185685508579016,-0.2016706317663192,-0.0895017683506012,0.0304529443383216,walking,2026-03-04_14-04-36
1772633078271815200,1.908815185546875,-0.4948153152763843,-0.5047168238267302,0.7585287955492734,-0.2058978676795959,-0.1038410291075706,0.0203137584030628,walking,2026-03-04_14-04-36
1772633078281764000,1.91876416015625,-0.6583809796888381,-0.4808170389316976,0.5141133054643869,-0.1841174066066742,-0.081242062151432,0.0338417366147041,walking,2026-03-04_14-04-36
1772633078291713000,1.928713134765625,-0.6173232853744178,-0.384271412281692,0.2375508650124073,-0.141784057021141,-0.0431982725858688,0.0760411247611045,walking,2026-03-04_14-04-36
1772633078301662000,1.938661865234375,-0.4599294049320742,-0.2344781795687973,0.0583007977992296,-0.0933039709925651,-0.0047648400068283,0.1382382363080978,walking,2026-03-04_14-04-36
1772633078311611000,1.94861083984375,-0.2508575240974314,-0.1360319799944758,0.0426958169102668,-0.0524281747639179,0.0171005111187696,0.2080652564764022,walking,2026-03-04_14-04-36
1772633078321559800,1.958559814453125,-0.0365035564077086,-0.1025762851163744,0.2205401089787483,-0.0275858491659164,-0.0020716083236038,0.2628400325775146,walking,2026-03-04_14-04-36
1772633078331509000,1.968509033203125,0.0870491917692124,-0.1322989309459924,0.4879021748870611,-0.0198403112590312,-0.0385153666138649,0.2915390729904175,walking,2026-03-04_14-04-36
1772633078341458200,1.978458251953125,0.1217185915523208,-0.2122001506567001,0.769471629846096,-0.0217924769967794,-0.0516015253961086,0.3076978623867035,walking,2026-03-04_14-04-36
1772633078351407000,1.988406982421875,0.1449644791158847,-0.3003308540523052,0.9455378063261508,-0.0326469875872135,-0.0505887269973754,0.3167478144168854,walking,2026-03-04_14-04-36
1772633078361356000,1.99835595703125,0.178875900138542,-0.3278431303560734,1.0756541325360536,-0.0628688633441925,-0.049354001879692,0.3144047558307647,walking,2026-03-04_14-04-36
1772633078371306000,2.008305908203125,0.1856046056053601,-0.3804718738682567,1.183542260324955,-0.1044653058052063,-0.0453179813921451,0.2984439134597778,walking,2026-03-04_14-04-36
1772633078381255000,2.0182548828125,0.253666663234029,-0.4420752203442156,1.2311807943344115,-0.1357045173645019,-0.0347797721624374,0.2879042327404022,walking,2026-03-04_14-04-36
1772633078391203800,2.028203857421875,0.3215233892826363,-0.421381245753169,1.161408169928193,-0.152191087603569,-0.0021520545706152,0.2860117852687835,walking,2026-03-04_14-04-36
1772633078401152800,2.03815283203125,0.3665254007760435,-0.3375210592836141,0.9606360067367552,-0.1526078432798385,0.0515471883118152,0.2945954501628876,walking,2026-03-04_14-04-36
1772633078411102000,2.04810205078125,0.4427975432693958,-0.2496034141167998,0.7752648262947798,-0.1455840170383453,0.0964728519320488,0.3126687407493591,walking,2026-03-04_14-04-36
1772633078421051100,2.058051025390625,0.5147860536267981,-0.2191445629671216,0.6611778438657522,-0.1376939415931701,0.1323786675930023,0.3201270699501037,walking,2026-03-04_14-04-36
1772633078431000000,2.068,0.5374626899350434,-0.2568919636897742,0.5656202053397894,-0.1383320391178131,0.1577740460634231,0.3135437071323395,walking,2026-03-04_14-04-36
1772633078440949000,2.077948974609375,0.483189467151463,-0.3167608875885606,0.545027499166131,-0.1573928147554397,0.1627004295587539,0.3007734417915344,walking,2026-03-04_14-04-36
1772633078450898000,2.08789794921875,0.4544631388828158,-0.3906910700656473,0.5568482853412627,-0.1897917538881302,0.1498621255159378,0.2894880473613739,walking,2026-03-04_14-04-36
1772633078460846800,2.097846923828125,0.4499558905914425,-0.4511252266317606,0.5352168837696314,-0.2191222310066223,0.1479853987693786,0.2951353788375854,walking,2026-03-04_14-04-36
1772633078470795800,2.107795654296875,0.4489576733343303,-0.4390475430861115,0.3617950843185186,-0.2348798811435699,0.1517175585031509,0.3106043338775635,walking,2026-03-04_14-04-36
1772633078480745000,2.117744873046875,0.4176148058917373,-0.3694030751042068,0.0816863495618104,-0.2379567623138427,0.1469019204378128,0.3307658731937408,walking,2026-03-04_14-04-36
1772633078490694100,2.127694091796875,0.322486060302332,-0.3382299382053315,-0.2346510519176721,-0.2233312129974365,0.1444339603185653,0.3492687046527862,walking,2026-03-04_14-04-36
1772633078500643000,2.13764306640625,0.1492401654073968,-0.3019730683013796,-0.6139134038656949,-0.1780075877904892,0.1751244664192199,0.3638651967048645,walking,2026-03-04_14-04-36
1772633078510592000,2.147592041015625,-0.0481777919853106,-0.2651294845506549,-1.0635936923861502,-0.1128131225705146,0.2219047546386718,0.3908014595508575,walking,2026-03-04_14-04-36
1772633078520541000,2.157541015625,-0.1692463586636818,-0.2316821191094815,-1.4439911858439445,-0.0305656157433986,0.3112521469593048,0.4445146024227142,walking,2026-03-04_14-04-36
1772633078530489900,2.16748974609375,-0.2136796120921149,-0.2268849479608237,-1.627521706855297,0.0698432773351669,0.4237882792949676,0.5161784291267395,walking,2026-03-04_14-04-36
1772633078540438800,2.177438720703125,-0.277732269682642,-0.3042339989706873,-1.8307260656297208,0.1719246655702591,0.5279383659362793,0.5748276710510254,walking,2026-03-04_14-04-36
1772633078550388000,2.187387939453125,-0.3481192813938483,-0.4976463009186089,-1.8041607147872447,0.2536837160587311,0.5537595748901367,0.6194854378700256,walking,2026-03-04_14-04-36
1772633078560337200,2.197337158203125,-0.3502027731370181,-0.8138174059204757,-1.49681676710248,0.2946467697620392,0.4748855531215668,0.6435422301292419,walking,2026-03-04_14-04-36
1772633078570286000,2.2072861328125,-0.3665454206507653,-1.1114349093608558,-1.024628294175863,0.2915995717048645,0.3400867283344269,0.6340091824531555,walking,2026-03-04_14-04-36
1772633078580235000,2.217235107421875,-0.5276262825101614,-1.396071642936021,-0.628684272018075,0.2509754002094269,0.2019100338220596,0.562370240688324,walking,2026-03-04_14-04-36
1772633078590184000,2.227183837890625,-0.8579065038200467,-1.6449026113756,-0.4141764289408922,0.1736529022455215,0.0794515013694763,0.4318500459194183,walking,2026-03-04_14-04-36
1772633078600132900,2.2371328125,-1.1880101995192467,-1.8107767719261347,-0.3636222997456789,0.0629246905446052,-0.0027069950010627,0.2781148552894592,walking,2026-03-04_14-04-36
1772633078610081800,2.247081787109375,-1.4014093507021663,-1.8411109737828373,-0.4846294368267059,-0.0460310839116573,-0.0196984950453043,0.147067904472351,walking,2026-03-04_14-04-36
1772633078620031000,2.257031005859375,-1.4081582404404878,-1.6575040265344083,-0.8279197271615266,-0.1141742393374443,0.0394743606448173,0.0685536339879036,walking,2026-03-04_14-04-36
1772633078629980000,2.26697998046875,-1.2048029288880526,-1.2983965738646686,-1.3934692053526638,-0.1299348324537277,0.1509215384721756,0.0409528948366642,walking,2026-03-04_14-04-36
1772633078639929000,2.27692919921875,-0.9254211932316422,-0.8105183643750846,-1.9299106624811888,-0.0991681292653083,0.2657844424247741,0.0509650520980358,walking,2026-03-04_14-04-36
1772633078649878000,2.2868779296875,-0.6405597840551287,-0.3262840643458068,-2.300790970531106,-0.0295712053775787,0.341254711151123,0.0810494497418403,walking,2026-03-04_14-04-36
1772633078659827000,2.296826904296875,-0.3962563760425895,0.0869876708403229,-2.4088088621795176,0.0585478022694587,0.3544633686542511,0.118669718503952,walking,2026-03-04_14-04-36
1772633078669776000,2.30677587890625,-0.1792821793844923,0.4133437775090336,-2.303293893262744,0.1473269462585449,0.3035061955451965,0.1542886942625045,walking,2026-03-04_14-04-36
1772633078679725000,2.31672509765625,-0.0419329062463715,0.6432501191176474,-2.021384831085801,0.2125640958547592,0.208345353603363,0.1752535253763198,walking,2026-03-04_14-04-36
1772633078689674000,2.326674072265625,-0.0162567227959632,0.7780845598906279,-1.6532745722711086,0.2410953491926193,0.1121373400092125,0.166233941912651,walking,2026-03-04_14-04-36
1772633078699623000,2.336622802734375,-0.1167161253562197,0.8039977304346859,-1.3169044365882874,0.2334532439708709,0.0640414878726005,0.130272552371025,walking,2026-03-04_14-04-36
1772633078709572000,2.346572021484375,-0.3512749324131757,0.8032084797531366,-1.0777525661200285,0.2148667722940445,0.0795674473047256,0.0817968994379043,walking,2026-03-04_14-04-36
1772633078719521000,2.35652099609375,-0.5650739331012591,0.879518104712665,-0.947643254172802,0.216490238904953,0.1794664114713668,0.0566555522382259,walking,2026-03-04_14-04-36
1772633078729471000,2.366470947265625,-0.5748264616349712,1.0164794745117425,-0.9951976170301436,0.2491099685430526,0.3364459276199341,0.0799323841929435,walking,2026-03-04_14-04-36
1772633078739420000,2.376419921875,-0.4118086768962443,1.2244288358561697,-1.0061720155090093,0.2991373836994171,0.4189320802688598,0.1336012780666351,walking,2026-03-04_14-04-36
1772633078749368800,2.386368896484375,-0.1188086041234433,1.4486559627845883,-0.6944839011400937,0.3437927365303039,0.4393830299377441,0.1690815091133117,walking,2026-03-04_14-04-36
1772633078759317800,2.39631787109375,0.1785993482194841,1.4391172961972654,-0.1999164231449365,0.3799314796924591,0.3830460011959076,0.1904269605875015,walking,2026-03-04_14-04-36
1772633078769267200,2.40626708984375,0.2664105373371392,1.4194383438676594,0.2452770753502845,0.3980428576469421,0.2602998316287994,0.2076339125633239,walking,2026-03-04_14-04-36
1772633078779216100,2.416216064453125,0.3489250813513994,1.43068337598145,0.7201923428922892,0.4072771668434143,0.1407322883605957,0.2187011837959289,walking,2026-03-04_14-04-36
1772633078789165000,2.4261650390625,0.3886030848104506,1.4176289563581346,0.9633972881436348,0.3732025623321533,-0.0184315294027328,0.2094858437776565,walking,2026-03-04_14-04-36
1772633078799114000,2.436114013671875,0.3245342250037938,1.477288475289941,1.2766659497022628,0.3191654086112976,-0.1595662832260131,0.2108422964811325,walking,2026-03-04_14-04-36
1772633078809063000,2.44606298828125,0.3452092756986618,1.4345499882817268,1.4183172308832406,0.2559006810188293,-0.2185446470975875,0.2121451050043106,walking,2026-03-04_14-04-36
1772633078819011800,2.45601171875,0.2809871980916708,1.447091489946842,1.3452987564235923,0.1890588253736496,-0.2097194045782089,0.2075178921222686,walking,2026-03-04_14-04-36
1772633078828960800,2.465960693359375,0.104672526743263,1.440970961239934,1.1448019030421972,0.1136492788791656,-0.1756655573844909,0.1999912708997726,walking,2026-03-04_14-04-36
1772633078838910000,2.475909912109375,-0.0115180038362741,1.3594544152870771,0.9959031349509954,0.0264564882963895,-0.166161835193634,0.1705293506383896,walking,2026-03-04_14-04-36
1772633078848859100,2.485859130859375,-0.1685093313597142,1.1749591408967972,0.930870983070135,-0.0639732778072357,-0.1844724118709564,0.1203916072845459,walking,2026-03-04_14-04-36
1772633078858808000,2.49580810546875,-0.3474057993622496,1.0417077315315604,0.8572972128152847,-0.140797957777977,-0.2021484375,0.0684538558125495,walking,2026-03-04_14-04-36
1772633078868757000,2.505757080078125,-0.5390028685817495,0.9543860064312816,0.6772130328655243,-0.2085852622985839,-0.1854546666145324,0.001588538987562,walking,2026-03-04_14-04-36
1772633078878706000,2.515705810546875,-0.8220778692655265,0.9334770739153028,0.4549655354470014,-0.2641337513923645,-0.1547249853610992,-0.0780101493000984,walking,2026-03-04_14-04-36
1772633078888654800,2.52565478515625,-0.9783559339530764,0.8885755636543035,0.2284849305033683,-0.2892055511474609,-0.1361829936504364,-0.1461380720138549,walking,2026-03-04_14-04-36
1772633078898604000,2.53560400390625,-0.937727132575214,0.849924345959723,-0.0524877276062965,-0.2609528005123138,-0.0704157799482345,-0.1858853101730346,walking,2026-03-04_14-04-36
1772633078908553000,2.545552978515625,-0.8306888996139168,0.9136685038566588,-0.4529050957858562,-0.1900679767131805,0.0466442629694938,-0.2014501541852951,walking,2026-03-04_14-04-36
1772633078918502000,2.555501953125,-0.7414793149404227,1.0685957384571432,-0.7459896319717169,-0.1061136797070503,0.1703905016183853,-0.1966034919023513,walking,2026-03-04_14-04-36
1772633078928451000,2.565451171875,-0.6184196292437613,1.1043721313677728,-0.7767401595443487,-0.0410041846334934,0.2538276016712188,-0.1860328763723373,walking,2026-03-04_14-04-36
1772633078938400000,2.57539990234375,-0.4662312084900215,1.0257762951672076,-0.506917841002345,-0.0101005975157022,0.2883147299289703,-0.1819867342710495,walking,2026-03-04_14-04-36
1772633078948349000,2.585348876953125,-0.3686201810982078,0.8644310102179646,-0.0122901572525501,-0.0014450582675635,0.3021999299526214,-0.1792929470539093,walking,2026-03-04_14-04-36
1772633078958297900,2.5952978515625,-0.2622483030911535,0.7043247655443847,0.5248749379754066,-0.0119382888078689,0.299379825592041,-0.1682813465595245,walking,2026-03-04_14-04-36
1772633078968247000,2.6052470703125,-0.1716119735501706,0.5411886516556144,0.9986971495836972,-0.0340225547552108,0.2736576795578003,-0.1600124984979629,walking,2026-03-04_14-04-36
1772633078978196000,2.615196044921875,-0.1178045416474342,0.376769512218982,1.3883511316865682,-0.0561662688851356,0.2441397458314895,-0.1575895249843597,walking,2026-03-04_14-04-36
1772633078988145000,2.625144775390625,-0.0480827706456184,0.2326657233193516,1.7003361831754444,-0.0817137062549591,0.207272008061409,-0.154600128531456,walking,2026-03-04_14-04-36
1772633078998094000,2.635093994140625,0.0076900430459529,0.0832625128373503,1.9095897589862345,-0.0923454836010932,0.1739018410444259,-0.1412515640258789,walking,2026-03-04_14-04-36
1772633079008043000,2.64504296875,0.0996940076783299,-0.0468267792351543,1.995008280813694,-0.1279237270355224,0.0739193186163902,-0.1646423786878585,walking,2026-03-04_14-04-36
1772633079017992000,2.654991943359375,0.0892223710898309,-0.1287057287596166,2.1331056689053773,-0.1798203289508819,-0.0532089099287986,-0.1984641999006271,walking,2026-03-04_14-04-36
1772633079027940900,2.66494091796875,0.055380380307883,-0.3329071357473731,2.3076082493305203,-0.2360492497682571,-0.1811623573303222,-0.2400473207235336,walking,2026-03-04_14-04-36
1772633079037889500,2.6748896484375,0.0409243502583354,-0.473308709128201,2.2081360677093267,-0.2886532247066498,-0.266596108675003,-0.289023607969284,walking,2026-03-04_14-04-36
1772633079047838500,2.68483837890625,-0.0489757739625871,-0.4580648166365921,1.903076431569457,-0.3316195905208587,-0.2841354310512543,-0.3242335021495819,walking,2026-03-04_14-04-36
1772633079057787400,2.694787353515625,-0.0951755073405802,-0.4130798658758401,1.4495464818835258,-0.3700048923492431,-0.2609285116195678,-0.3468671143054962,walking,2026-03-04_14-04-36
1772633079067736300,2.704736328125,-0.1206152151539921,-0.3493018057093024,1.027165119177103,-0.4089309871196747,-0.226125493645668,-0.3609147667884826,walking,2026-03-04_14-04-36
1772633079077685200,2.714685302734375,-0.1744133677717298,-0.2632509773276746,0.739666858690977,-0.4373805820941925,-0.2057200819253921,-0.3691069483757019,walking,2026-03-04_14-04-36
1772633079087635200,2.72463525390625,-0.1749976704657077,-0.184294198860228,0.5223837056815623,-0.4501791894435882,-0.2005562037229538,-0.3756729662418365,walking,2026-03-04_14-04-36
1772633079097584400,2.73458447265625,-0.1601278719834983,-0.1535993469975888,0.2442120764672756,-0.4277300536632538,-0.16575288772583,-0.3825063407421112,walking,2026-03-04_14-04-36
1772633079107533600,2.744533447265625,-0.2561602153491228,-0.1208366028197109,-0.1306844814866781,-0.3718636035919189,-0.0979029983282089,-0.4031269252300262,walking,2026-03-04_14-04-36
1772633079117482500,2.754482421875,-0.3326359175905585,-0.0966013023599982,-0.4509650676339864,-0.2946736812591553,-0.0323987007141113,-0.4076641798019409,walking,2026-03-04_14-04-36
1772633079127431400,2.764431396484375,-0.2810748763751238,-0.135928081228584,-0.6320984643757342,-0.1999884694814682,0.0201265588402748,-0.4058889150619507,walking,2026-03-04_14-04-36
1772633079137380400,2.77438037109375,-0.1489427533634006,-0.1959983729183674,-0.7199708090960979,-0.1038052514195442,0.0329639390110969,-0.3973073065280914,walking,2026-03-04_14-04-36
1772633079147329300,2.784329345703125,-0.0016740706920623,-0.2605732825510203,-0.6295680691152811,-0.0264438837766647,0.0124533362686634,-0.3929229378700256,walking,2026-03-04_14-04-36
1772633079157278200,2.7942783203125,0.1458997324056923,-0.4114271302327513,-0.4093056080341339,0.0095573561266064,-0.0304757133126258,-0.4029343724250793,walking,2026-03-04_14-04-36
1772633079167227400,2.804227294921875,0.1936716104712337,-0.6252535669170319,-0.0860258400708437,0.0015857159160077,-0.1138480976223945,-0.4256109297275543,walking,2026-03-04_14-04-36
1772633079177176600,2.814176513671875,0.178475941035524,-0.8078820245221257,0.2076443870484828,-0.0205159652978181,-0.1815321743488311,-0.454759269952774,walking,2026-03-04_14-04-36
1772633079187125500,2.82412548828125,0.1788882481634617,-1.0242204440273344,0.2777513579756021,-0.0417397655546665,-0.2080396860837936,-0.4903832972049713,walking,2026-03-04_14-04-36
1772633079197074400,2.834074462890625,0.1852331602107733,-1.1183058180436491,0.1310474695801735,-0.061597678810358,-0.2073272168636322,-0.5068182349205017,walking,2026-03-04_14-04-36
1772633079207023400,2.8440234375,0.2232721642911434,-1.1182445893757045,-0.0788525874406099,-0.0628594830632209,-0.1848008632659912,-0.5103588700294495,walking,2026-03-04_14-04-36
1772633079216972300,2.85397216796875,0.3139087860930711,-1.096209429308772,-0.3212988232791424,-0.047247152775526,-0.1370911449193954,-0.5123796463012695,walking,2026-03-04_14-04-36
1772633079226921200,2.863921142578125,0.3635632630348205,-1.059384404128045,-0.5581482620239258,-0.017103899270296,-0.0825927555561065,-0.5018937587738037,walking,2026-03-04_14-04-36
1772633079236870400,2.873870361328125,0.4614846350174397,-1.0112292988985776,-0.703459819278121,0.0182297006249427,-0.0504443682730197,-0.4719727635383606,walking,2026-03-04_14-04-36
1772633079246819600,2.883819580078125,0.6224683201126754,-0.952830009160936,-0.737809248125553,0.0536723807454109,-0.0390076860785484,-0.4254587888717651,walking,2026-03-04_14-04-36
1772633079256768500,2.8937685546875,0.7960370537538081,-0.9251830005615947,-0.6926496714502572,0.1014892011880874,-0.0329030640423297,-0.3783853054046631,walking,2026-03-04_14-04-36
1772633079266717400,2.903717529296875,0.961784738380462,-0.937960795200616,-0.6620254006057977,0.1588976383209228,-0.0292263031005859,-0.3318391144275665,walking,2026-03-04_14-04-36
1772633079276666400,2.913666259765625,1.1266541788678617,-0.9842309634663164,-0.6578934153676033,0.2143493592739105,-0.0508897677063941,-0.2865606546401977,walking,2026-03-04_14-04-36
1772633079286615300,2.923615234375,1.2998041025750338,-1.0550568963177502,-0.5853390512883663,0.2503204047679901,-0.1021771878004074,-0.247374340891838,walking,2026-03-04_14-04-36
1772633079296564200,2.933564208984375,1.4420759998723864,-1.18903925030604,-0.4646270977616309,0.2597800493240356,-0.1856998056173324,-0.225631982088089,walking,2026-03-04_14-04-36
1772633079306513400,2.943513427734375,1.460391116502881,-1.3020223631463943,-0.3082277447819709,0.2367125451564788,-0.28184574842453,-0.2264615595340728,walking,2026-03-04_14-04-36
1772633079316462300,2.95346240234375,1.3364309748351573,-1.3534630659177898,-0.2693675605118275,0.1871226727962494,-0.3731880187988281,-0.2422429025173187,walking,2026-03-04_14-04-36
1772633079326411500,2.96341162109375,1.1116406610660254,-1.3183030513398348,-0.3603957389146089,0.123547151684761,-0.4129769802093506,-0.2528729140758514,walking,2026-03-04_14-04-36
1772633079336360400,2.9733603515625,0.8311985296364873,-1.176606323581934,-0.7104810962170363,0.0725097358226776,-0.3727525174617767,-0.2507660090923309,walking,2026-03-04_14-04-36
1772633079346309400,2.983309326171875,0.5835830014012754,-0.9652177815690636,-1.2104881349176169,0.0349698141217231,-0.3144407272338867,-0.2373812198638916,walking,2026-03-04_14-04-36
1772633079356258300,2.99325830078125,0.3477273594668135,-0.6904178207449615,-1.6916840901643038,-0.0191203616559505,-0.2982325851917267,-0.230376198887825,walking,2026-03-04_14-04-36
1772633079366207500,3.00320751953125,0.1763938375318423,-0.4384739809818566,-1.791850683790445,-0.0374554246664047,-0.2638871371746063,-0.1814222484827041,walking,2026-03-04_14-04-36
1772633079376156400,3.013156494140625,0.1115640032900497,-0.2806875575579702,-1.9819296035319565,-0.0428346469998359,-0.2393479943275451,-0.167275846004486,walking,2026-03-04_14-04-36
1772633079386105300,3.023105224609375,-0.1021263493917882,-0.0063430854164063,-2.2334365131825207,-0.0334339514374733,-0.1901120096445083,-0.1596419066190719,walking,2026-03-04_14-04-36
1772633079396054300,3.03305419921875,-0.4203272066555917,0.2449526657015085,-2.2306021665394304,-0.0121330227702856,-0.1181012317538261,-0.1643324345350265,walking,2026-03-04_14-04-36
1772633079406003500,3.04300341796875,-0.5720202451078221,0.3492744793109595,-2.322255783364177,0.0250327214598655,-0.0292541868984699,-0.1917813569307327,walking,2026-03-04_14-04-36
1772633079415952400,3.052952392578125,-0.7023812302611768,0.5270356231406331,-2.282410679709911,0.0809812322258949,0.0702632069587707,-0.2218077033758163,walking,2026-03-04_14-04-36
1772633079425901300,3.0629013671875,-0.7278839933734387,0.7396377787269651,-2.1054601216107605,0.1515201181173324,0.1611023098230362,-0.2379627078771591,walking,2026-03-04_14-04-36
1772633079435850500,3.0728505859375,-0.5437945233050734,1.0086994881600142,-1.834043227353692,0.2391377389430999,0.2200723141431808,-0.2159988582134246,walking,2026-03-04_14-04-36
1772633079445799400,3.08279931640625,-0.2271148477265611,1.3315880648486316,-1.4557722245305775,0.3443517684936523,0.2246966212987899,-0.1599728763103485,walking,2026-03-04_14-04-36
1772633079455748400,3.092748291015625,0.1468722306996583,1.6398716314710675,-1.089987778314948,0.4732131958007812,0.2256988734006881,-0.0759402588009834,walking,2026-03-04_14-04-36
1772633079465697300,3.102697265625,0.431581518054381,1.8953527054496109,-0.8189759577274323,0.6127634048461914,0.2310142815113067,0.016344130039215,walking,2026-03-04_14-04-36
1772633079475646500,3.112646484375,0.5402559373827651,2.061341140029579,-0.5317278726100921,0.7328997254371643,0.2008765935897827,0.0853130295872688,walking,2026-03-04_14-04-36
1772633079485596400,3.122596435546875,0.4821866833170876,2.057945360111445,-0.1706640251755714,0.8090975284576416,0.1449363529682159,0.1194374412298202,walking,2026-03-04_14-04-36
1772633079495545300,3.13254541015625,0.312650712323375,1.9306785781137643,0.2674251942723989,0.8306792974472046,0.0836637392640113,0.1097764149308204,walking,2026-03-04_14-04-36
1772633079505494300,3.142494384765625,0.0082773414146155,1.6764324527576564,0.710531949621439,0.7835032939910889,0.0505406782031059,0.0480552613735199,walking,2026-03-04_14-04-36
1772633079515443200,3.152443115234375,-0.4284343791350722,1.4124611983314157,1.0687918455511332,0.6739788055419922,0.0351668037474155,-0.0520238801836967,walking,2026-03-04_14-04-36
1772633079525392400,3.162392333984375,-0.8436379591666161,1.1880614913150669,1.4050912540853022,0.4918377697467804,0.0024626529775559,-0.1857984513044357,walking,2026-03-04_14-04-36
1772633079535341600,3.172341552734375,-1.0769295592993495,0.9622463645428418,1.6851526425689458,0.2802079319953918,-0.0005804421380162,-0.3026312291622162,walking,2026-03-04_14-04-36
1772633079545290500,3.18229052734375,-1.1357575227778405,0.8000877173840999,1.8448627275317904,0.0806575492024421,0.0640992224216461,-0.3823795914649963,walking,2026-03-04_14-04-36
1772633079555239400,3.192239501953125,-1.0994828249562532,0.8280255256235599,1.712252830940485,-0.0831631496548652,0.1512725502252578,-0.4258524179458618,walking,2026-03-04_14-04-36
1772633079565188400,3.202188232421875,-1.0058459984250363,1.0072183096915484,1.451168530127406,-0.1983155608177185,0.2076655179262161,-0.431551069021225,walking,2026-03-04_14-04-36
1772633079575137300,3.21213720703125,-0.7718624705053866,1.175613805413246,1.2042390113949777,-0.2646910548210144,0.2226515710353851,-0.4016873240470886,walking,2026-03-04_14-04-36
1772633079585086500,3.22208642578125,-0.5075200446791946,1.2567030658647418,0.9326169499546288,-0.2859840989112854,0.1971552670001983,-0.3547832071781158,walking,2026-03-04_14-04-36
1772633079595035400,3.232035400390625,-0.325918518969044,1.284351535768807,0.6997644718915224,-0.2704117000102997,0.1536747515201568,-0.3025658428668976,walking,2026-03-04_14-04-36
1772633079604984300,3.241984375,-0.2415566665876656,1.2335492770314216,0.4847498483359813,-0.2255702018737793,0.0850802436470985,-0.2572649419307709,walking,2026-03-04_14-04-36
1772633079614933500,3.25193359375,-0.2219990025501698,1.1258958347812291,0.3579009994894266,-0.162409171462059,0.048946164548397,-0.2323661595582962,walking,2026-03-04_14-04-36
1772633079624882400,3.26188232421875,-0.2174248995676636,0.956818786536157,0.1892892306685447,-0.096892736852169,0.0402426868677139,-0.1988766491413116,walking,2026-03-04_14-04-36
1772633079634831400,3.271831298828125,-0.2270540939826518,0.841003957401216,0.0814537098497152,-0.0433047376573085,0.0383463501930236,-0.1517660170793533,walking,2026-03-04_14-04-36
1772633079644780300,3.2817802734375,-0.1529128991033881,0.7628828991055489,0.1410755271196365,-0.0173383820801973,0.0474120154976844,-0.0949370861053466,walking,2026-03-04_14-04-36
1772633079654729500,3.2917294921875,0.0251032424006611,0.5888035125285387,0.3037631665885448,-0.0207764003425836,0.0459272041916847,-0.0318333283066749,walking,2026-03-04_14-04-36
1772633079664678400,3.301678466796875,0.1560897025085985,0.3801350431293249,0.5445464376509189,-0.0443624183535575,0.033874537795782,0.0218663867563009,walking,2026-03-04_14-04-36
1772633079674627300,3.31162744140625,0.1458067203599959,0.1789846942752599,0.7783113543838263,-0.0724119693040847,0.0170302633196115,0.0589116513729095,walking,2026-03-04_14-04-36
1772633079684576300,3.321576171875,0.1195999006316065,-0.0429582672387361,0.9414894077181816,-0.0956917256116867,-0.0023804532829672,0.0797314420342445,walking,2026-03-04_14-04-36
1772633079694525400,3.331525390625,0.0276004660438746,-0.2553486797705293,0.9884989961743356,-0.1096129491925239,-0.044922836124897,0.0806459262967109,walking,2026-03-04_14-04-36
1772633079704474400,3.341474365234375,-0.0628280659653246,-0.3829899941690265,0.9893056363821028,-0.1141341999173164,-0.0906889885663986,0.0698590576648712,walking,2026-03-04_14-04-36
1772633079714423300,3.35142333984375,-0.165119104399532,-0.4870831135891377,0.904125014963746,-0.1017069742083549,-0.095482513308525,0.045578483492136,walking,2026-03-04_14-04-36
1772633079724372500,3.36137255859375,-0.2922472816441208,-0.5349636396609246,0.7274982819914817,-0.0939121693372726,-0.0926686078310012,0.01555160805583,walking,2026-03-04_14-04-36
1772633079734321400,3.3713212890625,-0.4047225180275738,-0.5573363611191511,0.6153665252834558,-0.1001296415925026,-0.0992284938693046,-0.0090700918808579,walking,2026-03-04_14-04-36
1772633079744270300,3.381270263671875,-0.4312338736604899,-0.5315764814406633,0.6175771870702504,-0.1176886558532714,-0.1027867421507835,-0.0080671459436416,walking,2026-03-04_14-04-36
1772633079754219300,3.39121923828125,-0.3333974034823477,-0.4937167063847184,0.6233803203910588,-0.1344003528356552,-0.1081321537494659,0.0034520050976425,walking,2026-03-04_14-04-36
1772633079764168400,3.40116845703125,-0.2836836706340312,-0.3555478604920208,0.5805050552606582,-0.1392441093921661,-0.0974741876125335,0.0262489300221204,walking,2026-03-04_14-04-36
1772633079774117400,3.411117431640625,-0.2827358683899045,-0.254959388191998,0.4269529084056616,-0.1291477978229522,-0.0676195546984672,0.0536050498485565,walking,2026-03-04_14-04-36
1772633079784066600,3.421066650390625,-0.2550113375749439,-0.1887920948013663,0.2586234636574983,-0.1098244190216064,-0.0219591259956359,0.0835789293050766,walking,2026-03-04_14-04-36
1772633079794015500,3.431015380859375,-0.2701449015598744,-0.1361607209406793,0.153827456665039,-0.0898392572999,0.0135540608316659,0.1150798946619033,walking,2026-03-04_14-04-36
1772633079803964400,3.44096435546875,-0.2779769834250211,-0.1555998731650412,0.1838034927338361,-0.0829565823078155,0.0263231191784143,0.1309920251369476,walking,2026-03-04_14-04-36
1772633079813913300,3.450913330078125,-0.3087058106224983,-0.2306653432823717,0.3495101877629756,-0.0926522314548492,0.0218834653496742,0.1329565644264221,walking,2026-03-04_14-04-36
1772633079823862300,3.4608623046875,-0.3085912443321198,-0.330142493339628,0.5542746354609728,-0.1158811151981353,0.0056925108656287,0.1276094764471054,walking,2026-03-04_14-04-36
1772633079833811200,3.470811279296875,-0.2956757217228412,-0.404487978619337,0.7493693375378847,-0.1391142159700393,0.0011333646252751,0.1191675439476966,walking,2026-03-04_14-04-36
1772633079843760400,3.480760498046875,-0.3342541664421558,-0.426451242493838,0.8498270230650902,-0.1514377295970916,0.01021927036345,0.1203473210334777,walking,2026-03-04_14-04-36
1772633079853710300,3.49071044921875,-0.2160075801156461,-0.3800447344973683,0.8266460539638996,-0.1450812518596649,0.0216787103563547,0.1463673710823059,walking,2026-03-04_14-04-36
1772633079863659300,3.5006591796875,-0.0531646039545536,-0.3033060704708099,0.7370487851470708,-0.1248316317796707,0.0430111624300479,0.188092440366745,walking,2026-03-04_14-04-36
1772633079873608400,3.5106083984375,0.0913610636189579,-0.2625264624454081,0.6083259591221809,-0.0922712683677673,0.0674372687935829,0.2309472113847732,walking,2026-03-04_14-04-36
1772633079883557400,3.520557373046875,0.1720506572283804,-0.2969260140448808,0.5259855295658111,-0.0614845976233482,0.0796883404254913,0.260680079460144,walking,2026-03-04_14-04-36
1772633079893506300,3.53050634765625,0.191468547469005,-0.3909561507426202,0.5342237810790539,-0.0459344945847988,0.066863052546978,0.2713658511638641,walking,2026-03-04_14-04-36
1772633079903455500,3.54045556640625,0.1837610418315976,-0.5218431690640747,0.5763555343657731,-0.0479696840047836,0.0264836680144071,0.2599848210811615,walking,2026-03-04_14-04-36
1772633079913404400,3.550404296875,0.1463556594796478,-0.6698116705678403,0.6302186419785022,-0.07340057939291,-0.0223524179309606,0.2380725592374801,walking,2026-03-04_14-04-36
1772633079923353300,3.560353271484375,0.0765668145909905,-0.7856516341440379,0.6110884095728397,-0.1063934192061424,-0.0847862362861633,0.210771158337593,walking,2026-03-04_14-04-36
1772633079933302500,3.570302490234375,0.0204665225107222,-0.8006224087826908,0.4574631974816322,-0.132058560848236,-0.1293789446353912,0.1864582300186157,walking,2026-03-04_14-04-36
1772633079943251500,3.58025146484375,-0.0334707463167607,-0.7525446065731346,0.1397825646996498,-0.144219622015953,-0.1341944634914398,0.1784378439188003,walking,2026-03-04_14-04-36
1772633079953200400,3.590200439453125,-0.1226284546725451,-0.6219372819758952,-0.3185620917916297,-0.1424676924943924,-0.1103735119104385,0.1755418479442596,walking,2026-03-04_14-04-36
1772633079963149300,3.6001494140625,-0.2661770939074456,-0.4631228306785225,-0.7770558013647795,-0.125570997595787,-0.0669280365109443,0.1839915215969085,walking,2026-03-04_14-04-36
1772633079973098200,3.61009814453125,-0.3776215259384363,-0.3498259757138788,-1.1757844858050346,-0.1094755306839943,-0.011596237309277,0.2023385018110275,walking,2026-03-04_14-04-36
1772633079983047400,3.62004736328125,-0.4642714892569929,-0.2312389053866267,-1.3597843778938057,-0.0419782400131225,0.1154509261250495,0.2824946045875549,walking,2026-03-04_14-04-36
1772633079992996400,3.629996337890625,-0.4124355766229331,-0.2311411441005766,-1.71336225348711,0.0529729537665843,0.2588853538036346,0.356144517660141,walking,2026-03-04_14-04-36
1772633080002945500,3.639945556640625,-0.437637530157715,-0.2052057617247104,-2.0159248121142386,0.1634770929813385,0.3553586304187774,0.4336899220943451,walking,2026-03-04_14-04-36
1772633080012894500,3.64989453125,-0.3751318280145526,-0.3814357504643499,-1.970382373601198,0.2671599686145782,0.3421918451786041,0.5062623023986816,walking,2026-03-04_14-04-36
1772633080022843400,3.659843505859375,-0.1834563597965985,-0.765352650219947,-1.6978355985313651,0.3408261835575104,0.2244170159101486,0.5582213401794434,walking,2026-03-04_14-04-36
1772633080032793000,3.66979296875,-0.1047210420601069,-1.0475051657639445,-1.217257482922077,0.3744925260543823,0.0523043051362037,0.5857492089271545,walking,2026-03-04_14-04-36
1772633080042742000,3.679741943359375,-0.1814927315734326,-1.3331130824588238,-0.7898200058698653,0.3667581677436828,-0.0903396606445312,0.5519872307777405,walking,2026-03-04_14-04-36
1772633080052691000,3.68969091796875,-0.4710830689679831,-1.6327838651672004,-0.6125707570850849,0.335934966802597,-0.1503698229789734,0.4485195279121399,walking,2026-03-04_14-04-36
1772633080062639900,3.699639892578125,-0.93520755096972,-1.839754444607347,-0.6528671116381883,0.2766942977905273,-0.1408671289682388,0.2839862406253814,walking,2026-03-04_14-04-36
1772633080072588800,3.7095888671875,-1.326357470718771,-1.9154044366143643,-0.8103016528844833,0.1868353635072708,-0.097808189690113,0.1209552884101867,walking,2026-03-04_14-04-36
1772633080082538000,3.7195380859375,-1.4309868889726698,-1.802530483236909,-0.9440724099487066,0.0948556512594223,-0.0338153578341007,0.0094330254942178,walking,2026-03-04_14-04-36
1772633080092487000,3.72948681640625,-1.1864740029279142,-1.4193451126262544,-1.0429290900200603,0.0221710707992315,0.0071965204551815,-0.0277296211570501,walking,2026-03-04_14-04-36
1772633080102436000,3.73943603515625,-0.7123263587575406,-0.8437222764492034,-1.2083885322898626,-0.0182908698916435,0.0280192457139492,-0.020287949591875,walking,2026-03-04_14-04-36
1772633080112385000,3.749385009765625,-0.294679258031398,-0.2452672846086323,-1.4059575155258175,-0.0272203665226697,0.0278123617172241,-0.0036069694906473,walking,2026-03-04_14-04-36
1772633080122334000,3.759333984375,-0.0583715249478817,0.2261959427833557,-1.6059294682502745,-0.0150273498147726,0.0097358888015151,0.0139504512771964,walking,2026-03-04_14-04-36
1772633080132283000,3.769282958984375,0.0822748169742524,0.6284698986150324,-1.7208926489919425,0.0118984729051589,-0.0204379744827747,0.0367565527558326,walking,2026-03-04_14-04-36
1772633080142232000,3.779232177734375,0.1943854578290134,0.9541795240737496,-1.8138690388530487,0.046530220657587,-0.0411144904792308,0.0593960843980312,walking,2026-03-04_14-04-36
1772633080152181000,3.789180908203125,0.2300687656287103,1.2363617041036483,-1.8955407753676172,0.0830104947090148,-0.0355116687715053,0.0745596215128898,walking,2026-03-04_14-04-36
1772633080162130000,3.7991298828125,0.1502395151756703,1.4398989480942488,-1.9199930795788764,0.1240503340959549,0.0258707292377948,0.0858596861362457,walking,2026-03-04_14-04-36
1772633080172078800,3.809078857421875,0.0393155998874455,1.5594237376630304,-1.898416623064876,0.1686486601829528,0.1494708359241485,0.0925517752766609,walking,2026-03-04_14-04-36
1772633080182028000,3.819028076171875,-0.0421992655649781,1.7139575890317558,-1.7881588435351847,0.2127713859081268,0.3091747462749481,0.1053517311811447,walking,2026-03-04_14-04-36
1772633080191977000,3.82897705078125,-0.1080433183506131,1.836535044169426,-1.5240221694141625,0.2590935528278351,0.4751231968402862,0.1347032934427261,walking,2026-03-04_14-04-36
1772633080201926000,3.83892578125,0.0080519351609051,1.8582234366253016,-1.0744500174432992,0.3041734397411346,0.5783722996711731,0.1789964586496353,walking,2026-03-04_14-04-36
1772633080211875000,3.848875,0.2333999558780342,1.8617232614398,-0.4195902706831693,0.3518383204936981,0.598143458366394,0.2206890434026718,walking,2026-03-04_14-04-36
1772633080221824000,3.858823974609375,0.4542787222266197,1.7848735382542014,0.2131131738483905,0.4135967493057251,0.5544167757034302,0.2610961496829986,walking,2026-03-04_14-04-36
1772633080231773000,3.86877294921875,0.6274035845577717,1.626236927741766,0.7170844400048255,0.4730382859706878,0.4964554011821747,0.2786758244037628,walking,2026-03-04_14-04-36
1772633080241723100,3.87872314453125,0.6158006058517843,1.5295318727463485,1.1271955192029477,0.4970248341560364,0.395303726196289,0.2785013914108276,walking,2026-03-04_14-04-36
1772633080251672000,3.888672119140625,0.5724881914131343,1.4367863690316676,1.6347884829878807,0.4660249352455139,0.2168639898300171,0.2579149007797241,walking,2026-03-04_14-04-36
1772633080261621000,3.89862109375,0.5411858021114021,1.29703712207973,2.1043881084650757,0.3952804505825043,0.0302898548543453,0.2245060950517654,walking,2026-03-04_14-04-36
1772633080271570000,3.90856982421875,0.4984168468996882,1.184659281656146,2.453009238433838,0.2772465348243713,-0.1531030684709549,0.1726509034633636,walking,2026-03-04_14-04-36
1772633080281518800,3.918518798828125,0.4289190208468586,1.1397960575789212,2.627132464152574,0.1406114548444748,-0.2755983471870422,0.1481636762619018,walking,2026-03-04_14-04-36
1772633080291468000,3.928468017578125,0.3889445917245,1.133854684831202,2.617726922425628,0.0001548854634165,-0.3088333904743194,0.146619364619255,walking,2026-03-04_14-04-36
1772633080301417000,3.9384169921875,0.3734802614152431,1.1334104481950402,2.327928568303585,-0.1397409737110138,-0.3137621283531189,0.145071268081665,walking,2026-03-04_14-04-36
1772633080311366100,3.9483662109375,0.2593866300497204,1.140350476591289,1.9716437718391415,-0.2507325112819671,-0.3222350478172302,0.1279478967189788,walking,2026-03-04_14-04-36
1772633080321315000,3.958315185546875,0.1097273259148001,1.0874781335815786,1.544594417321682,-0.3213627338409424,-0.3177306056022644,0.1048537567257881,walking,2026-03-04_14-04-36
1772633080331264000,3.968263916015625,-0.0405873003236949,1.0631266593962907,1.045361870124936,-0.354882150888443,-0.2997760772705078,0.0804155468940734,walking,2026-03-04_14-04-36
1772633080341213000,3.978212890625,-0.2036948457051068,1.0751166646584869,0.5806073465913534,-0.3788218200206756,-0.3079732656478882,0.0377285368740558,walking,2026-03-04_14-04-36
1772633080351161900,3.988161865234375,-0.4035615114241838,1.0785992460772396,0.2882733365118503,-0.391338437795639,-0.3019044697284698,-0.0120461108162999,walking,2026-03-04_14-04-36
1772633080361111000,3.998111083984375,-0.534774546829611,1.0623507065877318,0.069611296364665,-0.382419228553772,-0.3019497394561767,-0.0659365057945251,walking,2026-03-04_14-04-36
1772633080371060000,4.00806005859375,-0.5786123003166168,1.070228308095038,-0.2563520115941762,-0.357414186000824,-0.2490912228822708,-0.0991038456559181,walking,2026-03-04_14-04-36
1772633080381009000,4.0180087890625,-0.4844065147910267,1.1302388324216008,-0.4261252254098653,-0.3040817081928253,-0.1591751873493194,-0.0914890691637992,walking,2026-03-04_14-04-36
1772633080390958000,4.0279580078125,-0.3284772635411471,1.202205167479813,-0.6957838778227567,-0.2559621930122375,-0.0613169856369495,-0.0677511692047119,walking,2026-03-04_14-04-36
1772633080400907000,4.037906982421875,-0.1090855208799242,1.2593532881125806,-0.6664443860918283,-0.193879097700119,0.0385259911417961,-0.0055296039208769,walking,2026-03-04_14-04-36
1772633080410856000,4.04785595703125,0.1446844383317977,1.1730752268463374,-0.5317652820110321,-0.1329690068960189,0.1264069378376007,0.0578230060636997,walking,2026-03-04_14-04-36
1772633080420804900,4.057804931640625,0.300700564147532,1.0561109354153275,-0.3046452101200819,-0.1013101488351821,0.1473825275897979,0.0958702564239502,walking,2026-03-04_14-04-36
1772633080430754000,4.067754150390625,0.2995920914489776,0.8542968619555235,0.2198795992434024,-0.1028020977973938,0.116218164563179,0.1095324456691742,walking,2026-03-04_14-04-36
1772633080440703000,4.077702880859375,0.2797462581198662,0.4835264440208673,0.7605132473647594,-0.1211834996938705,0.0631639957427978,0.0952983871102333,walking,2026-03-04_14-04-36
1772633080450652000,4.08765185546875,0.2183515128932893,0.1248287411957979,1.1748983506202697,-0.150226205587387,0.0075351940467953,0.0662911608815193,walking,2026-03-04_14-04-36
1772633080460600800,4.097600830078125,0.1889176939424127,-0.099042850293219,1.4100193581372498,-0.178548663854599,-0.0404509752988815,0.0366642959415912,walking,2026-03-04_14-04-36
1772633080470550000,4.107550048828125,0.2222812535576522,-0.2728957346379757,1.532807533416152,-0.2063619494438171,-0.0807095766067504,0.0103924917057156,walking,2026-03-04_14-04-36
1772633080480499000,4.1174990234375,0.3142993928458541,-0.4155319352030754,1.5600000762462616,-0.2297708690166473,-0.1109279319643974,-0.011990045197308,walking,2026-03-04_14-04-36
1772633080490448000,4.12744775390625,0.3728706781495362,-0.4959909349270164,1.4785475354403257,-0.2456476390361786,-0.1385954171419143,-0.0273662563413381,walking,2026-03-04_14-04-36
1772633080500397000,4.13739697265625,0.4269661697460338,-0.5256814320527017,1.3585183034807442,-0.2589501142501831,-0.1731680482625961,-0.0319801829755306,walking,2026-03-04_14-04-36
1772633080510346000,4.147345947265625,0.5031024474326521,-0.5517486241146922,1.2106652450501918,-0.2617805898189544,-0.1991357207298278,-0.0365748144686222,walking,2026-03-04_14-04-36
1772633080520295000,4.157294921875,0.5528441642664372,-0.5687384834907948,1.007012557986379,-0.2590034604072571,-0.2133349031209945,-0.0399892553687095,walking,2026-03-04_14-04-36
1772633080530243800,4.167243896484375,0.5016894753621891,-0.5532224960595369,0.8057125715285539,-0.2623482346534729,-0.2309446036815643,-0.0525323115289211,walking,2026-03-04_14-04-36
1772633080540193000,4.177193115234375,0.4457969077484682,-0.5548102036423981,0.6171025552958249,-0.268760621547699,-0.2453797310590744,-0.068755492568016,walking,2026-03-04_14-04-36
1772633080550142000,4.187141845703125,0.3903845248671248,-0.5959801261596381,0.4338648797512054,-0.2687074244022369,-0.2446114122867584,-0.0908341333270073,walking,2026-03-04_14-04-36
1772633080560091100,4.197091064453125,0.2746635114954784,-0.6094404962353408,0.1837742666393518,-0.248464748263359,-0.2096638083457946,-0.1084160581231117,walking,2026-03-04_14-04-36
1772633080570040000,4.2070400390625,0.2044518746174871,-0.5574092802248894,-0.0994558150082826,-0.2104052603244781,-0.1663230508565902,-0.1078314259648323,walking,2026-03-04_14-04-36
1772633080579989000,4.216989013671875,0.2263094496278092,-0.4866868077479303,-0.3013449995309114,-0.1563175320625305,-0.1289937943220138,-0.1003109291195869,walking,2026-03-04_14-04-36
1772633080589938000,4.22693798828125,0.2872585334461182,-0.5156102660238743,-0.4946458039283752,-0.0758724361658096,-0.0654268786311149,-0.0874028354883194,walking,2026-03-04_14-04-36
1772633080599886800,4.236886962890625,0.3179495859164744,-0.5311861669488251,-0.6689438016921282,0.0144691811874508,0.0040528653189539,-0.0680126249790191,walking,2026-03-04_14-04-36
1772633080609835800,4.246835693359375,0.3381503701630979,-0.544543661171943,-0.6626075844079256,0.0801585987210273,0.0120526310056447,-0.0552997961640358,walking,2026-03-04_14-04-36
1772633080619786000,4.256785888671875,0.425506472457014,-0.6989192532390356,-0.4277349986940622,0.1161450967192649,-0.0277224797755479,-0.0555964708328247,walking,2026-03-04_14-04-36
1772633080629735000,4.26673486328125,0.5418508784240111,-0.9190314921945332,-0.0870206963270902,0.120421215891838,-0.0957113578915596,-0.0601644404232502,walking,2026-03-04_14-04-36
1772633080639683800,4.276683837890625,0.6232786135822534,-1.086395891302824,0.2175602163851261,0.0842320546507835,-0.1787535101175308,-0.0831424593925476,walking,2026-03-04_14-04-36
1772633080649633000,4.286633056640625,0.5848117760112509,-1.23699298774451,0.4413730634242296,0.0235431734472513,-0.2288718223571777,-0.1340340673923492,walking,2026-03-04_14-04-36
1772633080659582000,4.29658203125,0.4918499991973862,-1.44756203006804,0.4673638292491435,-0.0408824235200881,-0.2371774166822433,-0.1920371800661087,walking,2026-03-04_14-04-36
1772633080669531000,4.30653076171875,0.4549529682263731,-1.5202410434402525,0.3263222043991088,-0.0967248901724815,-0.2348209917545318,-0.2271908819675445,walking,2026-03-04_14-04-36
1772633080679480000,4.31647998046875,0.5520843588750809,-1.4329840541392564,0.0928589009612798,-0.1279877424240112,-0.2304856330156326,-0.2410624772310257,walking,2026-03-04_14-04-36
1772633080689429000,4.326428955078125,0.6656400839716196,-1.2309089916557072,-0.2257043598741293,-0.1119636818766594,-0.1905389577150344,-0.2299890667200088,walking,2026-03-04_14-04-36
1772633080699378000,4.3363779296875,0.7807745296269655,-0.9857494052052496,-0.6855068139582872,-0.0541965141892433,-0.1255551725625991,-0.1928137242794037,walking,2026-03-04_14-04-36
1772633080709327000,4.3463271484375,0.8799445134311914,-0.7335640117712319,-1.0974036075294018,0.039276834577322,-0.0507817640900611,-0.1262600719928741,walking,2026-03-04_14-04-36
1772633080719276000,4.356276123046875,1.0213692193146795,-0.4849802960909903,-1.386585291057825,0.1499490141868591,0.027058970183134,-0.034192718565464,walking,2026-03-04_14-04-36
1772633080729225000,4.366224853515625,1.1709349999472498,-0.2861943382807075,-1.4932564442723988,0.2487364560365677,0.0943659394979476,0.0660570263862609,walking,2026-03-04_14-04-36
1772633080739174000,4.376173828125,1.273311963099241,-0.2263743680901825,-1.3180290567040442,0.3321325480937958,0.1299092769622802,0.1656219661235809,walking,2026-03-04_14-04-36
1772633080749122800,4.386122802734375,1.3857381727091966,-0.3906142054371535,-1.0041355412453412,0.3820673525333404,0.1271306127309799,0.2166382372379303,walking,2026-03-04_14-04-36
1772633080759072000,4.396072021484375,1.310273766402155,-0.5668972395382821,-0.5815390744835138,0.4018850028514862,0.0743789821863174,0.2338273376226425,walking,2026-03-04_14-04-36
1772633080769021000,4.40602099609375,1.1624459885433316,-0.782305830847472,-0.1738964312255382,0.3903146982192993,-0.0160838291049003,0.2205193042755127,walking,2026-03-04_14-04-36
1772633080778970000,4.41597021484375,1.0397321936748922,-0.9711397189639508,0.086564184731245,0.3509832918643951,-0.1180461421608924,0.1774376034736633,walking,2026-03-04_14-04-36
1772633080788919000,4.4259189453125,0.7502953663416206,-1.0132171117149291,0.2495446696668863,0.2876026332378387,-0.203024610877037,0.1202797666192054,walking,2026-03-04_14-04-36
1772633080798868000,4.435867919921875,0.5139972048040479,-0.9431757533699272,0.2569575762718916,0.2180486172437667,-0.2377402484416961,0.0785099491477012,walking,2026-03-04_14-04-36
1772633080808817000,4.44581689453125,0.3816706551987677,-0.8551073015555739,0.0324818814098835,0.1423206329345703,-0.2257680892944336,0.0606400594115257,walking,2026-03-04_14-04-36
1772633080818765800,4.455765869140625,0.2951551136485301,-0.6269678234890103,-0.273199101498723,0.0582672730088233,-0.197934865951538,0.0732274949550628,walking,2026-03-04_14-04-36
1772633080828715000,4.465715087890625,0.2076079092293046,-0.3378592051967978,-0.5110509952843189,-0.0410941578447818,-0.2021361291408538,0.0913477912545204,walking,2026-03-04_14-04-36
1772633080838664000,4.475663818359375,0.0205945510708726,-0.1084793716803193,-0.6489712732434273,-0.1548859775066375,-0.2354331016540527,0.0742231383919715,walking,2026-03-04_14-04-36
1772633080848613000,4.485613037109375,-0.3697357411246746,0.0489534160003066,-0.7474801627904176,-0.2625495791435241,-0.2501167058944702,0.0210489630699157,walking,2026-03-04_14-04-36
1772633080858562000,4.49556201171875,-0.8067354848355054,0.159477591381222,-0.99479429692626,-0.3403224349021911,-0.2330916374921798,-0.0558186545968055,walking,2026-03-04_14-04-36
1772633080868511000,4.505510986328125,-1.157829142397642,0.3335867885746061,-1.360012925952673,-0.3800162374973297,-0.2465892285108566,-0.1307304799556732,walking,2026-03-04_14-04-36
1772633080878460000,4.5154599609375,-1.33539564043805,0.6537592381723225,-1.7036106748014688,-0.3549329936504364,-0.1764998883008957,-0.1661494523286819,walking,2026-03-04_14-04-36
1772633080888408800,4.525408935546875,-1.2226356688290834,0.970948141914606,-2.001737881329656,-0.2902605235576629,-0.0815563350915908,-0.1703519225120544,walking,2026-03-04_14-04-36
1772633080898357800,4.535357666015625,-1.0909486592363566,1.3746898322112855,-2.325297050756216,-0.1625353246927261,0.0583016984164714,-0.1071806848049163,walking,2026-03-04_14-04-36
1772633080908307200,4.54530712890625,-0.7312259242124856,1.6211002955056726,-2.4197797535270453,0.0283799488097429,0.2199193686246872,-0.0085757635533809,walking,2026-03-04_14-04-36
1772633080918256000,4.555256103515625,-0.4043429075928405,1.8617638857111332,-2.474109894129634,0.2369022667407989,0.3307119607925415,0.0755859911441803,walking,2026-03-04_14-04-36
1772633080928205000,4.565205078125,-0.3182674927592277,2.0411998308852315,-2.13841605027318,0.4257409870624542,0.3630931079387665,0.1319172382354736,walking,2026-03-04_14-04-36
1772633080938154000,4.575154052734375,-0.3248012053769081,1.9952147631712256,-1.4759914212167262,0.566555380821228,0.3119201958179474,0.1509476602077484,walking,2026-03-04_14-04-36
1772633080948103000,4.58510302734375,-0.354480158195272,1.809010054514557,-0.6119914958924054,0.6486101746559143,0.210529014468193,0.1411995887756347,walking,2026-03-04_14-04-36
1772633080958051800,4.5950517578125,-0.4169533097757026,1.6011156382277607,0.2210731929421424,0.683081328868866,0.1295265704393386,0.1215859353542327,walking,2026-03-04_14-04-36
1772633080968000800,4.605000732421875,-0.528601776478812,1.4196174998268485,0.7479448576927185,0.6524298191070557,0.0691264495253562,0.0516739040613174,walking,2026-03-04_14-04-36
1772633080977950000,4.614949951171875,-0.8485346451669931,1.2782204856678845,1.180858135807514,0.5680915117263794,0.053411666303873,-0.0531217493116855,walking,2026-03-04_14-04-36
1772633080987899100,4.624899169921875,-1.086928244613856,1.0154939706057309,1.553971317476034,0.4192044138908386,0.031855933368206,-0.1701019406318664,walking,2026-03-04_14-04-36
1772633080997848000,4.63484814453125,-1.2110998370751738,0.8344792318075894,1.76509770142138,0.2123657464981079,0.0127490870654582,-0.2912688255310058,walking,2026-03-04_14-04-36
1772633081007798000,4.644798095703125,-1.283033585038036,0.7029159216597676,2.0702736574172973,-0.0081490091979503,0.0310144983232021,-0.3807381093502044,walking,2026-03-04_14-04-36
1772633081017747000,4.654746826171875,-1.1470295159637929,0.6359110084012151,2.103364610636234,-0.1958619058132171,0.0658784732222557,-0.433525949716568,walking,2026-03-04_14-04-36
1772633081027695900,4.66469580078125,-0.9448258586645126,0.754965550109744,1.8753122263312336,-0.3263808488845825,0.0895146429538726,-0.4417348206043243,walking,2026-03-04_14-04-36
1772633081037645600,4.6746455078125,-0.6865889101065695,0.9580582652032374,1.4498007489055391,-0.3958123624324798,0.0942063331604003,-0.4227100014686584,walking,2026-03-04_14-04-36
1772633081047594500,4.684594482421875,-0.3987666418304667,1.0872291272565722,1.0021242014229297,-0.4190248548984527,0.0735221207141876,-0.3957605957984924,walking,2026-03-04_14-04-36
1772633081057543400,4.69454345703125,-0.2985706759793683,1.1458569650530814,0.6256242999255657,-0.4210661649703979,0.0449229627847671,-0.3903035223484039,walking,2026-03-04_14-04-36
1772633081067492600,4.70449267578125,-0.3957524451084435,1.109167695081234,0.2948562220335006,-0.3990716934204101,0.0280877277255058,-0.395232081413269,walking,2026-03-04_14-04-36
1772633081077441500,4.714441650390625,-0.4557280077194794,1.0180857406646011,0.0064396776586771,-0.3627709448337555,0.0341645292937755,-0.3815892338752746,walking,2026-03-04_14-04-36
1772633081087390500,4.724390380859375,-0.3732550378246232,0.987681250050664,-0.2251613390386104,-0.3240551948547363,0.0518855303525924,-0.3414023816585541,walking,2026-03-04_14-04-36
1772633081097339400,4.73433935546875,-0.2400730769664049,0.9998067182607948,-0.3177414230585098,-0.2686481177806854,0.0890733748674392,-0.2618127465248108,walking,2026-03-04_14-04-36
1772633081107288600,4.74428857421875,0.0067381856812164,0.9475221120111644,-0.3902303206861019,-0.189478188753128,0.1434402763843536,-0.1690861582756042,walking,2026-03-04_14-04-36
1772633081117237500,4.754237548828125,0.1866378759095445,0.8516549691446125,-0.4700742572516203,-0.1078778654336929,0.1891169548034668,-0.0826335474848747,walking,2026-03-04_14-04-36
1772633081127186400,4.7641865234375,0.1949445895491167,0.7295305184714496,-0.3422282140612602,-0.0437993854284286,0.1987011581659317,-0.0140946544706821,walking,2026-03-04_14-04-36
1772633081137135600,4.774135498046875,0.2119221009002998,0.432227195546776,-0.0531938300490379,-0.008691731840372,0.1702668517827987,0.0300363209098577,walking,2026-03-04_14-04-36
1772633081147084500,4.78408447265625,0.1648048508185893,0.1101141332753002,0.3849152631431817,-0.0059582879766821,0.116436518728733,0.0466507300734519,walking,2026-03-04_14-04-36
1772633081157033500,4.794033447265625,0.0446001526942476,-0.1812285276792943,0.7834563160568475,-0.0381031744182109,0.0569960959255695,0.0367440357804298,walking,2026-03-04_14-04-36
1772633081166982400,4.803982421875,-0.1102491212991997,-0.4532240986071527,1.0895353583723306,-0.0868224427103996,0.0267750583589077,0.0097876647487282,walking,2026-03-04_14-04-36
1772633081176931600,4.813931640625,-0.2150808937247842,-0.6713121382586658,1.251211774972081,-0.1453749686479568,0.0108016859740018,-0.0237031821161508,walking,2026-03-04_14-04-36
1772633081186880500,4.823880615234375,-0.2660832416115328,-0.8129565513074397,1.333264619758725,-0.200755164027214,-0.0201859772205352,-0.0521069765090942,walking,2026-03-04_14-04-36
1772633081196829400,4.833829345703125,-0.2465749696737155,-0.8691486863896251,1.3328484401732683,-0.2374892234802246,-0.0428108610212802,-0.0662848427891731,walking,2026-03-04_14-04-36
1772633081206778600,4.843778564453125,-0.1620715533971786,-0.8303373096972704,1.1873457442611457,-0.2530274987220764,-0.0598174631595611,-0.0584443509578704,walking,2026-03-04_14-04-36
1772633081216727600,4.8537275390625,-0.1021127227252349,-0.694266312866658,0.9771984344810248,-0.2478359341621399,-0.0903290361166,-0.0405838638544082,walking,2026-03-04_14-04-36
1772633081226676500,4.863676513671875,-0.1008919122260063,-0.5318232958085835,0.7522101139217615,-0.2268427312374115,-0.1152801290154457,-0.0223160460591316,walking,2026-03-04_14-04-36
1772633081236625400,4.87362548828125,-0.1293732162250205,-0.3927702144272625,0.5226204370468854,-0.1901701986789703,-0.0978081971406936,-0.0013556380290538,walking,2026-03-04_14-04-36
1772633081246574300,4.88357421875,-0.1898473394753411,-0.239479787248373,0.2949234420508146,-0.1615235805511474,-0.0574830956757068,0.0196469537913799,walking,2026-03-04_14-04-36
1772633081256523500,4.8935234375,-0.2741931175047531,-0.1238756782546639,0.1980307555288076,-0.158696636557579,-0.0280272029340267,0.0282676070928573,walking,2026-03-04_14-04-36
1772633081266472700,4.90347265625,-0.3539499603087082,-0.0821732562959194,0.2966214781403541,-0.1775829941034317,-0.0034119978081434,0.0377060249447822,walking,2026-03-04_14-04-36
1772633081276421600,4.913421630859375,-0.3138703903114423,-0.0810077196478843,0.4461228882998228,-0.2027653008699417,0.0218614004552364,0.0638207197189331,walking,2026-03-04_14-04-36
1772633081286370600,4.92337060546875,-0.188504692694731,-0.0850194395072758,0.5780787048965692,-0.2283660620450973,0.0437092594802379,0.098324716091156,walking,2026-03-04_14-04-36
1772633081296319500,4.933319580078125,-0.0845856511998921,-0.0529359097652137,0.6397369964301586,-0.2328614890575409,0.0675954148173332,0.1460144817829132,walking,2026-03-04_14-04-36
1772633081306268400,4.943268310546875,0.052703123922646,-0.0707949531912803,0.6382435430020094,-0.2288256883621215,0.0814983025193214,0.1807614266872406,walking,2026-03-04_14-04-36
1772633081316217300,4.95321728515625,0.0750219963017851,-0.1554742009587585,0.6262029765963554,-0.2195530980825424,0.0777570903301239,0.1859138309955597,walking,2026-03-04_14-04-36
1772633081326166300,4.963166259765625,0.0068017889693379,-0.2612777775585651,0.6575485474526882,-0.1999985575675964,0.0720729082822799,0.1825283020734787,walking,2026-03-04_14-04-36
1772633081336115700,4.97311572265625,0.0107156379448249,-0.3582737783245742,0.6455459749698639,-0.1833508759737014,0.0686384961009025,0.1864218413829803,walking,2026-03-04_14-04-36
1772633081346064600,4.983064697265625,0.0638781960727647,-0.4229788902081549,0.6127881992280483,-0.1766125112771988,0.0619319155812263,0.1835698783397674,walking,2026-03-04_14-04-36
1772633081356013600,4.993013671875,0.064251559429802,-0.4500584741830825,0.5703735373467207,-0.1737293750047683,0.0575363710522651,0.1772390156984329,walking,2026-03-04_14-04-36
1772633081365962500,5.00296240234375,0.0898982610573992,-0.5001525846511126,0.467857165724039,-0.1719840317964553,0.0580911934375762,0.1695589125156402,walking,2026-03-04_14-04-36
1772633081375911400,5.012911376953125,0.1116687423061579,-0.5320058127686381,0.2868383352726698,-0.1656867265701294,0.0539739467203617,0.1698550581932068,walking,2026-03-04_14-04-36
1772633081385860400,5.0228603515625,0.1432910477446392,-0.5056134804055095,0.0879898336201906,-0.1642105877399444,0.0332170203328132,0.1794052720069885,walking,2026-03-04_14-04-36
1772633081395810600,5.032810546875,0.2189427202520892,-0.456301752486825,-0.1143628767609596,-0.1628617048263549,0.003698808606714,0.1884874552488327,walking,2026-03-04_14-04-36
1772633081405759500,5.042759521484375,0.2227962538750842,-0.4585791958995163,-0.3749170162200927,-0.1538994014263153,-0.0160841383039951,0.1869995892047882,walking,2026-03-04_14-04-36
1772633081415708400,5.05270849609375,0.0891768514476716,-0.4193662526689469,-0.6912304523020982,-0.1346346288919448,-0.0217785108834505,0.1801893562078476,walking,2026-03-04_14-04-36
1772633081425657600,5.06265771484375,-0.111593923504278,-0.3552864330768585,-1.041870520877838,-0.1053281128406524,-0.0021343757398426,0.1800288408994674,walking,2026-03-04_14-04-36
1772633081435606500,5.0726064453125,-0.2744767567517235,-0.2575755620397627,-1.4109884954303502,-0.0712937116622924,0.060716226696968,0.1880470961332321,walking,2026-03-04_14-04-36
1772633081445555500,5.082555419921875,-0.4220634558636695,-0.1663084603145718,-1.7496750913619994,-0.0420556366443634,0.1536720544099807,0.1933693587779998,walking,2026-03-04_14-04-36
1772633081455504400,5.09250439453125,-0.5783989132942632,-0.134348410821706,-1.9144541501522063,0.0124518144875764,0.2375331372022628,0.2285387963056564,walking,2026-03-04_14-04-36
1772633081465453600,5.10245361328125,-0.5041812556453049,-0.2080661195918917,-2.0619921512842176,0.1184253543615341,0.3862826228141784,0.3074227571487427,walking,2026-03-04_14-04-36
1772633081475402500,5.112402587890625,-0.2717918285166844,-0.2405706512250006,-2.2253724491924047,0.2364920675754547,0.4681273996829986,0.4022312760353088,walking,2026-03-04_14-04-36
1772633081485351700,5.1223515625,-0.1649181019347161,-0.2562605339184403,-2.143485024100542,0.3324087262153625,0.4212074875831604,0.4838482737541199,walking,2026-03-04_14-04-36
1772633081495300600,5.132300537109375,-0.0471443207517266,-0.4782840133227408,-1.6501596551209687,0.3978652358055115,0.2964969873428345,0.5237011909484863,walking,2026-03-04_14-04-36
1772633081505249500,5.14224951171875,-0.0832920311927795,-0.8122131855942308,-1.1227139898747205,0.4262498915195465,0.162630558013916,0.5266668796539307,walking,2026-03-04_14-04-36
1772633081515198500,5.152198486328125,-0.2820249436415731,-1.0642089016750451,-0.7434703426271677,0.4238969981670379,0.0461846478283405,0.497430145740509,walking,2026-03-04_14-04-36
1772633081525147400,5.1621474609375,-0.5229243884295225,-1.2523074612542986,-0.5350035332798958,0.3927062153816223,-0.0503449253737926,0.435260534286499,walking,2026-03-04_14-04-36
1772633081535096300,5.172096435546875,-0.7291171884302049,-1.3919535400927066,-0.4759761747717857,0.335346519947052,-0.1080598905682563,0.3579247295856476,walking,2026-03-04_14-04-36
1772633081545045500,5.18204541015625,-0.8705910672176629,-1.4598780524142083,-0.4970779995113611,0.2596339583396911,-0.1342287808656692,0.2775040566921234,walking,2026-03-04_14-04-36
1772633081554994700,5.19199462890625,-0.945201998500526,-1.3804220922529695,-0.5525999802470207,0.1703134030103683,-0.1335491389036178,0.2024055868387222,walking,2026-03-04_14-04-36
1772633081564943600,5.201943603515625,-0.9326369698293506,-1.1772747243627906,-0.6585837357193232,0.091843843460083,-0.1123778671026229,0.1464089453220367,walking,2026-03-04_14-04-36
1772633081574892500,5.211892578125,-0.8175711324308067,-0.8634998668476939,-0.8420616497606038,0.0460635758936405,-0.0809443145990371,0.1130762994289398,walking,2026-03-04_14-04-36
1772633081584841500,5.221841552734375,-0.6694540893018245,-0.402296606054902,-1.0737854160547255,0.0369328446686267,-0.0449488088488578,0.1039168834686279,walking,2026-03-04_14-04-36
1772633081594790400,5.231790283203125,-0.5160016034290195,0.0831274882808327,-1.294931674233079,0.0476635210216045,-0.0269690081477165,0.1063997521996498,walking,2026-03-04_14-04-36
1772633081604739300,5.2417392578125,-0.3609597660055383,0.4445220289744436,-1.3848510146111248,0.0764080509543418,-0.0473708137869834,0.1134563386440277,walking,2026-03-04_14-04-36
1772633081614688500,5.2516884765625,-0.1672792050428688,0.6799015412971376,-1.4190917223870754,0.1102179437875747,-0.0792126283049583,0.1252458840608596,walking,2026-03-04_14-04-36
1772633081624637700,5.2616376953125,-0.0991292864676565,0.9218246300444006,-1.3951485367417336,0.1429723799228668,-0.0898888930678367,0.1287844032049179,walking,2026-03-04_14-04-36
1772633081634586600,5.271586669921875,-0.1367987996485084,1.1141329162731766,-1.3560241485774516,0.1658108532428741,-0.0667521506547927,0.1283891946077346,walking,2026-03-04_14-04-36
1772633081644535600,5.28153564453125,-0.21495467352923,1.1987978432543576,-1.3002759578704832,0.1861270815134048,0.0082176188006997,0.125380203127861,walking,2026-03-04_14-04-36
1772633081654484500,5.291484375,-0.2693917451050132,1.247066345730424,-1.1954974865347143,0.2033681273460388,0.1271586567163467,0.1362275332212448,walking,2026-03-04_14-04-36
1772633081664433400,5.301433349609375,-0.2846509447636082,1.3533672043278813,-1.0018675963133572,0.2183626145124435,0.2636187374591827,0.1598757058382034,walking,2026-03-04_14-04-36
1772633081674382300,5.31138232421875,-0.2644362781221047,1.4293509583339097,-0.6650187372028827,0.2307814806699752,0.3669760227203369,0.189328134059906,walking,2026-03-04_14-04-36
1772633081684331500,5.32133154296875,-0.1717703059170395,1.4208103628732265,-0.2090180134892463,0.2547617554664612,0.4229429066181183,0.2062804102897644,walking,2026-03-04_14-04-36
1772633081694902500,5.331902587890625,-0.055110769586265,1.338132518056035,0.2680588160008192,0.2987329661846161,0.456035315990448,0.2236378043889999,walking,2026-03-04_14-04-36
1772633081704851700,5.341851806640625,0.1039818410653621,1.2150269473910331,0.7104577153414487,0.3573302328586578,0.4674176871776581,0.2338102757930755,walking,2026-03-04_14-04-36
1772633081714800600,5.351800537109375,0.2035300105322152,1.1737874667689203,1.0950304486572742,0.3993087708950043,0.4229007959365845,0.2235846370458603,walking,2026-03-04_14-04-36
1772633081724749600,5.36174951171875,0.2935240966469049,1.1352911473751068,1.5325924293607474,0.4043975174427032,0.2825641930103302,0.2005554884672165,walking,2026-03-04_14-04-36
1772633081734698500,5.371698486328125,0.3974367449335754,1.0675587966248392,1.986926681166887,0.368773490190506,0.0997528210282325,0.1657706052064895,walking,2026-03-04_14-04-36
1772633081744647400,5.3816474609375,0.4839136897727847,1.0289096247568723,2.308494384515285,0.3141936063766479,-0.0810776799917221,0.1400314271450042,walking,2026-03-04_14-04-36
1772633081754596400,5.391596435546875,0.4991874659460037,1.0689864913403988,2.4402397732317445,0.2142361849546432,-0.2325106859207153,0.1051401942968368,walking,2026-03-04_14-04-36
1772633081764545500,5.401545654296875,0.3929774274371564,1.1178612891465425,2.470496964329481,0.0869695767760276,-0.345090240240097,0.0732805281877517,walking,2026-03-04_14-04-36
1772633081774494500,5.411494384765625,0.3253448837995529,1.1118182095900178,2.2598194931954145,-0.0365105047821998,-0.3782325387001037,0.0561999343335628,walking,2026-03-04_14-04-36
1772633081784443600,5.421443603515625,0.2790462931569665,1.1758721640884875,1.8098311616390943,-0.1480913609266281,-0.3480565249919891,0.0511279441416263,walking,2026-03-04_14-04-36
1772633081794393600,5.4313935546875,0.1953618285804987,1.2467387212112546,1.3160364215821028,-0.2420210093259811,-0.2958725690841675,0.0517856366932392,walking,2026-03-04_14-04-36
1772633081804342500,5.441342529296875,0.0964824252206832,1.2286693960353732,0.859585031491518,-0.317209243774414,-0.2399081140756607,0.0383308120071888,walking,2026-03-04_14-04-36
1772633081814291500,5.45129150390625,-0.0946438846819102,1.1558777160689233,0.4865075056582689,-0.3855543732643127,-0.2055058926343917,0.0031630464363843,walking,2026-03-04_14-04-36
1772633081824240400,5.461240478515625,-0.3739431662192568,1.0533946621939538,0.2275584633082151,-0.451060950756073,-0.1978708803653717,-0.0683215260505676,walking,2026-03-04_14-04-36
1772633081834189300,5.471189208984375,-0.5667424508353694,0.9608838440179824,-0.0103664957135915,-0.5041837096214294,-0.2096698582172393,-0.1499040275812149,walking,2026-03-04_14-04-36
1772633081844138500,5.481138427734375,-0.6182564015060663,0.9192065565004944,-0.2711427534908056,-0.5297300815582275,-0.1934711784124374,-0.2115170657634735,walking,2026-03-04_14-04-36
1772633081854087700,5.491087646484375,-0.4676773521777242,0.9570334522001444,-0.5778402199655771,-0.5010029077529907,-0.1303617507219314,-0.230601891875267,walking,2026-03-04_14-04-36
1772633081864036600,5.50103662109375,-0.2929291264284402,1.0956002113692462,-0.9440829313427208,-0.4360624849796295,0.0012279672082513,-0.2100337594747543,walking,2026-03-04_14-04-36
1772633081873985500,5.510985595703125,-0.0707100879194214,1.1660909209169448,-1.1771966906905174,-0.3260027170181274,0.1508604884147644,-0.1486390531063079,walking,2026-03-04_14-04-36
1772633081883934500,5.5209345703125,0.1712215494604781,1.1621622031658887,-1.2849597307950258,-0.2031052708625793,0.2699658572673797,-0.0780820548534393,walking,2026-03-04_14-04-36
1772633081893883400,5.53088330078125,0.3582688829537481,1.0719053013965487,-1.0117752423435449,-0.1067473441362381,0.3039882183074951,-0.0246827751398086,walking,2026-03-04_14-04-36
1772633081903832300,5.540832275390625,0.3873606835339218,0.833661485683918,-0.4401005592703819,-0.0550204962491989,0.266196608543396,-0.004255530424416,walking,2026-03-04_14-04-36
1772633081913781500,5.550781494140625,0.4398602842411026,0.5151726052589715,0.1899509094476699,-0.0343531407415866,0.198358878493309,0.004906675312668,walking,2026-03-04_14-04-36
1772633081923730700,5.560730712890625,0.5223283222325146,0.2673224645502865,0.6776841575086117,-0.0320708118379116,0.1341753602027893,0.0286974906921386,walking,2026-03-04_14-04-36
1772633081933679600,5.5706796875,0.5925711579663678,0.1387025143779814,0.9815279881179332,-0.0500342436134815,0.0823551416397094,0.0495952554047107,walking,2026-03-04_14-04-36
1772633081943628500,5.580628662109375,0.5539528561607003,-0.016303776808083,1.220377660769224,-0.0931612029671669,0.0279558189213275,0.049036256968975,walking,2026-03-04_14-04-36
1772633081953577500,5.590577392578125,0.4558499901313334,-0.1903532066382467,1.3847341102331876,-0.1545498222112655,-0.0294789560139179,0.0256556179374456,walking,2026-03-04_14-04-36
1772633081963526400,5.6005263671875,0.3382995693754405,-0.3391777404494583,1.4064087664246558,-0.2112509161233902,-0.0602930597960948,-0.0074967425316572,walking,2026-03-04_14-04-36
1772633081973475600,5.6104755859375,0.2284581886269152,-0.3910997969970107,1.238619419902563,-0.2515552341938019,-0.0870819240808487,-0.0427448041737079,walking,2026-03-04_14-04-36
1772633081983424500,5.620424560546875,0.1546599619664251,-0.3473435112483799,0.9830541747719048,-0.2620851099491119,-0.1136368289589881,-0.0653680860996246,walking,2026-03-04_14-04-36
1772633081993373400,5.63037353515625,0.2068247046960517,-0.274063463243097,0.6413081912696361,-0.2380152195692062,-0.1206708401441574,-0.0689800977706909,walking,2026-03-04_14-04-36
1772633082003322600,5.640322509765625,0.2580186661647632,-0.1326008365020156,0.3090232790738344,-0.2013030052185058,-0.1137926951050758,-0.059365551918745,walking,2026-03-04_14-04-36
1772633082013271600,5.650271484375,0.2401802636679262,-0.0389591145999729,0.0849152484804391,-0.1632017940282821,-0.0965346470475196,-0.0547903142869472,walking,2026-03-04_14-04-36
1772633082023220500,5.660220458984375,0.1510938669826835,-0.0449327821820974,-0.0375754051566123,-0.1306992471218109,-0.0705142319202423,-0.0612921565771102,walking,2026-03-04_14-04-36
1772633082033169000,5.6701689453125,-0.0167067315857857,-0.0694086133994162,-0.0716740741133689,-0.1183229088783264,-0.0468171164393425,-0.0842574834823608,walking,2026-03-04_14-04-36
1772633082043740000,5.680739990234375,-0.1468547315755859,-0.1766997982084751,-0.0154044898808002,-0.1119726076722145,-0.0217932574450969,-0.1158002316951751,walking,2026-03-04_14-04-36
1772633082053688800,5.690688720703125,-0.1484921235190704,-0.3025907618083059,-0.0128249947816133,-0.1066012755036354,0.0128057319670915,-0.1354237347841262,walking,2026-03-04_14-04-36
1772633082063637800,5.7006376953125,-0.0886968128457665,-0.3973893986605107,-0.0336795667618513,-0.0830093026161193,0.0549319200217723,-0.1559975445270538,walking,2026-03-04_14-04-36
1772633082073586700,5.710586669921875,-0.035718707906641,-0.5131348158210516,-0.0489449404329061,-0.0438472479581832,0.0877007842063903,-0.1808104813098907,walking,2026-03-04_14-04-36
1772633082083535600,5.72053564453125,0.0784251192761585,-0.6512652293995023,-0.0286941795647144,-0.0035869968123733,0.1037689223885536,-0.2037134021520614,walking,2026-03-04_14-04-36
1772633082093484500,5.730484619140625,0.2126258287228643,-0.7691612487226724,0.0717202513426542,0.0278910342603921,0.0526037439703941,-0.213939681649208,walking,2026-03-04_14-04-36
1772633082103433700,5.740433837890625,0.3223767181763425,-0.8170927743293345,0.2662865456312894,0.0479147285223007,-0.0240470711141824,-0.2388450652360916,walking,2026-03-04_14-04-36
1772633082113383000,5.7503828125,0.3105359121264889,-0.9860627089381218,0.3595411679118871,0.0557020753622055,-0.0831458121538162,-0.2914387881755829,walking,2026-03-04_14-04-36
1772633082123331800,5.760331787109375,0.2658477523552253,-1.1338213670834898,0.3514624908745288,0.0468868464231491,-0.1159844100475311,-0.3483729958534241,walking,2026-03-04_14-04-36
1772633082133280800,5.77028076171875,0.2784728406505659,-1.1752986019842326,0.2995429185450077,0.0265530776232481,-0.1316850781440735,-0.3794558048248291,walking,2026-03-04_14-04-36
1772633082143229700,5.780229736328125,0.4461650104084983,-1.1250456476926802,0.1930307552844286,0.0098097985610365,-0.1460194736719131,-0.3765440583229065,walking,2026-03-04_14-04-36
1772633082153178600,5.7901787109375,0.650608372925967,-0.9806835001178084,0.012023615270853,0.0014759683981537,-0.156880646944046,-0.341617226600647,walking,2026-03-04_14-04-36
1772633082163127600,5.80012744140625,0.7916928870696573,-0.8439275897629559,-0.2209685635238885,-9.54517163336e-05,-0.1554978936910629,-0.3060261309146881,walking,2026-03-04_14-04-36
1772633082173076700,5.81007666015625,0.7916732325211167,-0.7840816083483397,-0.4595470180183649,-0.0016288999468088,-0.1400105506181717,-0.2730751037597656,walking,2026-03-04_14-04-36
1772633082183025700,5.820025634765625,0.7007735028035939,-0.7740361612826585,-0.6471703613013029,-0.0041929078288376,-0.1113680005073547,-0.2528552711009979,walking,2026-03-04_14-04-36
1772633082192974800,5.829974853515625,0.6003362755425274,-0.7720103545434772,-0.8172691538095473,0.0080232778564095,-0.0722333863377571,-0.2391858100891113,walking,2026-03-04_14-04-36
1772633082202923800,5.839923828125,0.610066482646577,-0.7204353578679263,-0.9565975450009108,0.0432171896100044,-0.0407335124909877,-0.2059951722621917,walking,2026-03-04_14-04-36
1772633082212872700,5.849872802734375,0.7640327997930347,-0.6235711667880416,-1.0536188263386488,0.1061008125543594,-0.0303125623613595,-0.1510272622108459,walking,2026-03-04_14-04-36
1772633082222821600,5.859821533203125,0.9883367913499472,-0.5136763753518462,-1.111546114650369,0.1966924220323562,-0.0294548030942678,-0.0815445855259895,walking,2026-03-04_14-04-36
1772633082232770600,5.8697705078125,1.2161167884543538,-0.4617699547648429,-1.1298223605751991,0.2914484739303589,-0.0242752209305763,-0.0082546612247824,walking,2026-03-04_14-04-36
1772633082242719700,5.8797197265625,1.3094813008502124,-0.4854667644336819,-1.0308248107284308,0.36257004737854,-0.026709146797657,0.0469189845025539,walking,2026-03-04_14-04-36
1772633082252668700,5.889668701171875,1.2845403363391756,-0.5926531736940145,-0.7631535327404737,0.3972572088241577,-0.0472786016762256,0.0770726278424263,walking,2026-03-04_14-04-36
1772633082262617900,5.899617919921875,1.236245091986656,-0.7327348674707115,-0.4582674996018409,0.3968397378921509,-0.0825705900788307,0.0898631811141967,walking,2026-03-04_14-04-36
1772633082272566800,5.90956689453125,1.1202557830676436,-0.8053443227380513,-0.1998182234674692,0.3645867705345154,-0.1129713729023933,0.0881110876798629,walking,2026-03-04_14-04-36
1772633082282515700,5.919515625,0.9568814034435896,-0.8301520162582396,-0.0482435141652822,0.3040637373924255,-0.1287184357643127,0.0728728845715522,walking,2026-03-04_14-04-36
1772633082292465700,5.929465576171875,0.7490191358607262,-0.8338757129564881,-0.0142231711417436,0.2309868782758712,-0.127775952219963,0.0494839400053024,walking,2026-03-04_14-04-36
1772633082302414600,5.93941455078125,0.5872067813890054,-0.7663415151268244,-0.0722065735548734,0.1513664275407791,-0.1373012959957122,0.0349963903427124,walking,2026-03-04_14-04-36
1772633082312363500,5.949363525390625,0.4874777389299124,-0.6176742177039385,-0.1799573386996984,0.0751864314079284,-0.1663079112768173,0.0264750719070434,walking,2026-03-04_14-04-36
1772633082322312700,5.959312744140625,0.3082086016900837,-0.4008114820636809,-0.4157365178644657,0.0213467236608266,-0.1863394230604171,0.013963321223855,walking,2026-03-04_14-04-36
1772633082332262000,5.969261962890625,0.0924681115454062,-0.1568177245222032,-0.7246656889140606,-0.0106530217453837,-0.174318179488182,0.0010619044769555,walking,2026-03-04_14-04-36
1772633082342210800,5.9792109375,-0.1671055289763957,0.0707419078297913,-1.0208160424113273,-0.0435096696019172,-0.1689667850732803,-0.0230025108903646,walking,2026-03-04_14-04-36
1772633082352159700,5.98915966796875,-0.5143520095910876,0.3631596506699919,-1.146989768475294,-0.0780996084213256,-0.1626247316598892,-0.0610897094011306,walking,2026-03-04_14-04-36
1772633082362108700,5.999108642578125,-0.8201755427755415,0.6211078454144299,-1.237464989170432,-0.0987190827727317,-0.1199563816189765,-0.1026406362652778,walking,2026-03-04_14-04-36
1772633082372057600,6.0090576171875,-0.9571290215291084,0.8202719888873398,-1.3979092336267231,-0.0915128365159034,-0.0366713516414165,-0.1357804834842682,walking,2026-03-04_14-04-36
1772633082382006500,6.019006591796875,-0.937847471019253,1.0724135431796311,-1.5493956801235675,-0.0502713248133659,0.0635027736425399,-0.1405131220817566,walking,2026-03-04_14-04-36
1772633082391955700,6.028955810546875,-0.7514481165733188,1.2750289961501955,-1.5720850663155317,0.0126354675740003,0.1443001627922058,-0.1193995848298072,walking,2026-03-04_14-04-36
1772633082401905000,6.03890478515625,-0.5066029298342765,1.3908473324164747,-1.447324714180827,0.0937935337424278,0.1796775609254837,-0.0858304873108863,walking,2026-03-04_14-04-36
1772633082411853800,6.048853759765625,-0.3020487638860941,1.4804266271851956,-1.1937462589532135,0.1913927942514419,0.1779773980379104,-0.0448138192296028,walking,2026-03-04_14-04-36
1772633082421802800,6.058802734375,-0.1904632794165983,1.4915993247151371,-0.9134224201411008,0.2934969961643219,0.152527242898941,-0.0097987614572048,walking,2026-03-04_14-04-36
1772633082431751700,6.068751708984375,-0.1932998180167749,1.4276749879457056,-0.5799520975530147,0.3761703073978424,0.1192976534366607,-0.0034215562045574,walking,2026-03-04_14-04-36
1772633082441700600,6.07870068359375,-0.3978322105245664,1.2962265363492071,-0.2962514757841825,0.4387296736240387,0.1085401847958564,-0.0338331535458564,walking,2026-03-04_14-04-36
1772633082451649800,6.08864990234375,-0.6109461150253191,1.1086566768191757,-0.0423065253317356,0.4730596840381622,0.115530714392662,-0.0861371085047721,walking,2026-03-04_14-04-36
1772633082461598700,6.0985986328125,-0.7708917988423257,0.9996950745798648,0.2473474518835544,0.4725396335124969,0.1213617473840713,-0.1479375213384628,walking,2026-03-04_14-04-36
1772633082471547600,6.108547607421875,-0.8246475736230612,0.9555559269934892,0.5571119047135115,0.4378152191638946,0.1249612867832183,-0.2011757045984268,walking,2026-03-04_14-04-36
1772633082481496800,6.118496826171875,-0.758566424145922,0.9443433358445764,0.7976783181548118,0.3851160407066345,0.1452744752168655,-0.2401796877384185,walking,2026-03-04_14-04-36
1772633082491445800,6.12844580078125,-0.6814329886481165,0.9739975926131008,1.0075380431652068,0.3083602786064148,0.1709710508584976,-0.2641353607177734,walking,2026-03-04_14-04-36
1772633082501394700,6.138394775390625,-0.6141222243107854,1.0459054754823445,1.1831079605609178,0.2176378518342971,0.1832565516233444,-0.2877345383167267,walking,2026-03-04_14-04-36
1772633082511343600,6.148343505859375,-0.5712226284567267,1.0939327165484427,1.316125268909335,0.1183778494596481,0.1864795088768005,-0.3083825707435608,walking,2026-03-04_14-04-36
1772633082521292800,6.158292724609375,-0.5350169772833585,1.16036041444093,1.3996259744167328,0.0184548385441303,0.1680611819028854,-0.3197964131832123,walking,2026-03-04_14-04-36
1772633082531241700,6.16824169921875,-0.4704171524051576,1.226223171927035,1.4332482580333947,-0.0732553750276565,0.123154692351818,-0.3180650770664215,walking,2026-03-04_14-04-36
1772633082541190700,6.178190673828125,-0.367823843088746,1.3008575571507217,1.3726000203251838,-0.1436187922954559,0.0782966166734695,-0.2966040670871734,walking,2026-03-04_14-04-36
1772633082551139800,6.188139892578125,-0.2580339002665132,1.3492027781248093,1.1720756944149733,-0.1886350065469741,0.0417838804423809,-0.2666496336460113,walking,2026-03-04_14-04-36
1772633082561088800,6.1980888671875,-0.1930716718167066,1.3944558783024548,0.9399719888925552,-0.2164419442415237,-0.0055114435963332,-0.2249187231063842,walking,2026-03-04_14-04-36
1772633082571037700,6.20803759765625,-0.1502765592504292,1.3755728986561295,0.6618225715100765,-0.223499059677124,-0.0320394560694694,-0.1793453693389892,walking,2026-03-04_14-04-36
1772633082580986600,6.217986572265625,-0.1617201826762408,1.310028705599904,0.3577227203130722,-0.2233047932386398,-0.0216532945632934,-0.1350629329681396,walking,2026-03-04_14-04-36
1772633082590935800,6.227935791015625,-0.2644171715628355,1.180209316509962,0.141971599176526,-0.233364075422287,-0.0022910479456186,-0.1105530634522438,walking,2026-03-04_14-04-36
1772633082600884700,6.237884765625,-0.383468425335735,1.000574926154315,0.0743809949845075,-0.2482287138700485,0.0096267806366086,-0.0995444282889366,walking,2026-03-04_14-04-36
1772633082610833700,6.247833740234375,-0.3617231881260871,0.8007127174146473,0.0446060344457626,-0.2519115805625915,0.026591382920742,-0.076663352549076,walking,2026-03-04_14-04-36
1772633082620783900,6.257783935546875,-0.263880507402867,0.6400766036480665,0.0184738143235445,-0.242610365152359,0.0369181558489799,-0.0515231750905513,walking,2026-03-04_14-04-36
1772633082630732800,6.26773291015625,-0.1722229450553655,0.509457150221616,0.0272211844027042,-0.2215690016746521,0.0370688922703266,-0.0223639607429504,walking,2026-03-04_14-04-36
1772633082640681700,6.277681640625,-0.0913354177210479,0.356934930936247,0.0472375519931316,-0.1904628723859787,0.0470410622656345,-0.0002872291952371,walking,2026-03-04_14-04-36
1772633082650630700,6.287630615234375,-0.0605098521508276,0.1666175262637436,0.1095464163899421,-0.1652603149414062,0.0484408177435398,0.0131263155490159,walking,2026-03-04_14-04-36
1772633082660579600,6.29757958984375,-0.0719327250495553,-0.0027652269296348,0.2595955235600471,-0.1514627933502197,0.0221375916153192,0.010318299755454,walking,2026-03-04_14-04-36
1772633082670528800,6.30752880859375,-0.0230321352150291,-0.131159259391576,0.4316203156948089,-0.143783837556839,-0.0042002731934189,0.0174172222614288,walking,2026-03-04_14-04-36
1772633082680477700,6.317477783203125,0.0771792474009096,-0.240953074671328,0.5347767387866974,-0.1337714195251464,-0.0028292755596339,0.0383910462260246,walking,2026-03-04_14-04-36
1772633082690427000,6.327427001953125,0.0954996977936476,-0.291946179805696,0.600524345460534,-0.1424892842769622,-0.0134805887937545,0.0537955686450004,walking,2026-03-04_14-04-36
1772633082700375800,6.337375732421875,0.051906712847948,-0.3549307515069842,0.7318249130189418,-0.1636362373828888,-0.0373522005975246,0.0522840209305286,walking,2026-03-04_14-04-36
1772633082710324700,6.34732470703125,-0.0195103908296674,-0.4485775879755616,0.7677332617461681,-0.1795792430639267,-0.0501763895153999,0.0512139648199081,walking,2026-03-04_14-04-36
1772633082720273700,6.357273681640625,-0.0784877727162092,-0.496140134139359,0.7059411146998406,-0.199965626001358,-0.0608068257570266,0.0481240972876548,walking,2026-03-04_14-04-36
1772633082730222600,6.36722265625,-0.1983187786899506,-0.494775713918358,0.6588970394521951,-0.2312183529138565,-0.087250679731369,0.0309384558349847,walking,2026-03-04_14-04-36
1772633082740171800,6.377171875,-0.3300698664948344,-0.5086845584139228,0.586512771242857,-0.2514715194702148,-0.104012593626976,0.011229951865971,walking,2026-03-04_14-04-36
1772633082750120700,6.38712060546875,-0.3846729788199067,-0.4741510051712393,0.4051233539134263,-0.2554004788398742,-0.0970542877912521,0.0057387799024581,walking,2026-03-04_14-04-36
1772633082760069600,6.397069580078125,-0.4041624729920178,-0.357382674703747,0.1808165858775377,-0.2466311603784561,-0.0735364705324173,0.0167476348578929,walking,2026-03-04_14-04-36
1772633082770018800,6.407018798828125,-0.3396552948333323,-0.2406472235925495,0.0270066648691892,-0.2316660434007644,-0.0580999851226806,0.0506041347980499,walking,2026-03-04_14-04-36
1772633082779967700,6.4169677734375,-0.2271471060283482,-0.1459255974993109,-0.057179100292921,-0.204668179154396,-0.0532086417078971,0.0973936691880226,walking,2026-03-04_14-04-36
1772633082789916700,6.426916748046875,-0.1533660496983677,-0.0748036043107509,-0.1199134966254234,-0.1633282005786895,-0.0332993790507316,0.151037186384201,walking,2026-03-04_14-04-36
1772633082799865600,6.436865478515625,-0.1184029459320008,-0.0435210156880319,-0.1623801809549331,-0.1196838095784187,0.0045426180586218,0.1977571696043014,walking,2026-03-04_14-04-36
1772633082809814800,6.446814697265625,-0.1026267731945961,-0.0940101168230175,-0.0944113911002874,-0.0863727256655693,0.0309790205210447,0.2303345501422882,walking,2026-03-04_14-04-36
1772633082819763700,6.456763671875,-0.1343152392044663,-0.2409615502387285,0.1392605866521596,-0.0771207138895988,0.0376687608659267,0.2395635098218917,walking,2026-03-04_14-04-36
1772633082829712600,6.466712646484375,-0.1826993308842182,-0.4102100095279514,0.4114204082310199,-0.0878652408719062,0.0307424142956733,0.2300792038440704,walking,2026-03-04_14-04-36
1772633082839661600,6.47666162109375,-0.1670233305856585,-0.5563011728525161,0.6595031886518001,-0.1188363134860992,0.0170571226626634,0.218524768948555,walking,2026-03-04_14-04-36
1772633082849610800,6.48661083984375,-0.1021842901241034,-0.6517872074469924,0.8493062140613794,-0.1580747961997985,0.0079009076580405,0.2101166397333145,walking,2026-03-04_14-04-36
1772633082859559700,6.4965595703125,0.0034780513741075,-0.7065043015405535,0.868977129215002,-0.1807067096233368,0.0240247081965208,0.2090967297554016,walking,2026-03-04_14-04-36
1772633082869508900,6.5065087890625,0.1409856568790972,-0.6966467782624065,0.7318173142343759,-0.1829565465450287,0.0388529226183891,0.2263923734426498,walking,2026-03-04_14-04-36
1772633082879457800,6.516457763671875,0.2703370631311089,-0.5976705634646118,0.5360293691962957,-0.160762071609497,0.0319591425359249,0.2468557208776474,walking,2026-03-04_14-04-36
1772633082889406700,6.52640673828125,0.3850069600146263,-0.5338021946661174,0.3286865954428911,-0.1127194389700889,0.0127990320324897,0.2659393846988678,walking,2026-03-04_14-04-36
1772633082899355600,6.536355712890625,0.418972577176243,-0.5062127614729106,0.0709866763710975,-0.0572531223297119,0.0019518767949193,0.2654732465744018,walking,2026-03-04_14-04-36
1772633082909304600,6.5463046875,0.3176927616111934,-0.4913781804345548,-0.1460498084008693,-0.0153253823518753,-0.0090264724567532,0.2487933486700058,walking,2026-03-04_14-04-36
1772633082919253800,6.556253662109375,0.2020218709915876,-0.4605927276790141,-0.241868728211522,-0.0044040246866643,-0.0196327771991491,0.2246994525194168,walking,2026-03-04_14-04-36
1772633082929202700,6.56620263671875,0.1838293212948367,-0.4540430137746036,-0.2803442970782518,-0.0257937349379062,-0.0301629174500703,0.2122246772050857,walking,2026-03-04_14-04-36
1772633082939152000,6.57615185546875,0.1666281207229942,-0.3312843568511307,-0.3327478535324334,-0.0595531873404979,-0.0258330460637807,0.2127812951803207,walking,2026-03-04_14-04-36
1772633082949100800,6.586100830078125,0.1355141301328316,-0.2007626647107303,-0.5327934560149907,-0.0835210978984832,-0.0014837628696113,0.2307658940553665,walking,2026-03-04_14-04-36
1772633082959050800,6.59605078125,0.1142157599078491,-0.0202307409934699,-0.8224439260989427,-0.0804615244269371,0.0377758592367172,0.2730562090873718,walking,2026-03-04_14-04-36
1772633082968999700,6.605999755859375,0.0881879865407943,0.1552395154200494,-1.141366667896509,-0.0457421615719795,0.1055367961525917,0.3255742788314819,walking,2026-03-04_14-04-36
1772633082978948900,6.615948974609375,0.0513005271157249,0.2609660812608897,-1.439133808940649,0.0177404526621103,0.2034762650728225,0.3890266120433807,walking,2026-03-04_14-04-36
1772633082988897800,6.625897705078125,0.0547192860506474,0.2543298581168055,-1.5878338395893572,0.1196907833218574,0.2978027462959289,0.4794737100601196,walking,2026-03-04_14-04-36
1772633082998846700,6.6358466796875,0.1005741515137255,0.1295600075013935,-1.6650532728701828,0.2339496463537216,0.3592821955680847,0.5498504638671875,walking,2026-03-04_14-04-36
