time,seconds_elapsed,acc_x,acc_y,acc_z,gyr_x,gyr_y,gyr_z,activity,session
1772633220847677000,0.069677001953125,-0.5046578601811081,0.4873042089939117,1.866346829587221,0.3748396039009094,-0.247181549668312,0.1884327530860901,walking,2026-03-04_14-07-00
1772633220857625900,0.0796259765625,-0.5993043386789039,0.4463452988788485,1.9349182615101337,0.1610784977674484,-0.0812594145536422,0.1603127866983413,walking,2026-03-04_14-07-00
1772633220867575800,0.089575927734375,-0.5983477320738136,0.3714826578572392,1.8464052807986733,-0.0253771394491195,0.130613699555397,0.1514553725719452,walking,2026-03-04_14-07-00
1772633220877524700,0.099524658203125,-0.6388948465175927,0.390049118900299,1.6214935326069593,-0.1775881797075271,0.2829270958900451,0.1487741470336914,walking,2026-03-04_14-07-00
1772633220887474000,0.109473876953125,-0.5845447225729004,0.4528080651521682,1.4974667554438112,-0.2863641679286957,0.3355503678321838,0.1527305394411087,walking,2026-03-04_14-07-00
1772633220897423000,0.119423095703125,-0.4933002345383167,0.3649444882601499,1.3146698094040157,-0.3399877846240997,0.3281298577785492,0.1553641110658645,walking,2026-03-04_14-07-00
1772633220907372000,0.1293720703125,-0.4550709685828537,0.2817398430898785,1.0349538733571768,-0.3489921987056732,0.3218693137168884,0.1508833467960357,walking,2026-03-04_14-07-00
1772633220917321000,0.139321044921875,-0.5245532682729884,0.2654053788825869,0.7357230895012616,-0.3289494514465332,0.3277091681957245,0.1473163515329361,walking,2026-03-04_14-07-00
1772633220927270000,0.149269775390625,-0.5686653451893479,0.2579515557453036,0.5428501551270485,-0.2966288030147552,0.3192403018474579,0.1455157846212387,walking,2026-03-04_14-07-00
1772633220937218800,0.15921875,-0.5182642876639962,0.1551435076996684,0.5259592260807753,-0.2618092894554138,0.2821765840053558,0.1496019959449768,walking,2026-03-04_14-07-00
1772633220947168000,0.16916796875,-0.4141471297811716,0.0044984804630279,0.5754477718710899,-0.2339704781770706,0.2209334522485733,0.1610053926706314,walking,2026-03-04_14-07-00
1772633220957117700,0.17911767578125,-0.3107163101946935,-0.0948047743320465,0.6932926455289125,-0.2176050990819931,0.1442983895540237,0.1804520487785339,walking,2026-03-04_14-07-00
1772633220967067000,0.18906689453125,-0.2103107932461425,-0.1488371010318398,0.8258616255879402,-0.2044421583414077,0.0716276466846466,0.2056692540645599,walking,2026-03-04_14-07-00
1772633220977016000,0.19901611328125,-0.1543313145339488,-0.238336462432146,0.9143331052452324,-0.2094209194183349,0.0047121848911046,0.2239508032798767,walking,2026-03-04_14-07-00
1772633220986965000,0.208965087890625,-0.1926059174684807,-0.3882987681016325,0.9880921689391136,-0.2218024879693985,-0.0448977127671241,0.2273058593273162,walking,2026-03-04_14-07-00
1772633220996914000,0.218913818359375,-0.2571692462611943,-0.5379565378665924,0.974340706962347,-0.2382413893938064,-0.0587064363062381,0.2272188812494278,walking,2026-03-04_14-07-00
1772633221006862800,0.22886279296875,-0.3262160771435126,-0.5931663839131593,0.9312170200288296,-0.2552099823951721,-0.0399990603327751,0.219671219587326,walking,2026-03-04_14-07-00
1772633221016811800,0.238811767578125,-0.423210433941707,-0.6341957289159298,0.8216980761677026,-0.2610243856906891,0.0185457523912191,0.2115433067083358,walking,2026-03-04_14-07-00
1772633221026760700,0.2487607421875,-0.4590318715704605,-0.6478539596512913,0.6513298190683126,-0.2555622458457947,0.0842182338237762,0.2047716975212097,walking,2026-03-04_14-07-00
1772633221036710100,0.258710205078125,-0.4445660873118788,-0.6156191848702728,0.5957242517024278,-0.2563942074775696,0.1244674101471901,0.198889285326004,walking,2026-03-04_14-07-00
1772633221046659000,0.2686591796875,-0.3978059435721486,-0.6040851066820323,0.6328630190074443,-0.2717284262180328,0.1473287791013717,0.2075914293527603,walking,2026-03-04_14-07-00
1772633221056608000,0.27860791015625,-0.3466314174562692,-0.6401490843623876,0.6980161669194698,-0.2881595492362976,0.1582045257091522,0.2198289334774017,walking,2026-03-04_14-07-00
1772633221066558000,0.288557861328125,-0.3153680084580555,-0.6700934101186692,0.7425146493375301,-0.2930278182029724,0.1378129571676254,0.2269518375396728,walking,2026-03-04_14-07-00
1772633221076507000,0.2985068359375,-0.3315263489134609,-0.6641857935100793,0.725166624173522,-0.2770495116710663,0.0959239304065704,0.2278469949960708,walking,2026-03-04_14-07-00
1772633221086455800,0.308455810546875,-0.3557700518753379,-0.6918447848081588,0.6353723714798688,-0.2409245371818542,0.056196492165327,0.2283625900745391,walking,2026-03-04_14-07-00
1772633221096405000,0.318405029296875,-0.3385062343960627,-0.7509184666760266,0.5161030179768801,-0.1924664080142974,0.0209187977015972,0.236454889178276,walking,2026-03-04_14-07-00
1772633221106354000,0.32835400390625,-0.3085000589173287,-0.753093034236133,0.4472475084155797,-0.1350680887699127,0.0029126312583684,0.2513920366764068,walking,2026-03-04_14-07-00
1772633221116302800,0.338302734375,-0.2692540354010649,-0.8185923652373254,0.3959200567603111,-0.0787641555070877,-4.99130692332e-05,0.263498842716217,walking,2026-03-04_14-07-00
1772633221126252000,0.348251953125,-0.2837672024653293,-0.9013567192941904,0.3159592158168554,-0.024387726560235,0.0269098002463579,0.2745302021503448,walking,2026-03-04_14-07-00
1772633221136201000,0.358200927734375,-0.322718626949191,-0.9005427725628018,0.3389280034720897,0.0112498942762613,0.0471508875489234,0.2787664830684662,walking,2026-03-04_14-07-00
1772633221146150000,0.36814990234375,-0.3265654020378365,-0.9173409087590872,0.5040595289617776,0.0131769571453332,0.0390495546162128,0.283150851726532,walking,2026-03-04_14-07-00
1772633221156098800,0.378098876953125,-0.2397306567369029,-1.023169912061095,0.7696276971906423,-0.014948128722608,0.0152605213224887,0.2850933670997619,walking,2026-03-04_14-07-00
1772633221166049000,0.388049072265625,-0.1724665080202743,-1.1491888859547674,0.947848421356082,-0.0547040626406669,0.0008072804193943,0.2809571921825409,walking,2026-03-04_14-07-00
1772633221175998000,0.397998046875,-0.2231827507083304,-1.2357765976920725,0.9033756579011678,-0.0918148607015609,0.0044797696173191,0.2715409994125366,walking,2026-03-04_14-07-00
1772633221185947000,0.40794677734375,-0.2985115296706557,-1.2100516431964934,0.7651759784787893,-0.1283941715955734,0.0375138856470584,0.2643174231052398,walking,2026-03-04_14-07-00
1772633221195895800,0.417895751953125,-0.3245010533865541,-1.183352729102224,0.5574193632274865,-0.1451857835054397,0.0557523667812347,0.2699780464172363,walking,2026-03-04_14-07-00
1772633221205845000,0.427844970703125,-0.2333024320540018,-1.1623176859885451,0.3210492324322462,-0.1310968697071075,0.0758776068687439,0.2684262096881866,walking,2026-03-04_14-07-00
1772633221215794000,0.4377939453125,-0.2100832133016549,-1.1584326612487434,0.0069867901474237,-0.0908513888716697,0.0925946533679962,0.2569729089736938,walking,2026-03-04_14-07-00
1772633221225742800,0.447742919921875,-0.2934612970763817,-1.0467147460386157,-0.2972767271786928,-0.0449605993926525,0.1048265546560287,0.2340827882289886,walking,2026-03-04_14-07-00
1772633221235692000,0.457692138671875,-0.4325279320590198,-0.9570506955958902,-0.5125345118403435,-0.0124189779162406,0.0915277525782585,0.1967980861663818,walking,2026-03-04_14-07-00
1772633221245641000,0.467640869140625,-0.5583199653290212,-0.8448676470920443,-0.5815490113556385,-0.0207512099295854,0.058344766497612,0.1570610702037811,walking,2026-03-04_14-07-00
1772633221255591000,0.4775908203125,-0.611753924276866,-0.7531750134311616,-0.5723743557751179,-0.0591250285506248,0.0244751591235399,0.1323218643665313,walking,2026-03-04_14-07-00
1772633221265539800,0.487539794921875,-0.5887030843613669,-0.654135085747391,-0.6408914271622895,-0.0928347930312156,0.006780051626265,0.1308174580335617,walking,2026-03-04_14-07-00
1772633221275488800,0.49748876953125,-0.5374235269684344,-0.5533087130382657,-0.8599170399248599,-0.1044829785823822,0.0120516568422317,0.1348596960306167,walking,2026-03-04_14-07-00
1772633221285437700,0.507437744140625,-0.5106440219186246,-0.5332213260382413,-1.1943886485099793,-0.0806870982050895,0.0882303193211555,0.1382395178079605,walking,2026-03-04_14-07-00
1772633221295387100,0.51738720703125,-0.4940723879545927,-0.5527610160276294,-1.587554438126087,-0.01815702393651,0.1748580634593963,0.1597503274679184,walking,2026-03-04_14-07-00
1772633221305336000,0.527336181640625,-0.5020781824188306,-0.5581175746247172,-1.872954849550128,0.0748645216226577,0.2835312783718109,0.1880014091730117,walking,2026-03-04_14-07-00
1772633221315285000,0.537284912109375,-0.3856425910370424,-0.6120563778221607,-1.9137749357163905,0.1665505170822143,0.3371007442474365,0.2137360721826553,walking,2026-03-04_14-07-00
1772633221325234000,0.54723388671875,-0.4666026721509173,-0.6778108526282012,-1.80745157302618,0.2350078672170639,0.3228645324707031,0.2085727453231811,walking,2026-03-04_14-07-00
1772633221335182800,0.557182861328125,-0.4117104772187769,-0.8906007858715951,-1.5368085857510565,0.2672384083271026,0.2504082024097442,0.2056860923767089,walking,2026-03-04_14-07-00
1772633221345131800,0.5671318359375,-0.2633145806157961,-1.1276792110666631,-1.2333633990705013,0.2631368637084961,0.147745206952095,0.2114609032869339,walking,2026-03-04_14-07-00
1772633221355081700,0.577081787109375,-0.1626279086383059,-1.2622552931644022,-0.969717138814926,0.2215767204761505,0.0300750974565744,0.2089570164680481,walking,2026-03-04_14-07-00
1772633221365031000,0.587031005859375,-0.1258049840831197,-1.2961276060193776,-0.8063210588157177,0.1471727937459945,-0.0725953578948974,0.1932451725006103,walking,2026-03-04_14-07-00
1772633221374980000,0.59697998046875,-0.1713161689413711,-1.2596161768324672,-0.8086474559366702,0.0559663474559783,-0.1339894235134124,0.1676678359508514,walking,2026-03-04_14-07-00
1772633221384929000,0.606928955078125,-0.2789096976978704,-1.1174844186581672,-0.9675006318092344,-0.0161512568593025,-0.145823448896408,0.1406375467777252,walking,2026-03-04_14-07-00
1772633221394878000,0.6168779296875,-0.3410072939641773,-0.8196965270869433,-1.252938452634215,-0.05268419906497,-0.1146592274308204,0.1283288449048996,walking,2026-03-04_14-07-00
1772633221404827000,0.626826904296875,-0.3231179649977013,-0.3745763860888779,-1.5807669699430464,-0.0459711700677871,-0.0412731580436229,0.122538611292839,walking,2026-03-04_14-07-00
1772633221414775800,0.63677587890625,-0.2763958517134189,0.0511265222556889,-1.84572255923152,-0.0132458712905645,0.0390122830867767,0.134107694029808,walking,2026-03-04_14-07-00
1772633221424724700,0.646724853515625,-0.1880383538246154,0.3655952072538435,-1.9297487499177453,0.0318313241004943,0.0950632989406585,0.1611733883619308,walking,2026-03-04_14-07-00
1772633221434674000,0.656673828125,-0.0838269143876153,0.6862966491617262,-1.8100602942198516,0.0771513059735298,0.1120545491576194,0.196530282497406,walking,2026-03-04_14-07-00
1772633221444623000,0.666623046875,-0.0248913806151133,0.9389153194464742,-1.599772114664316,0.1418400257825851,0.119791567325592,0.2366712987422943,walking,2026-03-04_14-07-00
1772633221454572800,0.67657275390625,0.0205348750391975,1.118431928641349,-1.4439403324395417,0.2408857643604278,0.1287455409765243,0.2743434906005859,walking,2026-03-04_14-07-00
1772633221464522000,0.68652197265625,-0.00274054001295,1.2159293030582368,-1.2979355322241783,0.3674698173999786,0.1500449627637863,0.2962581217288971,walking,2026-03-04_14-07-00
1772633221474471000,0.696470947265625,0.0094904891971964,1.2623431175783275,-1.0812696343302726,0.5040164589881897,0.1913873553276062,0.3077322244644165,walking,2026-03-04_14-07-00
1772633221484419800,0.706419921875,0.0326848566360771,1.237903672848642,-0.7234738487809896,0.6220690608024597,0.2387897670269012,0.306202232837677,walking,2026-03-04_14-07-00
1772633221494369000,0.716369140625,0.1102780551327392,1.2108768419742584,-0.1886287209331989,0.6954405903816223,0.2567101716995239,0.299984335899353,walking,2026-03-04_14-07-00
1772633221504318000,0.72631787109375,0.2596346682603471,1.139018935726583,0.4484545461177825,0.7235846519470215,0.2825854420661926,0.2972117364406585,walking,2026-03-04_14-07-00
1772633221514267000,0.736266845703125,0.404804387624748,1.0679065871492028,0.9973363826245067,0.679356038570404,0.2377232909202575,0.2963928878307342,walking,2026-03-04_14-07-00
1772633221524216000,0.746216064453125,0.5454157312987372,1.0653794067591429,1.6158844605535267,0.5852090120315552,0.1518254280090332,0.2860158681869507,walking,2026-03-04_14-07-00
1772633221534165000,0.7561650390625,0.6901029095768928,0.9886053791582584,2.06944772798717,0.4430477321147918,0.0414796769618988,0.2817531228065491,walking,2026-03-04_14-07-00
1772633221544114000,0.766114013671875,0.7541144862383604,0.952984615200758,2.364241990700364,0.2821941375732422,-0.0638701766729354,0.2793048620223999,walking,2026-03-04_14-07-00
1772633221554064000,0.77606396484375,0.6923701238565146,1.028302598774433,2.431648470497131,0.1224555000662803,-0.1402373760938644,0.263573557138443,walking,2026-03-04_14-07-00
1772633221564013000,0.786012939453125,0.541343476891145,1.0287664168938997,2.302559149247408,-0.0073120817542076,-0.1728624254465103,0.2212050408124923,walking,2026-03-04_14-07-00
1772633221573962000,0.7959619140625,0.256769871680066,0.976746306799352,1.866591744259,-0.1047909036278724,-0.1610698401927948,0.1642141044139862,walking,2026-03-04_14-07-00
1772633221583911000,0.805910888671875,0.0286089946324471,1.028396122276783,1.394450033083558,-0.1770874857902526,-0.1335950791835785,0.1154324412345886,walking,2026-03-04_14-07-00
1772633221593859800,0.81585986328125,-0.0565926147750113,1.1370441285222768,1.0499334158241749,-0.2375820279121399,-0.1169251874089241,0.0848830267786979,walking,2026-03-04_14-07-00
1772633221603808800,0.825808837890625,0.0266847942373715,1.2380290527939797,0.8114344563066959,-0.2845809459686279,-0.1039894148707389,0.0811125263571739,walking,2026-03-04_14-07-00
1772633221613758000,0.835758056640625,0.0664953106354456,1.342963006952405,0.561189529415965,-0.3149807751178741,-0.0932474136352539,0.080497145652771,walking,2026-03-04_14-07-00
1772633221623707000,0.845706787109375,-0.0306248462331946,1.390997846803069,0.3291659033924341,-0.3218376338481903,-0.0792602226138114,0.0805099308490753,walking,2026-03-04_14-07-00
1772633221633656000,0.855656005859375,-0.0960591217746958,1.3944994251832366,0.0967997475415468,-0.3113528788089752,-0.0410627499222755,0.0867296904325485,walking,2026-03-04_14-07-00
1772633221643605000,0.86560498046875,-0.0985047065622173,1.3837687723323702,-0.0836164408415555,-0.2785427272319793,0.0191534534096717,0.0957889631390571,walking,2026-03-04_14-07-00
1772633221653555000,0.875554931640625,-0.0934839283912908,1.3191907939597964,-0.1724310348480939,-0.2316810637712478,0.0775379762053489,0.1050354018807411,walking,2026-03-04_14-07-00
1772633221663504000,0.88550390625,-0.0728437846130225,1.1945917698666453,-0.1225835926175117,-0.190834030508995,0.1137668266892433,0.1068450212478637,walking,2026-03-04_14-07-00
1772633221673452800,0.895452880859375,-0.0140399874614085,1.0321779789030552,0.0500327356696128,-0.1634281724691391,0.1228440552949905,0.1077334806323051,walking,2026-03-04_14-07-00
1772633221683401700,0.905401611328125,0.0614888167181983,0.85058251760751,0.28307050717175,-0.154487669467926,0.128110185265541,0.1175312474370002,walking,2026-03-04_14-07-00
1772633221693351000,0.915350830078125,0.1712889156082645,0.723695090316236,0.5162251830518245,-0.1502101272344589,0.138977825641632,0.142950564622879,walking,2026-03-04_14-07-00
1772633221703300000,0.925300048828125,0.3216259728742763,0.6146925715446472,0.7238485273122787,-0.1504815071821212,0.1339465826749801,0.162807360291481,walking,2026-03-04_14-07-00
1772633221713249000,0.9352490234375,0.3493737749669701,0.488385282228887,0.8393915537685155,-0.1435166597366333,0.0942128524184227,0.1629279404878616,walking,2026-03-04_14-07-00
1772633221723198000,0.945197998046875,0.2993391396012157,0.3088780253842473,0.8365829260885715,-0.1153300404548645,0.0639012828469276,0.1630403250455856,walking,2026-03-04_14-07-00
1772633221733147000,0.95514697265625,0.2843807860527187,0.1722901650726795,0.7556745751619338,-0.0862505659461021,0.0499045960605144,0.1639677286148071,walking,2026-03-04_14-07-00
1772633221743095800,0.965095703125,0.2917059413090348,0.1086935989528894,0.7511509602576494,-0.0741499587893486,0.0189213808625936,0.162795141339302,walking,2026-03-04_14-07-00
1772633221753045800,0.975045654296875,0.3540310992535203,0.0139212655857205,0.9224790022999048,-0.096166506409645,-0.039342425763607,0.1602622419595718,walking,2026-03-04_14-07-00
1772633221762995000,0.984994873046875,0.4143142299763858,-0.1398150056645274,1.0829027884900568,-0.1415198594331741,-0.0846838057041168,0.157963141798973,walking,2026-03-04_14-07-00
1772633221772944000,0.99494384765625,0.4166950606983154,-0.2618649297967553,1.077257476079464,-0.1950606107711792,-0.1093819364905357,0.1492993384599685,walking,2026-03-04_14-07-00
1772633221782893000,1.00489306640625,0.2736200485908426,-0.2813330158546567,0.9876087693363428,-0.2476857453584671,-0.1056215539574623,0.1301757097244262,walking,2026-03-04_14-07-00
1772633221792842000,1.014842041015625,0.1389151342153549,-0.2945344427332282,0.8333435057759284,-0.2865699827671051,-0.0920616313815116,0.1086338236927986,walking,2026-03-04_14-07-00
1772633221802791000,1.024791015625,0.100433628798183,-0.3556346619926392,0.5881108540892601,-0.2930526435375213,-0.0466808304190635,0.0902905017137527,walking,2026-03-04_14-07-00
1772633221812739800,1.03473974609375,0.0302154754144372,-0.3923778541088104,0.2041255652725696,-0.2691156268119812,-0.0009407079778611,0.0613204911351203,walking,2026-03-04_14-07-00
1772633221822688800,1.044688720703125,-0.0275355704143876,-0.3471425818488001,-0.0300508548706769,-0.2283556908369064,0.0374697968363761,0.0282509550452232,walking,2026-03-04_14-07-00
1772633221832638000,1.054637939453125,-0.0408109301788499,-0.4201677783101797,-0.1555266617983579,-0.1934804469347,0.0539747178554534,0.0058977580629289,walking,2026-03-04_14-07-00
1772633221842587000,1.0645869140625,0.0489661750171799,-0.4383377873815596,-0.1124900686264038,-0.1678531169891357,0.0592954456806182,0.0005045905709266,walking,2026-03-04_14-07-00
1772633221852536800,1.074536865234375,0.170933160973154,-0.523262826603651,-0.0356143342167139,-0.1489215344190597,0.0660613030195236,-0.0032403748482465,walking,2026-03-04_14-07-00
1772633221862485800,1.08448583984375,0.2402318842573091,-0.5840269457764923,0.0240589209794998,-0.1295536905527115,0.0683534890413284,-0.0050481287762522,walking,2026-03-04_14-07-00
1772633221872435000,1.09443505859375,0.2153737026588991,-0.6544317306064069,0.0330967984378337,-0.1052742525935173,0.0672338455915451,-0.0178497098386287,walking,2026-03-04_14-07-00
1772633221882384000,1.1043837890625,0.1692948191815987,-0.7498311098307371,-0.038542204362154,-0.0613355562090873,0.0822391584515571,-0.0232460722327232,walking,2026-03-04_14-07-00
1772633221892333000,1.1143330078125,0.22732312018238,-0.8164191128514706,-0.1317892278581857,-0.0119516141712665,0.092955008149147,-0.0186123624444007,walking,2026-03-04_14-07-00
1772633221902282000,1.124281982421875,0.2803226515020243,-0.8718212665997445,-0.0974088193506002,0.0303633529692888,0.080580897629261,-0.0194035843014717,walking,2026-03-04_14-07-00
1772633221912231000,1.13423095703125,0.3514463799899444,-0.986637440086156,-0.0015524901390075,0.060703121125698,0.0711129084229469,-0.0173047631978988,walking,2026-03-04_14-07-00
1772633221922179800,1.144179931640625,0.3798918454905972,-1.1467020375750958,0.0365127443611621,0.0839735567569732,0.0699885189533233,-0.0267435405403375,walking,2026-03-04_14-07-00
1772633221932129000,1.15412890625,0.3299093787034973,-1.2456931576810777,0.0232534498155117,0.0852858200669288,0.0550283640623092,-0.0447143465280532,walking,2026-03-04_14-07-00
1772633221942078000,1.164077880859375,0.3020301687834784,-1.2827718653619289,0.0844207429617643,0.0549084767699241,0.009988185018301,-0.0622203722596168,walking,2026-03-04_14-07-00
1772633221952027000,1.17402685546875,0.3686563483901321,-1.2687865946292876,0.1847971799463033,-0.0004568407312035,-0.0381802953779697,-0.0677455365657806,walking,2026-03-04_14-07-00
1772633221961977000,1.18397705078125,0.4781077799730002,-1.2056402564950286,0.178204942074418,-0.0581297241151332,-0.0746315121650695,-0.0623422488570213,walking,2026-03-04_14-07-00
1772633221971926000,1.193926025390625,0.504450902899541,-1.0490754838205874,-0.0076870473712682,-0.0977801159024238,-0.0868851691484451,-0.0627579241991043,walking,2026-03-04_14-07-00
1772633221981875000,1.203875,0.4634074563061818,-0.8675910816840827,-0.3287771963357925,-0.1204718425869941,-0.0625859498977661,-0.0675532147288322,walking,2026-03-04_14-07-00
1772633221991824000,1.213823974609375,0.4252416109757497,-0.7141831656053662,-0.7628875752806663,-0.1454809457063675,-0.0563435778021812,-0.0812119767069816,walking,2026-03-04_14-07-00
1772633222001772800,1.223772705078125,0.40077235562969,-0.640613633134216,-1.055886186748743,-0.1603248715400695,0.0075291451066732,-0.0869721323251724,walking,2026-03-04_14-07-00
1772633222011721700,1.2337216796875,0.5523434847353026,-0.622922201360017,-1.355555362021923,-0.1558513641357422,0.1286419332027435,-0.0666032433509826,walking,2026-03-04_14-07-00
1772633222021671000,1.2436708984375,0.4962162681154906,-0.4318303051836788,-1.7381833910107611,-0.1086596176028251,0.2914598882198334,-0.0561689771711826,walking,2026-03-04_14-07-00
1772633222031620000,1.2536201171875,0.4252900166947394,-0.252268249411881,-2.075947026878595,-0.0367795899510383,0.4221282005310058,-0.050468623638153,walking,2026-03-04_14-07-00
1772633222041569000,1.263569091796875,0.4280176150277257,-0.2041584446288645,-2.1817986804038285,0.027609521523118,0.4340993762016296,-0.0388236865401268,walking,2026-03-04_14-07-00
1772633222051518000,1.27351806640625,0.5396122691843659,-0.1954873546563088,-1.98915955478549,0.0925090163946151,0.3976259529590606,-0.0173497442156076,walking,2026-03-04_14-07-00
1772633222061468000,1.283468017578125,0.6429567621942609,-0.182575558374077,-1.764045562019944,0.1454222947359085,0.3351868093013763,0.0083239274099469,walking,2026-03-04_14-07-00
1772633222071416800,1.293416748046875,0.6472475181907416,-0.1182118072740733,-1.5021400079518556,0.1976862251758575,0.2486172765493393,0.0327181592583656,walking,2026-03-04_14-07-00
1772633222081365800,1.30336572265625,0.6475292577415704,-0.0820725724004209,-1.253641632467508,0.2412989437580108,0.1237794682383537,0.048496589064598,walking,2026-03-04_14-07-00
1772633222091314700,1.313314697265625,0.6125885484701022,-0.067252896670252,-0.9843488907575608,0.2568685710430145,-0.012866741977632,0.0507024824619293,walking,2026-03-04_14-07-00
1772633222101264000,1.323263916015625,0.4844175841743126,0.0297736453644931,-0.6945622270733117,0.2212224155664444,-0.1371197253465652,0.056696992367506,walking,2026-03-04_14-07-00
1772633222111213000,1.333213134765625,0.3648367535693571,0.2056552590578794,-0.4172662116497754,0.1335600763559341,-0.2261452823877334,0.0786605402827262,walking,2026-03-04_14-07-00
1772633222121162000,1.343161865234375,0.2046402002638205,0.3786091487362981,-0.2431798108100891,0.024923600256443,-0.2372916787862777,0.1054231747984886,walking,2026-03-04_14-07-00
1772633222131111000,1.35311083984375,-0.0600193834864534,0.5633515297554433,-0.3695505207508802,-0.0707807466387748,-0.1655956208705902,0.1405019760131836,walking,2026-03-04_14-07-00
1772633222141059800,1.363059814453125,-0.3707616501063108,0.749441525991261,-0.6699737292617559,-0.1217230185866355,-0.0450580120086669,0.1648403406143188,walking,2026-03-04_14-07-00
1772633222151008800,1.3730087890625,-0.675151862552017,0.9344505951225756,-1.0315057787299156,-0.1071778759360313,0.0641160532832145,0.1788985133171081,walking,2026-03-04_14-07-00
1772633222160957700,1.382957763671875,-0.8984189853418618,1.1090621888801455,-1.331933663415909,-0.0086342580616474,0.1943475604057312,0.1918811500072479,walking,2026-03-04_14-07-00
1772633222170908000,1.392907958984375,-1.0679776065587996,1.2878560367584229,-1.5454752918094397,0.135900929570198,0.3027908504009247,0.1936660706996917,walking,2026-03-04_14-07-00
1772633222180856800,1.40285693359375,-1.1247906500183045,1.4147496015295389,-1.4039882612794636,0.3400852382183075,0.4244749546051025,0.1840168982744217,walking,2026-03-04_14-07-00
1772633222190806000,1.412805908203125,-1.125382405366376,1.3942358058109878,-1.264033847144246,0.5102837681770325,0.4151978492736816,0.1550946682691574,walking,2026-03-04_14-07-00
1772633222200755000,1.4227548828125,-1.1353827711813151,1.3152018704541026,-0.6663952862530946,0.6400548219680786,0.3533286154270172,0.1155786737799644,walking,2026-03-04_14-07-00
1772633222210704000,1.432703857421875,-0.9722843589544296,1.0149895282149315,-0.0774345373362302,0.7030491828918457,0.2647056579589844,0.0728847160935401,walking,2026-03-04_14-07-00
1772633222220652800,1.44265283203125,-0.9363817093156278,0.7410784790545701,0.4688993682533502,0.6983188390731812,0.1941393166780471,0.0279521346092224,walking,2026-03-04_14-07-00
1772633222230602000,1.45260205078125,-1.0140024168737232,0.546314324106276,0.8986924685209989,0.6616994738578796,0.1353563517332077,-0.0332899950444698,walking,2026-03-04_14-07-00
1772633222240551000,1.462551025390625,-1.1351588262323289,0.435698817180097,1.1173065778732298,0.575896143913269,0.0123452050611376,-0.128565639257431,walking,2026-03-04_14-07-00
1772633222250499800,1.472499755859375,-1.3224156012251973,0.2828755691215395,1.4115905529767274,0.4685465097427368,-0.0807241648435592,-0.2447898685932159,walking,2026-03-04_14-07-00
1772633222260449000,1.482448974609375,-1.3645010311521588,0.158736271494627,1.521548472777009,0.3303321599960327,-0.1379171460866928,-0.3533599972724914,walking,2026-03-04_14-07-00
1772633222270399000,1.49239892578125,-1.3942837366059422,0.2545531454786658,1.5403770918875932,0.1496992856264114,-0.1619090884923935,-0.4470818638801574,walking,2026-03-04_14-07-00
1772633222280348000,1.502347900390625,-1.3362445123523472,0.3775190154120326,1.52083769415915,-0.0450760573148727,-0.1132499501109123,-0.5051464438438416,walking,2026-03-04_14-07-00
1772633222290296800,1.512296875,-1.1545762780815363,0.5389645458653569,1.357496559217572,-0.2276981920003891,-0.0197257585823535,-0.5195134878158569,walking,2026-03-04_14-07-00
1772633222300246000,1.52224609375,-1.041978292101249,0.8178516298726201,1.0609329487442969,-0.3647151589393616,0.0801792666316032,-0.5086885690689087,walking,2026-03-04_14-07-00
1772633222310195000,1.53219482421875,-0.9252512434922158,1.0396709650069476,0.6438993768066168,-0.4201269149780273,0.1672818660736084,-0.4739581942558288,walking,2026-03-04_14-07-00
1772633222320144000,1.542143798828125,-0.8355093055076896,1.16337216347754,0.1677221265047788,-0.4054704904556274,0.2145226150751114,-0.4358907043933868,walking,2026-03-04_14-07-00
1772633222330092800,1.5520927734375,-0.7668222843810916,1.2299071211367845,-0.1653033749252557,-0.342221736907959,0.2190651595592498,-0.3954369127750397,walking,2026-03-04_14-07-00
1772633222340042000,1.5620419921875,-0.6921089887022972,1.1876289451166986,-0.3682055358827114,-0.2367379069328308,0.177880972623825,-0.3650462329387665,walking,2026-03-04_14-07-00
1772633222349991000,1.571990966796875,-0.6727901018567383,1.0826312780722975,-0.4514315161019563,-0.1203676983714103,0.1110345125198364,-0.3399302661418915,walking,2026-03-04_14-07-00
1772633222359939800,1.58193994140625,-0.6056640464365481,0.9547773438364268,-0.3941735053539276,-0.005615544039756,0.0344009809195995,-0.31681028008461,walking,2026-03-04_14-07-00
1772633222369890000,1.59189013671875,-0.4873914488859474,0.8066162423700094,-0.2254875022530555,0.0908730998635292,-0.0211808308959007,-0.2884139716625213,walking,2026-03-04_14-07-00
1772633222379839000,1.6018388671875,-0.3583588262595236,0.6220166308224201,-0.0388636914014816,0.1665063500404358,-0.0459535531699657,-0.2568525969982147,walking,2026-03-04_14-07-00
1772633222389788000,1.611787841796875,-0.296393733799085,0.4226631022572517,0.1772381428688764,0.2097437232732772,-0.0412136241793632,-0.2332614362239837,walking,2026-03-04_14-07-00
1772633222399736800,1.62173681640625,-0.2960162057235836,0.2217570835530757,0.4777496141850948,0.2271578758955001,-0.0254988446831703,-0.2181336134672165,walking,2026-03-04_14-07-00
1772633222409685800,1.631685791015625,-0.306730565026775,0.0031783377751708,0.7450199101567268,0.2231301069259643,-0.0040316488593816,-0.2171867191791534,walking,2026-03-04_14-07-00
1772633222419635000,1.641635009765625,-0.3188478499304503,-0.1839686201676726,0.978236545357108,0.1980133056640625,0.0086125070229172,-0.2206283211708068,walking,2026-03-04_14-07-00
1772633222429584100,1.651584228515625,-0.2698649155747145,-0.315184139791131,1.218964286839962,0.1477387994527816,0.0110923424363136,-0.2240578830242157,walking,2026-03-04_14-07-00
1772633222439533000,1.661532958984375,-0.2075213451907038,-0.4015522174283862,1.4503876088827847,0.0794665440917015,-0.0115466574206948,-0.2182995975017547,walking,2026-03-04_14-07-00
1772633222449482000,1.67148193359375,-0.1064808182742446,-0.4638856317445635,1.6263690296888351,0.0090494249016046,-0.0672327578067779,-0.2068121582269668,walking,2026-03-04_14-07-00
1772633222459431000,1.681430908203125,-0.0129914373897016,-0.5014066763654351,1.5947352895408868,-0.0396936126053333,-0.1321166753768921,-0.1892701834440231,walking,2026-03-04_14-07-00
1772633222469379800,1.6913798828125,-0.0702857615601271,-0.4744087793245911,1.4106453810811042,-0.0688823014497757,-0.1822264194488525,-0.1874687671661377,walking,2026-03-04_14-07-00
1772633222479329800,1.701329833984375,-0.1903058603651821,-0.3905117679759859,1.1942203062057497,-0.0884354934096336,-0.2166850566864013,-0.1890946328639984,walking,2026-03-04_14-07-00
1772633222489278700,1.71127880859375,-0.2732552156001329,-0.2861541524007916,1.0259072280704975,-0.1143073067069053,-0.2266673892736435,-0.1783580929040908,walking,2026-03-04_14-07-00
1772633222499228000,1.721227783203125,-0.2793921109199523,-0.1890273648619651,0.928571473956108,-0.1427301615476608,-0.2096977233886718,-0.1607386171817779,walking,2026-03-04_14-07-00
1772633222509177000,1.731177001953125,-0.2602029514012858,-0.1242903965353965,0.8374825052767991,-0.1709261387586593,-0.1721063405275344,-0.1326852887868881,walking,2026-03-04_14-07-00
1772633222519126000,1.7411259765625,-0.2305785417817533,-0.0589580926641821,0.7215706455081701,-0.1908889263868332,-0.1215848475694656,-0.1008693054318428,walking,2026-03-04_14-07-00
1772633222529075000,1.751074951171875,-0.2346199991922825,0.0073892334684729,0.6317477512419224,-0.2030370235443115,-0.0742855370044708,-0.0668069943785667,walking,2026-03-04_14-07-00
1772633222539024000,1.76102392578125,-0.205870691906847,0.0422568409711122,0.6148357794076204,-0.2113141268491745,-0.0502901896834373,-0.0248595401644706,walking,2026-03-04_14-07-00
1772633222548972800,1.770972900390625,-0.1370982209865003,0.0438727517351508,0.6159422793447971,-0.2099878340959549,-0.0332982465624809,0.0182382836937904,walking,2026-03-04_14-07-00
1772633222558921700,1.780921630859375,-0.098394761648029,-0.0058890580385923,0.6207382814496756,-0.2066056132316589,-0.0298633016645908,0.0474987030029296,walking,2026-03-04_14-07-00
1772633222568871000,1.790870849609375,-0.1347988580029457,-0.0537003182664513,0.69087272490561,-0.2014480084180832,-0.0442463792860507,0.0687357410788536,walking,2026-03-04_14-07-00
1772633222578820000,1.800820068359375,-0.074097319204919,-0.1044604914277791,0.7077303362041711,-0.1814388781785965,-0.0531514585018157,0.1012966111302375,walking,2026-03-04_14-07-00
1772633222588769800,1.810769775390625,0.0316467092273756,-0.1783379208043217,0.6263216345399618,-0.1562273949384689,-0.058492325246334,0.1412013471126556,walking,2026-03-04_14-07-00
1772633222598719000,1.820718994140625,0.1443733630886301,-0.2305304648563265,0.6050631579339504,-0.1323122084140777,-0.0704493820667266,0.1758655905723571,walking,2026-03-04_14-07-00
1772633222608668000,1.83066796875,0.2157465545592829,-0.3463955628737807,0.5866594862371682,-0.1136369332671165,-0.0984150320291519,0.2045576125383377,walking,2026-03-04_14-07-00
1772633222618616800,1.840616943359375,0.2402827011290937,-0.5129936537846923,0.5119435602098703,-0.0952283665537834,-0.1119601354002952,0.2332116365432739,walking,2026-03-04_14-07-00
1772633222628566000,1.85056591796875,0.1844902694215998,-0.6168026955664158,0.3715677057921886,-0.079864889383316,-0.118494912981987,0.2390954792499542,walking,2026-03-04_14-07-00
1772633222638515000,1.860514892578125,0.0483002127885818,-0.7142518469274044,0.2676420518934727,-0.0758722797036171,-0.1312964558601379,0.2207979559898376,walking,2026-03-04_14-07-00
1772633222648464000,1.8704638671875,-0.0753532010175287,-0.8248414887599647,0.2047884130954742,-0.0959028527140617,-0.1432307213544845,0.1936707943677902,walking,2026-03-04_14-07-00
1772633222658413000,1.8804130859375,-0.1401429589772596,-0.9182242674648762,0.1226928982108831,-0.1320467591285705,-0.128573477268219,0.176050528883934,walking,2026-03-04_14-07-00
1772633222668362000,1.890362060546875,-0.2239422090398147,-0.902950856617838,-0.0068979428201913,-0.1736958473920822,-0.1068247184157371,0.1606138050556183,walking,2026-03-04_14-07-00
1772633222678310700,1.900310546875,-0.3067834642577916,-0.7842240855589508,-0.2065869869500398,-0.2011349350214004,-0.078871913254261,0.1448313742876052,walking,2026-03-04_14-07-00
1772633222688260600,1.910260498046875,-0.3665229165580123,-0.7096386540435254,-0.4788993687421083,-0.2071139961481094,-0.0534224994480609,0.1385431438684463,walking,2026-03-04_14-07-00
1772633222698209500,1.92020947265625,-0.4231269934419542,-0.607416589192301,-0.7545902870565653,-0.1950117796659469,-0.018532695248723,0.1374709457159042,walking,2026-03-04_14-07-00
1772633222708158500,1.930158447265625,-0.4424023334067314,-0.5990234393782913,-1.00633860424757,-0.1855195611715316,-0.0030211457051336,0.1346958875656128,walking,2026-03-04_14-07-00
1772633222718107400,1.940107421875,-0.4138050018126145,-0.636851942513138,-1.1779103919178249,-0.1242865547537803,0.0984663292765617,0.1503776460886001,walking,2026-03-04_14-07-00
1772633222728056600,1.950056640625,-0.3118674895238131,-0.7235901686370373,-1.4514192900180816,-0.0432745926082134,0.1738027781248092,0.1803014278411865,walking,2026-03-04_14-07-00
1772633222738005800,1.960005859375,-0.3041037601871416,-0.627104601611197,-1.60659056250751,0.0320435985922813,0.1749721765518188,0.2021446675062179,walking,2026-03-04_14-07-00
1772633222747954700,1.96995458984375,-0.1617730088420212,-0.6209633223772049,-1.5081079764455556,0.0908146873116493,0.1182233691215515,0.2411179989576339,walking,2026-03-04_14-07-00
1772633222757903600,1.979903564453125,-0.0027457550441846,-0.7817970045424998,-1.3530565309435127,0.1199619248509407,0.0421517714858055,0.2848119437694549,walking,2026-03-04_14-07-00
1772633222767852500,1.9898525390625,0.0386639310456812,-0.8459354224540293,-1.2085557055503129,0.1245859116315841,-0.0278750527650117,0.3129558265209198,walking,2026-03-04_14-07-00
1772633222777801500,1.999801513671875,-0.0566189821921288,-0.9271079772748052,-1.159835806044936,0.1168137490749359,-0.0880478471517562,0.3212835192680359,walking,2026-03-04_14-07-00
1772633222787750400,2.00975048828125,-0.1627966528013348,-0.9561381107956172,-1.1873714632242918,0.0862448662519455,-0.1432728767395019,0.3159099221229553,walking,2026-03-04_14-07-00
1772633222797700600,2.01970068359375,-0.256793106425181,-0.8664217456437647,-1.1767916170209645,0.0328492894768714,-0.2144048511981964,0.3003453314304352,walking,2026-03-04_14-07-00
1772633222807649500,2.0296494140625,-0.3290077902212738,-0.6922114261634648,-1.1542571291297674,-0.0463819541037082,-0.2824702560901642,0.268770307302475,walking,2026-03-04_14-07-00
1772633222817598500,2.039598388671875,-0.4441431126594543,-0.4647840418890118,-1.1947288402497769,-0.1227132007479667,-0.3056501448154449,0.230541706085205,walking,2026-03-04_14-07-00
1772633222827547600,2.049547607421875,-0.5661403567563742,-0.1449872937358915,-1.421673555573821,-0.1658960878849029,-0.2615386545658111,0.1927585154771804,walking,2026-03-04_14-07-00
1772633222837496600,2.05949658203125,-0.6160093532316386,0.2493872871480882,-1.7469214087396858,-0.1722716838121414,-0.1738817691802978,0.1693967431783676,walking,2026-03-04_14-07-00
1772633222847445500,2.069445556640625,-0.5515218296214938,0.6277426072537898,-2.0014824452638624,-0.1473377048969268,-0.0623929612338542,0.163981407880783,walking,2026-03-04_14-07-00
1772633222857394700,2.079394775390625,-0.3916431831587105,0.9448486550182104,-2.1049936731427907,-0.1013600826263427,0.0315524451434612,0.1777693927288055,walking,2026-03-04_14-07-00
1772633222867343600,2.089343505859375,-0.2393139291621744,1.1193734472751615,-2.017643306469917,-0.0570685192942619,0.0807964280247688,0.2019836455583572,walking,2026-03-04_14-07-00
1772633222877292500,2.09929248046875,-0.0944398317434825,1.1844351175114511,-1.7284020017087458,0.03581028804183,0.1700147241353988,0.2396098524332046,walking,2026-03-04_14-07-00
1772633222887241700,2.10924169921875,-0.01906664738385,1.203759557314962,-1.6761176877200603,0.1540737599134445,0.2203664630651474,0.265003353357315,walking,2026-03-04_14-07-00
1772633222897190700,2.119190673828125,-0.087882208527252,1.2457361200399697,-1.422958334687352,0.288996934890747,0.2340838760137558,0.2517008483409881,walking,2026-03-04_14-07-00
1772633222907140600,2.129140625,-0.0743216294800862,1.0924920162208378,-1.022334630280733,0.417153000831604,0.2209990918636322,0.2229839712381363,walking,2026-03-04_14-07-00
1772633222917089500,2.139089599609375,0.0068149224455468,0.93786931752488,-0.5590700530439615,0.5204948782920837,0.2139584869146347,0.2086284607648849,walking,2026-03-04_14-07-00
1772633222927038700,2.149038818359375,0.1961850180642679,0.8902753533095121,-0.0425508554816246,0.5800129175186157,0.1996779292821884,0.2107169777154922,walking,2026-03-04_14-07-00
1772633222936987600,2.158987548828125,0.4311264677632599,0.8817509783312678,0.5617489168643951,0.5811346173286438,0.1499577760696411,0.2178433239459991,walking,2026-03-04_14-07-00
1772633222946936600,2.1689365234375,0.5811550801346078,0.8632438462600112,1.1395160715937611,0.5403216481208801,0.0707217752933502,0.2179230451583862,walking,2026-03-04_14-07-00
1772633222956885500,2.178885498046875,0.6243586639039218,0.7951485074162483,1.4937947889328005,0.4521951973438263,-0.056100882589817,0.2050437331199646,walking,2026-03-04_14-07-00
1772633222966834400,2.18883447265625,0.5730793622393161,0.7961834034219384,1.784905979219079,0.3378022611141205,-0.1547901779413223,0.1876805424690246,walking,2026-03-04_14-07-00
1772633222976783600,2.19878369140625,0.5227824226755649,0.8226163600564003,1.9172984336674213,0.207612007856369,-0.227958396077156,0.168725237250328,walking,2026-03-04_14-07-00
1772633222986732500,2.208732666015625,0.4224593233134597,0.9312190658554436,1.9159528642773629,0.0745406448841095,-0.2540305852890014,0.150253877043724,walking,2026-03-04_14-07-00
1772633222996681700,2.218681640625,0.344259756421484,0.981047218863666,1.7182792516231535,-0.0402112416923046,-0.2371594458818435,0.1341776996850967,walking,2026-03-04_14-07-00
1772633223006631700,2.228631591796875,0.304382905922085,1.0006339628651737,1.3800100043207406,-0.1260696798563003,-0.1999506801366806,0.11988465487957,walking,2026-03-04_14-07-00
1772633223016580600,2.23858056640625,0.2771472911352292,0.9971282928317784,1.0471323869287967,-0.1872930824756622,-0.1785220801830291,0.0928796678781509,walking,2026-03-04_14-07-00
1772633223026529500,2.248529541015625,0.1676315073455684,0.9622595162853598,0.7802180647879838,-0.2319736331701278,-0.1756240278482437,0.0567161366343498,walking,2026-03-04_14-07-00
1772633223036478500,2.258478515625,0.0198307362246792,0.9613488311812282,0.5400187310934067,-0.2578776776790619,-0.1784339249134063,0.0107070989906787,walking,2026-03-04_14-07-00
1772633223046427400,2.268427490234375,-0.1564297115853056,0.9817869313150644,0.3445739004045725,-0.2834902107715606,-0.1771853119134903,-0.0365775302052497,walking,2026-03-04_14-07-00
1772633223056376600,2.27837646484375,-0.2250547003263607,1.003117596374452,0.1960036336153745,-0.305060476064682,-0.1512317508459091,-0.0731824040412902,walking,2026-03-04_14-07-00
1772633223066325800,2.28832568359375,-0.1865261956959962,1.0151552401706576,0.0535007040411233,-0.3222990334033966,-0.1043877676129341,-0.0903548374772071,walking,2026-03-04_14-07-00
1772633223076274700,2.298274658203125,-0.0748615450430661,1.0649529980406165,-0.090849899226427,-0.3244801759719848,-0.0236652269959449,-0.0836133137345314,walking,2026-03-04_14-07-00
1772633223086223600,2.3082236328125,0.0818546553334221,1.090632798220217,-0.2228273431330919,-0.29767507314682,0.0783504620194435,-0.0645604580640792,walking,2026-03-04_14-07-00
1772633223096172500,2.318172607421875,0.1964580628519877,1.0647279571130872,-0.3230646639078855,-0.2458329051733017,0.168281689286232,-0.0380918309092521,walking,2026-03-04_14-07-00
1772633223106121500,2.32812158203125,0.2710666195146739,1.0142658901154995,-0.2939952212899923,-0.1909019649028778,0.2146279960870742,-0.0053915195167064,walking,2026-03-04_14-07-00
1772633223116071400,2.338071533203125,0.3819661310140043,0.9094773357771336,-0.124442372226715,-0.1304972022771835,0.2151164263486862,0.0306466426700353,walking,2026-03-04_14-07-00
1772633223126020600,2.3480205078125,0.4615186834175139,0.7508655674450099,0.1480804374456405,-0.0841514989733696,0.1733430027961731,0.0628348290920257,walking,2026-03-04_14-07-00
1772633223135969500,2.357969482421875,0.4960506657576188,0.6128837685570121,0.468726349774003,-0.0490891225636005,0.1091222018003463,0.0826471522450447,walking,2026-03-04_14-07-00
1772633223145918700,2.367918701171875,0.4859229837685823,0.4177444966860115,0.7350052966207266,-0.03240717202425,0.0439602695405483,0.0980148687958717,walking,2026-03-04_14-07-00
1772633223155867600,2.37786767578125,0.4702051170896738,0.2345649810694157,0.929399741473794,-0.0225010141730308,0.0224632322788238,0.1128510758280754,walking,2026-03-04_14-07-00
1772633223165816600,2.387816650390625,0.4094072417777031,0.1900382954701781,1.011228714376688,-0.0313019976019859,-0.0037812900263816,0.1080323383212089,walking,2026-03-04_14-07-00
1772633223175765500,2.397765625,0.2503743984892964,0.0465166903726756,1.1589771433889866,-0.0546573884785175,-0.068358413875103,0.0987080782651901,walking,2026-03-04_14-07-00
1772633223185714400,2.40771435546875,0.3750663615629077,-0.3020147154860198,1.1514186908334494,-0.0887744352221489,-0.113337904214859,0.0892002806067466,walking,2026-03-04_14-07-00
1772633223195663600,2.41766357421875,0.274944447328709,-0.40456177450791,1.068154132169485,-0.1190146282315254,-0.1009542047977447,0.0607950054109096,walking,2026-03-04_14-07-00
1772633223205612500,2.427612548828125,0.0801464814423583,-0.3444914828181266,0.9829548060506582,-0.156960055232048,-0.06906708329916,0.0247350502759218,walking,2026-03-04_14-07-00
1772633223215561700,2.437561767578125,-0.0255410675623454,-0.3287745659872889,0.9373393023014068,-0.1942046284675598,-0.0410341210663318,-0.0095515502616763,walking,2026-03-04_14-07-00
1772633223225511400,2.447511474609375,-0.012534971459629,-0.4286740331098437,0.8189654363334179,-0.2235818356275558,-0.00729596382007,-0.0422649607062339,walking,2026-03-04_14-07-00
1772633223235460600,2.457460693359375,-0.0488233324803877,-0.4583766590647399,0.6427496222496032,-0.2484645396471023,0.0170653015375137,-0.0810714811086654,walking,2026-03-04_14-07-00
1772633223245409500,2.467409423828125,-0.1295294479663483,-0.3849821908995509,0.5560182642579078,-0.2658738195896148,0.026550194248557,-0.1199747622013092,walking,2026-03-04_14-07-00
1772633223255358700,2.477358642578125,-0.1244679633256979,-0.3711524029895663,0.4336433459550142,-0.2656048238277435,0.0380582474172115,-0.1524799764156341,walking,2026-03-04_14-07-00
1772633223265307600,2.4873076171875,-0.0541145433568395,-0.3989714071549475,0.2547007372558116,-0.2480016350746154,0.0517658814787864,-0.1802530288696289,walking,2026-03-04_14-07-00
1772633223275256600,2.497256591796875,-0.012451978484448,-0.3979306659303605,0.0911731398314237,-0.2184884995222091,0.0722357332706451,-0.2132517248392105,walking,2026-03-04_14-07-00
1772633223285205500,2.50720556640625,0.0016966113174334,-0.3893986921675503,-0.022090835776925,-0.1747462451457977,0.0936576500535011,-0.2406824976205825,walking,2026-03-04_14-07-00
1772633223295154700,2.51715478515625,0.0472497721538879,-0.3991767204686999,-0.0952156932204961,-0.1340512782335281,0.1071098074316978,-0.2634820938110351,walking,2026-03-04_14-07-00
1772633223305103600,2.527103515625,0.1193030000442638,-0.4298492143690586,-0.0552174448311328,-0.096441201865673,0.1096216142177581,-0.2757481634616852,walking,2026-03-04_14-07-00
1772633223315052500,2.537052490234375,0.209782421990484,-0.4665212409451603,0.0164309103190898,-0.0629804506897926,0.1027397364377975,-0.2847725450992584,walking,2026-03-04_14-07-00
1772633223325001500,2.54700146484375,0.2780267043182626,-0.517151357986033,0.0747545044720172,-0.0374344214797019,0.0864531323313713,-0.2872190773487091,walking,2026-03-04_14-07-00
1772633223334951700,2.55695166015625,0.3674749565858394,-0.6377877620585263,0.1287690032541751,-0.0089258160442113,0.0703335478901863,-0.2832978367805481,walking,2026-03-04_14-07-00
1772633223344900600,2.566900634765625,0.4803053630825132,-0.7498724647544324,0.1603226639032363,0.0078649297356605,0.0386460535228252,-0.2721614241600036,walking,2026-03-04_14-07-00
1772633223354849500,2.576849609375,0.5537055668687447,-0.8166422540828585,0.2421563129812479,0.0016696178354322,-0.0047128736041486,-0.2616182267665863,walking,2026-03-04_14-07-00
1772633223364798500,2.586798583984375,0.632398835561797,-0.9496030099384486,0.3366156348764896,-0.0295322611927986,-0.0448101609945297,-0.24883733689785,walking,2026-03-04_14-07-00
1772633223374747400,2.596747314453125,0.683720880389586,-1.1117100730404257,0.3704296416729688,-0.0833326429128646,-0.0748676657676696,-0.2300599217414856,walking,2026-03-04_14-07-00
1772633223384696600,2.606696533203125,0.6650565849952399,-1.1472633247196673,0.3521598254889249,-0.1445772051811218,-0.1042001619935035,-0.2110629826784134,walking,2026-03-04_14-07-00
1772633223394645800,2.616645751953125,0.6204707896199076,-1.1076401932530104,0.2221294239968061,-0.1913172900676727,-0.1259187757968902,-0.1898732781410217,walking,2026-03-04_14-07-00
1772633223404594700,2.6265947265625,0.5793764896221458,-1.0206418548882008,-0.0598620557665824,-0.2044553309679031,-0.1409758478403091,-0.1569613367319107,walking,2026-03-04_14-07-00
1772633223414543600,2.636543701171875,0.5620876472994685,-0.9159367410495876,-0.4433844032466411,-0.1723131090402603,-0.136125698685646,-0.1165867522358894,walking,2026-03-04_14-07-00
1772633223424492500,2.646492431640625,0.6058793696876615,-0.7881772070989013,-0.8313836038798094,-0.0973433405160904,-0.118788830935955,-0.0758426859974861,walking,2026-03-04_14-07-00
1772633223434441500,2.65644140625,0.6055831632200628,-0.7123227785609663,-1.196017126494646,0.0184985809028148,-0.0793841704726219,-0.0347186885774135,walking,2026-03-04_14-07-00
1772633223444391400,2.666391357421875,0.6136490538410843,-0.6762075090847909,-1.4493606039226057,0.1543773412704467,-0.019746208563447,0.0089711425825953,walking,2026-03-04_14-07-00
1772633223454340600,2.676340576171875,0.6990497477509081,-0.6915000630237161,-1.538020299628377,0.2985299825668335,0.0245797112584114,0.0482892543077468,walking,2026-03-04_14-07-00
1772633223464289800,2.686289794921875,0.8354957884389906,-0.796074097828567,-1.4315607433378696,0.4091944396495819,0.0216560922563076,0.0801752805709838,walking,2026-03-04_14-07-00
1772633223474238700,2.69623876953125,0.9973155590321868,-0.992851492295414,-1.0844365739285946,0.4632693827152252,-0.0144300051033496,0.0963294878602027,walking,2026-03-04_14-07-00
1772633223484187600,2.706187744140625,1.052632591780275,-1.2527296321891248,-0.6015443361580372,0.4416404366493225,-0.0798584595322609,0.1066485121846199,walking,2026-03-04_14-07-00
1772633223494136600,2.716136474609375,1.0296467799250035,-1.4028347073301672,-0.1736316428095102,0.3763876557350158,-0.1618963330984115,0.1027184799313545,walking,2026-03-04_14-07-00
1772633223504085500,2.72608544921875,0.9007105303451418,-1.4905794801481067,0.0633463907510042,0.2978858649730682,-0.2299335598945617,0.0825878828763961,walking,2026-03-04_14-07-00
1772633223514034400,2.736034423828125,0.6675717096213251,-1.5030278967022894,0.0325040932416915,0.2236169576644897,-0.24831523001194,0.0544438660144805,walking,2026-03-04_14-07-00
1772633223523983400,2.7459833984375,0.3826951759409159,-1.408318107177317,-0.230801975274086,0.178664818406105,-0.2094769328832626,0.0157708507031202,walking,2026-03-04_14-07-00
1772633223533932800,2.755932861328125,0.074164383958606,-1.2489883998341855,-0.6115285545557737,0.1680513173341751,-0.1317813396453857,-0.0272245537489652,walking,2026-03-04_14-07-00
1772633223543881700,2.7658818359375,-0.2253063369998708,-1.0535033832654357,-0.9254945507287978,0.1739676147699356,-0.0759500339627265,-0.0777509361505508,walking,2026-03-04_14-07-00
1772633223553831700,2.775831787109375,-0.4421546422559768,-0.8654125686012208,-1.0209329467892647,0.1539960354566574,-0.0951431691646575,-0.1315521150827407,walking,2026-03-04_14-07-00
1772633223563780600,2.785780517578125,-0.5550641418708488,-0.6853066152110695,-0.8704892873436212,0.0861715301871299,-0.1737746000289917,-0.1812731623649597,walking,2026-03-04_14-07-00
1772633223573729500,2.7957294921875,-0.6715171593114734,-0.4598357718318701,-0.61588090454638,-0.031881608068943,-0.261352390050888,-0.2211436182260513,walking,2026-03-04_14-07-00
1772633223583678500,2.805678466796875,-0.8121800139769911,-0.1573871949732303,-0.5290110148668289,-0.1590456962585449,-0.2909405529499054,-0.2518705129623413,walking,2026-03-04_14-07-00
1772633223593627600,2.815627685546875,-0.9752763803772628,0.2261748999953269,-0.7398410462141036,-0.2420955747365951,-0.2615429759025574,-0.2768823802471161,walking,2026-03-04_14-07-00
1772633223603576600,2.82557666015625,-1.089976014811918,0.6685587478972971,-1.1697452056407929,-0.270225465297699,-0.20758156478405,-0.2909099161624908,walking,2026-03-04_14-07-00
1772633223613525500,2.835525390625,-1.100222025950998,1.1245927893586456,-1.5872200916051864,-0.2223053574562072,-0.128638818860054,-0.2807446420192718,walking,2026-03-04_14-07-00
1772633223623474700,2.845474609375,-0.9868719794943928,1.6135095481157302,-1.9166922844678165,-0.1713506281375885,-0.1445570588111877,-0.2639173567295074,walking,2026-03-04_14-07-00
1772633223633423600,2.855423583984375,-0.8298729070559143,1.9541830800808968,-1.7349486468732356,0.004214534536004,0.0435587875545024,-0.2112059295177459,walking,2026-03-04_14-07-00
1772633223643372500,2.86537255859375,-0.5811658207243308,2.139379196216911,-1.930396400171518,0.2147265672683715,0.1978589296340942,-0.1424843668937683,walking,2026-03-04_14-07-00
1772633223653322800,2.87532275390625,-0.6776871531832963,2.44637520724684,-1.808756225883961,0.4139451086521148,0.2886458337306976,-0.1054206117987632,walking,2026-03-04_14-07-00
1772633223663271700,2.885271728515625,-0.5549850852852687,2.4037090548224747,-1.3060790911912918,0.5935604572296143,0.3156073689460754,-0.0808645188808441,walking,2026-03-04_14-07-00
1772633223673220600,2.895220703125,-0.2890084093207493,2.080789206212759,-0.6953928326785564,0.7216702103614807,0.2844859361648559,-0.0592002384364604,walking,2026-03-04_14-07-00
1772633223683169500,2.90516943359375,-0.186940950509347,1.817051176020503,0.0001356090784072,0.7764866948127747,0.2153331637382507,-0.0416779182851314,walking,2026-03-04_14-07-00
1772633223693118500,2.915118408203125,-0.1711634443313814,1.607236459195614,0.7531161228507757,0.772947371006012,0.0866731777787208,-0.0455147325992584,walking,2026-03-04_14-07-00
1772633223703068000,2.92506787109375,-0.2118053243865258,1.3503136619761584,1.3146750701010226,0.6808798313140869,-0.1342916339635849,-0.0811243653297424,walking,2026-03-04_14-07-00
1772633223713016800,2.935016845703125,-0.2647730357958003,0.9960285148963332,1.8109873459368944,0.5415744185447693,-0.3000198900699615,-0.1341068893671035,walking,2026-03-04_14-07-00
1772633223722965800,2.9449658203125,-0.3892144216418266,0.7207336101621389,1.984624249443412,0.3714419603347778,-0.3363418281078338,-0.195907860994339,walking,2026-03-04_14-07-00
1772633223732914700,2.954914794921875,-0.6810719733159989,0.7009782315954566,1.8824486540824172,0.1799313873052597,-0.2663140296936035,-0.2668257057666778,walking,2026-03-04_14-07-00
1772633223742863600,2.964863525390625,-0.8927079872839152,0.8277782728642225,1.7665362097918986,-0.0083881225436925,-0.1394242048263549,-0.3218266069889068,walking,2026-03-04_14-07-00
1772633223752812500,2.9748125,-0.8321311343114822,0.9026625411957502,1.5161182644218203,-0.17129448056221,-0.0052450955845415,-0.333771675825119,walking,2026-03-04_14-07-00
1772633223762762500,2.984762451171875,-0.5976087868073955,0.991228421138227,1.2510112839639187,-0.2985878586769104,0.1224197670817375,-0.3132040202617645,walking,2026-03-04_14-07-00
1772633223772711700,2.994711669921875,-0.3747630677673965,1.080791495424509,1.0294733961194753,-0.3950355947017669,0.2023215293884277,-0.2646503448486328,walking,2026-03-04_14-07-00
1772633223782660600,3.00466064453125,-0.1776087114806286,1.156087267166376,0.8785662108153104,-0.4460892081260681,0.2102440148591995,-0.2031815350055694,walking,2026-03-04_14-07-00
1772633223792609800,3.01460986328125,-0.0693251363670453,1.113117309489846,0.6944903308808803,-0.4475533962249756,0.1475627869367599,-0.153920516371727,walking,2026-03-04_14-07-00
1772633223802558700,3.024558837890625,-0.1236046610272489,1.00823157838732,0.437110729804635,-0.4095912575721741,0.0347815603017807,-0.1240982413291931,walking,2026-03-04_14-07-00
1772633223812507600,3.034507568359375,-0.2708066168716177,0.9132251440033315,0.2246814465671777,-0.3470059037208557,-0.0782541781663894,-0.1142671853303909,walking,2026-03-04_14-07-00
1772633223822456600,3.04445654296875,-0.3500912755865603,0.7874749040484428,0.0165413849562406,-0.262745052576065,-0.1484324038028717,-0.1076815649867057,walking,2026-03-04_14-07-00
1772633223832405500,3.054405517578125,-0.3909870208049192,0.6213526139557362,-0.1925222212404012,-0.1681825816631317,-0.1533344835042953,-0.1041169241070747,walking,2026-03-04_14-07-00
1772633223842354700,3.064354736328125,-0.4026556120930239,0.4450397692382335,-0.3169382899820804,-0.0889753624796867,-0.1138214394450187,-0.0978042930364608,walking,2026-03-04_14-07-00
1772633223852303600,3.0743037109375,-0.3609847543163225,0.2854384053468704,-0.2800520361334085,-0.0437580831348896,-0.0543442629277706,-0.0976578146219253,walking,2026-03-04_14-07-00
1772633223862252800,3.084252685546875,-0.3121271999059244,0.0326917247682809,-0.0913917510181665,-0.0288517940789461,0.006734712049365,-0.0980297029018402,walking,2026-03-04_14-07-00
1772633223872202800,3.09420263671875,-0.296371229706332,-0.2232712875083088,0.1389560507476329,-0.0435383282601833,0.0560015924274921,-0.1084123030304908,walking,2026-03-04_14-07-00
1772633223882151700,3.104151611328125,-0.2867047354882583,-0.4037991195723414,0.4199491671234369,-0.0729699432849884,0.0873793438076973,-0.1220254227519035,walking,2026-03-04_14-07-00
1772633223892100600,3.1141005859375,-0.2414201989927329,-0.5259513350352645,0.6676204441338777,-0.1112976223230362,0.1086153909564018,-0.1315494328737259,walking,2026-03-04_14-07-00
1772633223902049800,3.1240498046875,-0.1560477265303954,-0.6130290222465992,0.8157096494078636,-0.1428730934858322,0.113939456641674,-0.1324807107448578,walking,2026-03-04_14-07-00
1772633223911998700,3.133998779296875,-0.095660989302583,-0.6462566074572503,0.882388399451971,-0.1730746775865554,0.1081785038113594,-0.1329915076494217,walking,2026-03-04_14-07-00
1772633223921947600,3.14394775390625,-0.0382061590745113,-0.6394083489976823,0.9109206664532422,-0.193614512681961,0.0833550244569778,-0.122381180524826,walking,2026-03-04_14-07-00
1772633223931896600,3.153896484375,0.0037864049372263,-0.6361259663261473,0.8607441383987665,-0.1974984556436538,0.0693854093551635,-0.1096147894859314,walking,2026-03-04_14-07-00
1772633223941845800,3.163845703125,-0.019860629039444,-0.6227189338728785,0.7151140167146921,-0.185841679573059,0.0737257450819015,-0.0977534055709838,walking,2026-03-04_14-07-00
1772633223951794700,3.173794677734375,-0.1166773459821008,-0.5774548739098012,0.5773620810598135,-0.1626783162355423,0.0812550336122512,-0.0947184637188911,walking,2026-03-04_14-07-00
1772633223961743600,3.18374365234375,-0.228300787841808,-0.5206155269652605,0.4807967267960309,-0.1305390298366546,0.0973195508122444,-0.0947425812482833,walking,2026-03-04_14-07-00
1772633223971692500,3.193692626953125,-0.3308586057197302,-0.4461192350380122,0.4271452161073684,-0.1022560000419616,0.1186647862195968,-0.0853517428040504,walking,2026-03-04_14-07-00
1772633223981642800,3.203642822265625,-0.3220342248816042,-0.3322476489253342,0.4646761976003646,-0.0926536098122596,0.1229817420244216,-0.0655465573072433,walking,2026-03-04_14-07-00
1772633223991591700,3.213591796875,-0.2526682998464443,-0.2786564901217818,0.6349906786859035,-0.1181323453783989,0.0929197147488594,-0.0344996973872184,walking,2026-03-04_14-07-00
1772633224001540600,3.22354052734375,-0.1769414432109333,-0.2865644867673516,0.8703186069518327,-0.1564921587705612,0.0658300220966339,0.0069971932098269,walking,2026-03-04_14-07-00
1772633224011489500,3.233489501953125,-0.1098771096490323,-0.3061898092135787,0.9452432072937488,-0.1914056688547134,0.0515994206070899,0.0469406135380268,walking,2026-03-04_14-07-00
1772633224021438700,3.243438720703125,-0.1426853917353786,-0.2915751545362174,0.8896867397665977,-0.2079415917396545,0.0485759675502777,0.0763664916157722,walking,2026-03-04_14-07-00
1772633224031387600,3.2533876953125,-0.1808190518292598,-0.312423004514724,0.7392705528497695,-0.1967214345932006,0.0533355697989463,0.1047978699207305,walking,2026-03-04_14-07-00
1772633224041336800,3.2633369140625,-0.1804765585345216,-0.3508447973676025,0.5673778626620769,-0.1687407940626144,0.0640765205025672,0.131702110171318,walking,2026-03-04_14-07-00
1772633224051285800,3.27328564453125,-0.1809388057514093,-0.3367806161798536,0.4749257889360189,-0.1319532245397567,0.0701487958431243,0.1550657600164413,walking,2026-03-04_14-07-00
1772633224061234700,3.283234619140625,-0.1553002691639587,-0.3514589837431907,0.454503763154149,-0.0978625640273094,0.0646435618400573,0.1769170314073562,walking,2026-03-04_14-07-00
1772633224071183600,3.29318359375,-0.1094930787675082,-0.4031912168070674,0.4417547562181949,-0.0654079467058181,0.048864334821701,0.1990987658500671,walking,2026-03-04_14-07-00
1772633224081132500,3.303132568359375,-0.0510123212914913,-0.4697925177007913,0.4739999062627553,-0.0459082573652267,0.0185854472219944,0.2188490629196167,walking,2026-03-04_14-07-00
1772633224091082500,3.31308251953125,0.0081658803967759,-0.5182641415335237,0.4936228906214236,-0.0405888594686985,-0.0170798730105161,0.235520452260971,walking,2026-03-04_14-07-00
1772633224101031700,3.32303173828125,0.0474266448244452,-0.5865929968722164,0.4395709824383259,-0.045181855559349,-0.049989853054285,0.2474046051502227,walking,2026-03-04_14-07-00
1772633224110980900,3.33298095703125,0.0312577647087164,-0.6497377275712788,0.3594371230155229,-0.0566555485129356,-0.0680471509695053,0.2550776898860931,walking,2026-03-04_14-07-00
1772633224120929800,3.3429296875,0.0034380481572821,-0.6673736297659576,0.2569891404539347,-0.0810206234455108,-0.0755794122815132,0.2564160525798797,walking,2026-03-04_14-07-00
1772633224130878700,3.352878662109375,-0.0677217745573259,-0.6760458887822925,0.0851736071556806,-0.1042045056819915,-0.0540472231805324,0.2477256208658218,walking,2026-03-04_14-07-00
1772633224140827600,3.36282763671875,-0.1982391558487899,-0.6798698309846222,-0.1699748738676309,-0.1188067868351936,-0.0086648482829332,0.2354357093572616,walking,2026-03-04_14-07-00
1772633224150776600,3.372776611328125,-0.299805387139786,-0.6553808480247855,-0.4749064997136593,-0.1208268031477928,0.0468788407742977,0.2295242846012115,walking,2026-03-04_14-07-00
1772633224160725500,3.3827255859375,-0.3311763664320111,-0.6098359252937138,-0.7079483628690242,-0.1077775210142135,0.0968710631132125,0.2269381284713745,walking,2026-03-04_14-07-00
1772633224170674700,3.3926748046875,-0.3172044666375965,-0.5835574285686016,-0.9328454980134964,-0.072150282561779,0.1469614058732986,0.2267357259988784,walking,2026-03-04_14-07-00
1772633224180624000,3.402623779296875,-0.3145959646396338,-0.576759585122019,-1.1381512129813431,-0.0228423234075307,0.181084007024765,0.2301152944564819,walking,2026-03-04_14-07-00
1772633224190572800,3.41257275390625,-0.2791087091349996,-0.5180338399089872,-1.1823644487172364,0.0254224110394716,0.1960813254117965,0.2407586276531219,walking,2026-03-04_14-07-00
1772633224200522800,3.422522705078125,-0.1806371011247858,-0.525282641993463,-1.1592734959870576,0.0706349313259124,0.1993680596351623,0.2624959051609039,walking,2026-03-04_14-07-00
1772633224210471700,3.4324716796875,-0.0428765437720343,-0.6005823592580855,-1.0771598609238862,0.0986817479133606,0.1809459179639816,0.2873666286468506,walking,2026-03-04_14-07-00
1772633224220420600,3.442420654296875,0.0663036696540191,-0.6672264763802289,-0.9254939662069082,0.1078679859638214,0.1486046463251114,0.3134842216968536,walking,2026-03-04_14-07-00
1772633224230369500,3.45236962890625,0.1315669999422505,-0.7606507561393082,-0.7636041991174221,0.0894394442439079,0.100212350487709,0.3360846042633056,walking,2026-03-04_14-07-00
1772633224240318700,3.462318603515625,0.0884398789426311,-0.8590680218800902,-0.6452338402807712,0.0513360314071178,0.0598758161067962,0.3471066355705261,walking,2026-03-04_14-07-00
1772633224250267600,3.472267578125,0.0056781187016516,-0.9131935798212886,-0.6075006142139434,0.0023032422177493,0.0284854024648666,0.3362129926681518,walking,2026-03-04_14-07-00
1772633224260216800,3.482216796875,-0.1114974773924797,-0.909615429073572,-0.6519365527898073,-0.0633431151509285,0.0038646673783659,0.3151106238365173,walking,2026-03-04_14-07-00
1772633224270165800,3.492165771484375,-0.1929640832563862,-0.8988355302534997,-0.7308733113825321,-0.1384980529546737,-0.0063256518915295,0.2920636534690857,walking,2026-03-04_14-07-00
1772633224280114700,3.50211474609375,-0.2472754643595777,-0.761451989519596,-0.8400918109923601,-0.2237312495708465,-0.0040946193039417,0.2682632207870483,walking,2026-03-04_14-07-00
1772633224290063600,3.512063720703125,-0.2650801289835944,-0.5690745835773646,-0.9712649527788162,-0.3103257715702057,-0.0009933682158589,0.2496581077575683,walking,2026-03-04_14-07-00
1772633224300012500,3.522012451171875,-0.2513938411975279,-0.2956324671030044,-1.1541577604085207,-0.3605293333530426,0.0037780709099024,0.233283519744873,walking,2026-03-04_14-07-00
1772633224309961500,3.53196142578125,-0.2229028195220977,-0.0548866054415702,-1.4954150836110114,-0.3600116074085235,0.0020699191372841,0.2256980389356613,walking,2026-03-04_14-07-00
1772633224319911700,3.54191162109375,-0.1913623836807906,0.2478523326657712,-1.856553749847412,-0.313600093126297,-0.0011802127119153,0.2203279435634613,walking,2026-03-04_14-07-00
1772633224329860600,3.551860595703125,-0.1775620593273081,0.5813873910531401,-2.1263655469954013,-0.2434481680393219,-0.0274794623255729,0.2166178822517395,walking,2026-03-04_14-07-00
1772633224339809500,3.5618095703125,-0.2044837858594022,0.7999564922198653,-2.284059615960717,-0.1511469185352325,-0.0615324601531028,0.2207912355661392,walking,2026-03-04_14-07-00
1772633224349758700,3.5717587890625,-0.2082708301174454,0.9469285300321876,-2.3918857844293115,-0.0545458123087883,-0.0778605639934539,0.2280185222625732,walking,2026-03-04_14-07-00
1772633224359707600,3.581707763671875,-0.2269923355917446,1.0824607438109817,-2.3330530717104674,0.0920182093977928,0.007398759946227,0.250912457704544,walking,2026-03-04_14-07-00
1772633224369656600,3.591656494140625,-0.3154836341943591,1.224247487939894,-2.484307463017106,0.2552201747894287,0.1058494374155998,0.2696909606456756,walking,2026-03-04_14-07-00
1772633224379605800,3.601605712890625,-0.5009459269858897,1.3441696062631905,-2.3736457788616416,0.4399306178092956,0.2220528125762939,0.2796905636787414,walking,2026-03-04_14-07-00
1772633224389554700,3.6115546875,-0.522926288125664,1.2769444743826983,-2.013593154296279,0.6110495924949646,0.2883815169334411,0.2797994911670685,walking,2026-03-04_14-07-00
1772633224399503600,3.621503662109375,-0.4379316177334636,1.065640395782888,-1.355161978790164,0.741847038269043,0.3262423872947693,0.2713049054145813,walking,2026-03-04_14-07-00
1772633224409452800,3.631452880859375,-0.2411446517206728,0.843931096894294,-0.5773690953224897,0.8175199627876282,0.3383120894432068,0.2704018354415893,walking,2026-03-04_14-07-00
1772633224419401700,3.641401611328125,0.0012944967899471,0.6919448841817677,0.247999193790555,0.8303583860397339,0.3158703744411468,0.2689222693443298,walking,2026-03-04_14-07-00
1772633224429351700,3.6513515625,0.1692240920329466,0.62014236138314,1.0419926859527826,0.7988148331642151,0.2596952617168426,0.2584246098995209,walking,2026-03-04_14-07-00
1772633224439300900,3.66130078125,0.2937460323018953,0.5885916233435273,1.6458271788746115,0.6875348091125488,0.0949598476290702,0.2316396832466125,walking,2026-03-04_14-07-00
1772633224449249800,3.671249755859375,0.4133015458025038,0.541991200210154,2.2971020528852937,0.5482709407806396,-0.0457541272044181,0.2114936709403991,walking,2026-03-04_14-07-00
1772633224459198700,3.68119873046875,0.5146017465684563,0.4775976384937763,2.500609193998575,0.3850684463977813,-0.1895696967840194,0.1988806873559951,walking,2026-03-04_14-07-00
1772633224469147600,3.691147705078125,0.5301498461710289,0.5321835074231028,2.5463953781396147,0.2291337251663208,-0.2897530496120453,0.1772148013114929,walking,2026-03-04_14-07-00
1772633224479096600,3.7010966796875,0.5140774304334074,0.5534282477647066,2.3140631245583294,0.1014871299266815,-0.3393233716487884,0.1605763286352157,walking,2026-03-04_14-07-00
1772633224489045500,3.71104541015625,0.3741081475226208,0.6829144593775271,1.8803385300606488,0.0021562832407653,-0.3367576897144317,0.1352022588253021,walking,2026-03-04_14-07-00
1772633224498994700,3.72099462890625,0.2124812508867122,0.8012231511548161,1.4313503154575824,-0.069765955209732,-0.3285492062568664,0.1009690091013908,walking,2026-03-04_14-07-00
1772633224508943600,3.730943603515625,0.0860614959061145,0.8575544024467467,1.05743984593153,-0.1203750744462013,-0.3176472783088684,0.0648307129740715,walking,2026-03-04_14-07-00
1772633224518892800,3.740892822265625,-0.0334662162721157,0.8834671345993876,0.689274642059207,-0.1553665399551391,-0.3032334148883819,0.0197599362581968,walking,2026-03-04_14-07-00
1772633224528841700,3.750841796875,-0.156353942935355,0.9409329428792,0.3750976334840059,-0.1871742755174636,-0.2979443967342376,-0.0304126869887113,walking,2026-03-04_14-07-00
1772633224538791700,3.760791748046875,-0.2935175938408821,1.0139157615035772,0.1569897200882434,-0.2126193344593048,-0.2801644206047058,-0.0818093791604042,walking,2026-03-04_14-07-00
1772633224548740600,3.77074072265625,-0.327173779727146,1.0505562238976358,-0.081623805719614,-0.2286992371082306,-0.2217716574668884,-0.1178869530558586,walking,2026-03-04_14-07-00
1772633224558689500,3.780689453125,-0.2848154328766278,1.1303405392304062,-0.3297171075344085,-0.2199900597333908,-0.1163467317819595,-0.1382309198379516,walking,2026-03-04_14-07-00
1772633224568638500,3.790638427734375,-0.2600598531361669,1.2741393538340926,-0.5910755491137504,-0.1867074817419052,0.0170358195900917,-0.1460483521223068,walking,2026-03-04_14-07-00
1772633224578587600,3.800587646484375,-0.1489398946860339,1.3929223851248622,-0.6802987239211797,-0.1417464017868042,0.1346218436956405,-0.1316158920526504,walking,2026-03-04_14-07-00
1772633224588536800,3.810536865234375,0.022584007855039,1.4525810272738338,-0.5896814644068479,-0.0837906748056411,0.2174623906612396,-0.1003700867295265,walking,2026-03-04_14-07-00
1772633224598485800,3.82048583984375,0.2499876093951053,1.3920502784654498,-0.3891273278802633,-0.0255639068782329,0.2518170475959778,-0.0612563975155353,walking,2026-03-04_14-07-00
1772633224608434700,3.8304345703125,0.4069599947560578,1.2896215851262212,-0.0844675047129392,0.0346565581858158,0.2372860461473465,-0.0262496806681156,walking,2026-03-04_14-07-00
1772633224618383600,3.840383544921875,0.5136679363170639,1.1122639075309038,0.3037935617268085,0.0734571143984794,0.1833370923995971,0.0013263670261949,walking,2026-03-04_14-07-00
1772633224628332500,3.85033251953125,0.6078863986611366,0.8813894515424966,0.7148767008274793,0.0958479046821594,0.1125659868121147,0.0205147098749876,walking,2026-03-04_14-07-00
1772633224638281500,3.860281494140625,0.6188154966935515,0.6596595482572912,1.058280972930789,0.0830712020397186,0.0404755361378192,0.0323078893125057,walking,2026-03-04_14-07-00
1772633224648231700,3.870231689453125,0.6031577627040445,0.438811688503623,1.348542852911353,0.0387258417904377,-0.0240997299551963,0.0472040139138698,walking,2026-03-04_14-07-00
1772633224658180600,3.8801806640625,0.6389372243545949,0.2243856784909963,1.5340852982670068,-0.0171902682632207,-0.0723337978124618,0.0568508617579937,walking,2026-03-04_14-07-00
1772633224668129800,3.8901298828125,0.6334015097983181,0.0401055081561207,1.561423971569538,-0.0755417197942733,-0.097798153758049,0.0599515810608863,walking,2026-03-04_14-07-00
1772633224678079200,3.900079345703125,0.524460913814418,-0.0583291471108794,1.5013491498351097,-0.1357831060886383,-0.0975941866636276,0.0524448491632938,walking,2026-03-04_14-07-00
1772633224688028200,3.910028076171875,0.3929165640953928,-0.1250342006400227,1.3642115466862916,-0.1873565465211868,-0.0703796073794364,0.0460130497813224,walking,2026-03-04_14-07-00
1772633224697977300,3.919977294921875,0.3031675935818813,-0.1991208888530731,1.181207095375657,-0.2222197502851486,-0.0399768985807895,0.0280360411852598,walking,2026-03-04_14-07-00
1772633224707926300,3.92992626953125,0.217507518083509,-0.2902241783186793,1.0184241788387298,-0.2444044202566146,-0.013267258182168,0.001790054840967,walking,2026-03-04_14-07-00
1772633224717875200,3.939875244140625,0.1264857876878231,-0.3773058110527694,0.8459323537141085,-0.2548572719097137,0.0135026816278696,-0.0283462461084127,walking,2026-03-04_14-07-00
1772633224727824100,3.94982421875,0.0954468533615581,-0.4407568312220275,0.7030407170832157,-0.2520702481269836,0.0258610807359218,-0.0535109862685203,walking,2026-03-04_14-07-00
1772633224737773000,3.95977294921875,0.1382434911646414,-0.4834941491864621,0.570003534990549,-0.2323542684316635,0.0276081599295139,-0.0717172473669052,walking,2026-03-04_14-07-00
1772633224747722200,3.96972216796875,0.2034054891034029,-0.5095248086303472,0.4470663066297769,-0.1991153508424759,0.0214735679328441,-0.0894176810979843,walking,2026-03-04_14-07-00
1772633224757672200,3.979672119140625,0.2097880297473631,-0.5360989273011684,0.3083902418673038,-0.1701748222112655,0.0025036286097019,-0.1031806468963623,walking,2026-03-04_14-07-00
1772633224767621400,3.989621337890625,0.2547099617418833,-0.5615304518081248,0.310812500578165,-0.1589820832014084,-0.0180349349975585,-0.1047457903623581,walking,2026-03-04_14-07-00
1772633224777570300,3.9995703125,0.3322985023297369,-0.6298375337064266,0.3182704153686762,-0.1503005921840667,-0.0183260533958673,-0.0959148183465004,walking,2026-03-04_14-07-00
1772633224787519200,4.009519287109375,0.3581856251170858,-0.7090859885968267,0.2318523611098527,-0.1285955607891082,-0.0026480248197913,-0.0914228707551956,walking,2026-03-04_14-07-00
1772633224797468200,4.01946826171875,0.2826029261926189,-0.7443038708418608,0.0661065031141042,-0.0872122421860694,0.0173322316259145,-0.0890028923749923,walking,2026-03-04_14-07-00
1772633224807417000,4.0294169921875,0.2655009847441688,-0.7975516230352222,-0.0797954212486743,-0.0347375832498073,0.0174616612493991,-0.0854600891470909,walking,2026-03-04_14-07-00
1772633224817366000,4.039365966796875,0.29954962228043,-0.8670442614562809,-0.1244616614490747,0.0128197697922587,-0.0174375884234905,-0.0765306651592254,walking,2026-03-04_14-07-00
1772633224827315200,4.049315185546875,0.3553761571869254,-0.9637357263177632,-0.0310240838170051,0.0393033064901828,-0.0928479209542274,-0.0739079788327217,walking,2026-03-04_14-07-00
1772633224837264400,4.059264404296875,0.3881268456008285,-1.0487605726525189,0.1314700789064168,0.0319322124123573,-0.1800238490104675,-0.0774441286921501,walking,2026-03-04_14-07-00
1772633224847213300,4.06921337890625,0.3519099423810839,-1.1419070583835242,0.2308575048536062,0.0056875580921769,-0.241763636469841,-0.0820516645908355,walking,2026-03-04_14-07-00
1772633224857162200,4.079162353515625,0.2826187448162585,-1.2000788229756056,0.1276969901084899,-0.0230823047459125,-0.2626848518848419,-0.0950968936085701,walking,2026-03-04_14-07-00
1772633224867112200,4.0891123046875,0.1539679793805815,-1.2210545371174812,-0.1163099191755056,-0.0484795421361923,-0.2453753650188446,-0.1088417321443557,walking,2026-03-04_14-07-00
1772633224877061000,4.09906103515625,0.1156469526215922,-1.180536502637714,-0.3575724981874227,-0.0627405941486358,-0.2047193050384521,-0.1101467236876487,walking,2026-03-04_14-07-00
1772633224887010000,4.109010009765625,0.2025977894497103,-1.1115784094847738,-0.575684503236413,-0.0625650957226753,-0.1589089483022689,-0.0963566079735755,walking,2026-03-04_14-07-00
1772633224896959200,4.118959228515625,0.3364600424559786,-1.0254917791374027,-0.758798260140419,-0.0397177524864673,-0.0906835123896598,-0.0744503438472747,walking,2026-03-04_14-07-00
1772633224906908200,4.128908203125,0.3279035553064197,-0.9614141515024006,-0.9467951129108668,0.0093786856159567,-0.0198261123150587,-0.0591400936245918,walking,2026-03-04_14-07-00
1772633224916857300,4.138857421875,0.3474876689594239,-0.8998162118539214,-1.0729039570450782,0.0850639566779136,0.0247182063758373,-0.0466411598026752,walking,2026-03-04_14-07-00
1772633224926806300,4.14880615234375,0.3940034094840288,-0.917665610668808,-1.137263908752799,0.1855897605419159,0.0595078766345977,-0.033389538526535,walking,2026-03-04_14-07-00
1772633224936755200,4.158755126953125,0.5377526858575642,-0.9295655995599924,-1.1473568482220171,0.2946826815605163,0.075441263616085,-0.0208222195506095,walking,2026-03-04_14-07-00
1772633224946704100,4.1687041015625,0.7062798451349139,-0.9427303476899862,-0.9922516267061232,0.3875891864299774,0.0624492987990379,-0.002406993182376,walking,2026-03-04_14-07-00
1772633224956653000,4.178653076171875,0.9278840031486004,-1.030384081223607,-0.7070745026439428,0.4478973150253296,0.0164718739688396,0.0159437991678714,walking,2026-03-04_14-07-00
1772633224966602000,4.18860205078125,1.1086990546561777,-1.1599663005568086,-0.3542027294933795,0.4591270685195923,-0.0550728850066661,0.0309198200702667,walking,2026-03-04_14-07-00
1772633224976552200,4.19855224609375,1.1725426543395965,-1.24200993912369,-0.0378752648860216,0.4262036085128784,-0.1197305396199226,0.0340818539261817,walking,2026-03-04_14-07-00
1772633224986501000,4.208501220703125,1.043069959795475,-1.2631959350153803,0.1674853951394558,0.3578000366687774,-0.1474172919988632,0.0269736107438802,walking,2026-03-04_14-07-00
1772633224996450300,4.2184501953125,0.7959791130214929,-1.1553121911406516,0.1660632533818483,0.2790112197399139,-0.139452576637268,0.001977447187528,walking,2026-03-04_14-07-00
1772633225006399200,4.228399169921875,0.4885902667490765,-1.0488035350114109,0.0392518139362335,0.1964167356491089,-0.1101303771138191,-0.0315642654895782,walking,2026-03-04_14-07-00
1772633225016348200,4.23834814453125,0.2984165083309635,-0.8783172044903039,-0.1173725799709558,0.118450827896595,-0.0803351923823356,-0.0553305819630622,walking,2026-03-04_14-07-00
1772633225026297000,4.248297119140625,0.2125507907252758,-0.6435217756658792,-0.2621902162283658,0.0190637875348329,-0.0565438456833362,-0.0702591985464096,walking,2026-03-04_14-07-00
1772633225036246300,4.258246337890625,0.109584136318136,-0.3513575691953301,-0.3171381964683532,-0.0919757857918739,-0.0558912083506584,-0.0831352546811103,walking,2026-03-04_14-07-00
1772633225046195200,4.2681953125,-0.0300043693974264,-0.0940776291012763,-0.345471726027131,-0.2280356287956237,-0.0836687758564949,-0.0947524979710578,walking,2026-03-04_14-07-00
1772633225056144100,4.27814404296875,-0.1273295998345129,0.1692483131587505,-0.4416396054059266,-0.3611953556537628,-0.1303739994764328,-0.0974929332733154,walking,2026-03-04_14-07-00
1772633225066093300,4.28809326171875,-0.2674319710730575,0.4505822057962417,-0.7118781035333871,-0.4582633078098297,-0.1590293496847152,-0.1058195754885673,walking,2026-03-04_14-07-00
1772633225076042200,4.298042236328125,-0.4588691552894189,0.771339323414117,-1.1554659203976392,-0.4830335676670074,-0.15464948117733,-0.1202011257410049,walking,2026-03-04_14-07-00
1772633225085991200,4.3079912109375,-0.6309395035989582,1.1724065338045355,-1.732111962142587,-0.4410679936408996,-0.1294011175632476,-0.1230698823928833,walking,2026-03-04_14-07-00
1772633225095941400,4.31794140625,-0.6343607102192937,1.552989759092778,-2.214792018467188,-0.3701169192790985,-0.0757316648960113,-0.0887906327843666,walking,2026-03-04_14-07-00
1772633225105890300,4.327890380859375,-0.3957140493268147,1.9125924479335543,-2.2927216458439825,-0.2083221524953842,0.0726231858134269,-0.0101797105744481,walking,2026-03-04_14-07-00
1772633225115839200,4.337839111328125,-0.2418165048339404,2.20839997934252,-2.4965742393940684,0.0255254637449979,0.2568248510360718,0.0849310755729675,walking,2026-03-04_14-07-00
1772633225125788200,4.3477880859375,-0.3078017379222437,2.465327160476148,-2.5036972231417893,0.258892685174942,0.3272023499011993,0.1373357027769088,walking,2026-03-04_14-07-00
1772633225135737000,4.357737060546875,-0.3760742599638179,2.423338468921929,-2.0959487814217805,0.4756838679313659,0.3187158405780792,0.1527511477470398,walking,2026-03-04_14-07-00
1772633225145686300,4.367686279296875,-0.4282009357053786,2.06500521549508,-1.4620108266592025,0.6457203030586243,0.2502057552337646,0.1450261175632476,walking,2026-03-04_14-07-00
1772633225155635200,4.37763525390625,-0.5460044179068878,1.8253233298033475,-0.7300368605583906,0.7294756770133972,0.1474901288747787,0.1114511489868164,walking,2026-03-04_14-07-00
1772633225165584100,4.387584228515625,-0.723050143476203,1.638138962459564,0.0570364769518375,0.7628176808357239,0.0896896794438362,0.0754220411181449,walking,2026-03-04_14-07-00
1772633225175533300,4.397533203125,-0.7639675525370985,1.3764052578270434,0.5400432810127734,0.7273436784744263,-0.0072150360792875,0.0295987986028194,walking,2026-03-04_14-07-00
1772633225185482200,4.407482177734375,-0.8983939239658415,1.1771481753736734,0.9663403558582068,0.6482558250427246,-0.0771621689200401,-0.0475913286209106,walking,2026-03-04_14-07-00
1772633225195431200,4.41743115234375,-1.037223644920066,0.9389999289900064,1.3129443007856607,0.5556222200393677,-0.056798942387104,-0.1176362261176109,walking,2026-03-04_14-07-00
1772633225205381000,4.427381103515625,-1.1399638153612612,0.8836857457861303,1.3674199873387811,0.4377163350582123,0.0144350230693817,-0.1946468502283096,walking,2026-03-04_14-07-00
1772633225215330000,4.437330078125,-1.289412910811603,0.915294643753767,1.5233318490624428,0.3142122626304626,0.0977921411395073,-0.2775932252407074,walking,2026-03-04_14-07-00
1772633225225279000,4.447279052734375,-1.2826685511179268,0.8679486629500984,1.620268959248066,0.1426043063402176,0.0819569826126098,-0.3635331690311432,walking,2026-03-04_14-07-00
1772633225235228400,4.457228515625,-1.1439862027451395,0.7538952905297279,1.822832682031393,-0.0167409405112266,0.1286839097738266,-0.4103076457977295,walking,2026-03-04_14-07-00
1772633225245177300,4.46717724609375,-0.8350146538585423,0.687256580235064,1.7432354137033224,-0.1662808954715728,0.1902775019407272,-0.4123058021068573,walking,2026-03-04_14-07-00
1772633225255126300,4.477126220703125,-0.616585837945342,0.8086196911469101,1.644739383637905,-0.3004965484142303,0.2159981727600097,-0.4050587117671966,walking,2026-03-04_14-07-00
1772633225265075200,4.4870751953125,-0.4269160104613751,0.8908212967544794,1.5880419293820858,-0.4048506319522857,0.1928068250417709,-0.3771556913852691,walking,2026-03-04_14-07-00
1772633225275024100,4.497024169921875,-0.2674434423151426,0.8651610780581831,1.396378370797634,-0.4710374176502228,0.1512788981199264,-0.3357532620429992,walking,2026-03-04_14-07-00
1772633225284973000,4.50697314453125,-0.2462440572189167,0.8937620263814926,1.1494774936378,-0.5025439262390137,0.0898206010460853,-0.3045772314071655,walking,2026-03-04_14-07-00
1772633225294922200,4.516922119140625,-0.2832790353558957,0.9014949587211012,0.8640244752436875,-0.4922546744346618,0.0351707823574543,-0.2820319533348083,walking,2026-03-04_14-07-00
1772633225304871400,4.526871337890625,-0.3373986019477248,0.8132686859965323,0.4876379709929228,-0.4388122260570526,0.0122542819008231,-0.2622944414615631,walking,2026-03-04_14-07-00
1772633225314821000,4.536821044921875,-0.4097178055642172,0.6925745603874325,0.1060445457488298,-0.3561004400253296,0.0077393120154738,-0.242978349328041,walking,2026-03-04_14-07-00
1772633225324770300,4.546770263671875,-0.4086947826594114,0.5909174359425902,-0.0809025057077407,-0.2685253024101257,-0.0085326023399829,-0.220173954963684,walking,2026-03-04_14-07-00
1772633225334719200,4.55671923828125,-0.3381309348102659,0.4220417554885148,-0.1428325999200344,-0.1751360893249511,-0.013264738023281,-0.1951106041669845,walking,2026-03-04_14-07-00
1772633225344668200,4.566668212890625,-0.2671157995296642,0.2139727132871746,-0.1622439873546362,-0.0907173380255699,-0.0107544427737593,-0.1708404123783111,walking,2026-03-04_14-07-00
1772633225354617000,4.5766171875,-0.2914455916061066,0.0487900421321392,-0.0490565841138362,-0.0389949008822441,-0.0253204889595508,-0.1631384938955307,walking,2026-03-04_14-07-00
1772633225364566000,4.58656591796875,-0.3595620280368253,-0.1219105156615376,0.2855290062397718,-0.0424128025770187,-0.05870321393013,-0.1700288951396942,walking,2026-03-04_14-07-00
1772633225374515200,4.59651513671875,-0.3695602384272962,-0.3530927224248647,0.6552443621635436,-0.0747013837099075,-0.0583943203091621,-0.1715224683284759,walking,2026-03-04_14-07-00
1772633225384464400,4.60646435546875,-0.3494407392559573,-0.564664219789207,0.7575538130372762,-0.1071059256792068,-0.0204610526561737,-0.1734242290258407,walking,2026-03-04_14-07-00
1772633225394413300,4.616413330078125,-0.368584890589118,-0.6200635970585048,0.7663596353054046,-0.1383794993162155,0.0127195324748754,-0.1810438334941864,walking,2026-03-04_14-07-00
1772633225404362200,4.6263623046875,-0.3565061475975439,-0.5996938859857619,0.8746966759055852,-0.1868607550859451,0.0070477998815476,-0.1837647855281829,walking,2026-03-04_14-07-00
1772633225414311200,4.636311279296875,-0.2562734847315587,-0.6488735119573772,1.0292021779626608,-0.2410275936126709,-0.0204836800694465,-0.1664423942565918,walking,2026-03-04_14-07-00
1772633225424261000,4.64626123046875,-0.117692185580451,-0.684188717097044,1.0553232921689748,-0.2826756834983825,-0.0578273274004459,-0.1439866125583648,walking,2026-03-04_14-07-00
1772633225434210300,4.656210205078125,-0.1159477713322266,-0.651771863747388,0.961865840792656,-0.3064732253551483,-0.114153042435646,-0.1355213969945907,walking,2026-03-04_14-07-00
1772633225444159200,4.6661591796875,-0.2311123198648914,-0.5576007111437619,0.7711234887063503,-0.3028137683868408,-0.1465698331594467,-0.1295460611581802,walking,2026-03-04_14-07-00
1772633225454108200,4.676108154296875,-0.2980574474939145,-0.4131964779928326,0.4194821341335773,-0.2713777124881744,-0.1359841227531433,-0.1080885082483291,walking,2026-03-04_14-07-00
1772633225464057000,4.68605712890625,-0.2974643769715912,-0.2561303316675126,0.1347644442766905,-0.2284813672304153,-0.1107557341456413,-0.0769777297973632,walking,2026-03-04_14-07-00
1772633225474006300,4.69600634765625,-0.2591932994347065,-0.1604232016682624,0.0058475569844245,-0.1936801820993423,-0.0987775772809982,-0.0397602841258049,walking,2026-03-04_14-07-00
1772633225483955200,4.705955078125,-0.1776633642773143,-0.1260207274593413,0.0313046543240547,-0.1743456423282623,-0.0921162143349647,0.0065230559557676,walking,2026-03-04_14-07-00
1772633225493904100,4.715904052734375,-0.1029963188930414,-0.1783867283821106,0.0644856239140033,-0.1536862999200821,-0.0716722905635833,0.0524642430245876,walking,2026-03-04_14-07-00
1772633225503853300,4.725853271484375,-0.090175123503711,-0.2905580864481628,0.0337216523379087,-0.123931348323822,-0.0338535346090793,0.079997070133686,walking,2026-03-04_14-07-00
1772633225513802200,4.73580224609375,-0.2066967492011375,-0.3264939077042043,-0.0021527941197156,-0.0948796644806861,0.0010433169081807,0.0914608016610145,walking,2026-03-04_14-07-00
1772633225523751200,4.745751220703125,-0.2209311175903305,-0.3651715750142931,0.0635392829746007,-0.0734462812542915,0.0199293904006481,0.1081329882144928,walking,2026-03-04_14-07-00
1772633225533700400,4.755700439453125,-0.0940267756968736,-0.4204712913013994,0.2050257289826869,-0.0642395764589309,0.0292928870767354,0.1373482197523117,walking,2026-03-04_14-07-00
1772633225543650000,4.765650146484375,0.0655558834940195,-0.4421041541777551,0.3658791387617587,-0.0658481270074844,0.0204719640314579,0.1707059144973755,walking,2026-03-04_14-07-00
1772633225553599200,4.77559912109375,0.208312276372686,-0.4462900615602731,0.5092728796958923,-0.0642817020416259,0.0131936352699995,0.2077037096023559,walking,2026-03-04_14-07-00
1772633225563548200,4.785548095703125,0.301902505549509,-0.5097102481998503,0.5235159245818853,-0.0509762875735759,0.0220792721956968,0.2371814399957656,walking,2026-03-04_14-07-00
1772633225573497300,4.795497314453125,0.2873147023464553,-0.5436887979082763,0.470949286520481,-0.0342331193387508,0.0261679645627737,0.2546895146369934,walking,2026-03-04_14-07-00
1772633225583446300,4.8054462890625,0.2388075505426153,-0.5791420963443815,0.4018506158530712,-0.0176392309367656,0.0181731544435024,0.2612986862659454,walking,2026-03-04_14-07-00
1772633225593395200,4.815395263671875,0.2149861463797278,-0.6918098596252501,0.3564192364990711,-0.0063242116011679,-0.0004376913420855,0.2596732676029205,walking,2026-03-04_14-07-00
1772633225603344100,4.82534423828125,0.1858212622970342,-0.7549466992788016,0.3252373317718505,-0.018001640215516,-0.0210388395935297,0.2481793463230133,walking,2026-03-04_14-07-00
1772633225613293000,4.83529296875,0.0908106083956547,-0.7615006509669124,0.3151554982185363,-0.0569732040166854,-0.0400913059711456,0.2328187823295593,walking,2026-03-04_14-07-00
1772633225623242200,4.8452421875,0.0130973454495891,-0.7703475358977914,0.2833282813251018,-0.1070068106055259,-0.0455675609409809,0.2194244116544723,walking,2026-03-04_14-07-00
1772633225633191200,4.855191162109375,-0.0265281789035536,-0.767175920124352,0.0979161843508481,-0.1488684266805648,-0.0202357955276966,0.2097136229276657,walking,2026-03-04_14-07-00
1772633225643141400,4.865141357421875,-0.1715274736044928,-0.6740250504791736,-0.2193202117949724,-0.1572177112102508,0.0325635038316249,0.1949162930250167,walking,2026-03-04_14-07-00
1772633225653090300,4.87509033203125,-0.3299383490696549,-0.5428004707664251,-0.6103536655575037,-0.1319505870342254,0.1115357279777526,0.1917910128831863,walking,2026-03-04_14-07-00
1772633225663039200,4.885039306640625,-0.3736128748189657,-0.4421940244182944,-0.9532061489969492,-0.0756287276744842,0.2066462635993957,0.2088813185691833,walking,2026-03-04_14-07-00
1772633225672988200,4.89498828125,-0.3010022687741555,-0.4004366574019193,-1.180699730375409,0.0052801235578954,0.2839608192443847,0.2413442581892013,walking,2026-03-04_14-07-00
1772633225682936600,4.9049365234375,-0.2195755930618383,-0.4588552363619208,-1.2893243557453156,0.1018189117312431,0.3160809576511383,0.2820962369441986,walking,2026-03-04_14-07-00
1772633225692885800,4.9148857421875,-0.1476384475654922,-0.5301134231507778,-1.2434826420247551,0.1884909868240356,0.279096782207489,0.3169602155685425,walking,2026-03-04_14-07-00
1772633225702834700,4.924834716796875,-0.1340855769007466,-0.6949255074277519,-0.998376831588149,0.2423459589481353,0.1836962103843689,0.3357128500938415,walking,2026-03-04_14-07-00
1772633225712783600,4.93478369140625,-0.1840779074947349,-0.9147121676906944,-0.7215081016659736,0.2609804272651672,0.0668255910277366,0.3424148559570312,walking,2026-03-04_14-07-00
1772633225722732500,4.944732666015625,-0.2885407370100729,-1.1428365943185983,-0.5397568652868271,0.2468784600496292,-0.0413597337901592,0.338882178068161,walking,2026-03-04_14-07-00
1772633225732681700,4.954681640625,-0.420731074748747,-1.2743202633589503,-0.4359615597695112,0.1971406191587448,-0.1225989088416099,0.3159501850605011,walking,2026-03-04_14-07-00
1772633225742630700,4.964630615234375,-0.5449528264947235,-1.3188913726218043,-0.4208920009315013,0.1232245936989784,-0.1723939031362533,0.2880186736583709,walking,2026-03-04_14-07-00
1772633225752579600,4.97457958984375,-0.6605253713063896,-1.26111708291471,-0.5142611895024776,0.0308746695518493,-0.1907781660556793,0.2552286386489868,walking,2026-03-04_14-07-00
1772633225762529500,4.984529541015625,-0.7379888424761593,-1.0994473883166909,-0.6751596074670553,-0.0752901136875152,-0.1846158802509308,0.2178796678781509,walking,2026-03-04_14-07-00
1772633225772478500,4.994478515625,-0.8619776257164776,-0.9073441231407224,-0.8597574654489755,-0.1845326423645019,-0.1743626594543457,0.1723158061504364,walking,2026-03-04_14-07-00
1772633225782427600,5.004427734375,-0.9257596314057708,-0.6388859325587749,-1.0777689327329396,-0.2503673136234283,-0.1146234348416328,0.1166000887751579,walking,2026-03-04_14-07-00
1772633225792376800,5.014376953125,-1.0059680173695087,-0.3164434922024607,-1.4715367798954249,-0.2749561071395874,-0.0455005168914794,0.0749736279249191,walking,2026-03-04_14-07-00
1772633225802325800,5.02432568359375,-1.0130578294999897,0.1176671790033578,-1.8568746523648496,-0.2581284046173095,0.0227730795741081,0.044550210237503,walking,2026-03-04_14-07-00
1772633225812274700,5.034274658203125,-0.8793927247673272,0.4512260566577315,-2.11182088881433,-0.2207710444927215,0.037808109074831,0.0242909453809261,walking,2026-03-04_14-07-00
1772633225822223600,5.0442236328125,-0.6648116703234612,0.6770870683982968,-2.1102350809276103,-0.1107694432139396,0.1271382570266723,0.0342857874929904,walking,2026-03-04_14-07-00
1772633225832172500,5.054172607421875,-0.4605078989397734,0.9069529318660496,-2.2544272787630555,-0.0007994500920176,0.1356131732463836,0.0395598225295543,walking,2026-03-04_14-07-00
1772633225842121700,5.064121826171875,-0.4628007956499234,1.153437337179482,-2.1141846953362227,0.104050263762474,0.1015276312828064,0.0289492513984441,walking,2026-03-04_14-07-00
1772633225852070700,5.074070556640625,-0.3497422429531812,1.1054197407245636,-1.855479398614168,0.1797162443399429,0.0389022044837474,0.0233512744307518,walking,2026-03-04_14-07-00
1772633225862019800,5.084019775390625,-0.2691990903434343,0.9900301512643694,-1.5428613099187611,0.2356817722320556,0.0179045107215642,0.0303897410631179,walking,2026-03-04_14-07-00
1772633225871969800,5.0939697265625,-0.251872491559945,0.9614736266046762,-1.3293652742326258,0.2930818200111389,0.0639890804886818,0.0311400145292282,walking,2026-03-04_14-07-00
1772633225881918700,5.103918701171875,-0.3339989861046895,0.9715883395142852,-1.1765899569690226,0.3525765836238861,0.1616511940956115,0.0280073396861553,walking,2026-03-04_14-07-00
1772633225891867600,5.11386767578125,-0.342244434543699,0.9790624747872352,-0.9377075510919094,0.4178880751132965,0.2588313519954681,0.0276292487978935,walking,2026-03-04_14-07-00
1772633225901816600,5.123816650390625,-0.1762337881319224,0.9617661798104644,-0.5504530313462018,0.4858745634555816,0.3259217143058777,0.0323238708078861,walking,2026-03-04_14-07-00
1772633225911765500,5.133765625,0.0768592216663062,0.8781342491388321,-0.131729022103548,0.5433821082115173,0.3623550832271576,0.0364224761724472,walking,2026-03-04_14-07-00
1772633225921714400,5.14371435546875,0.2878875337983481,0.8412263679802418,0.3078144878059625,0.5731930136680603,0.3874785602092743,0.0489851385354995,walking,2026-03-04_14-07-00
1772633225931664000,5.153663818359375,0.4637977342654019,0.9059561759136616,0.8205985904932022,0.5742865204811096,0.3812575340270996,0.0571394860744476,walking,2026-03-04_14-07-00
1772633225941612800,5.16361279296875,0.576367224803567,0.959661024224758,1.2927853098541495,0.5169678330421448,0.2818081974983215,0.0610583275556564,walking,2026-03-04_14-07-00
1772633225951561700,5.173561767578125,0.7740333848036826,0.9955077058926224,1.805896160277724,0.4254553020000458,0.0957917496562004,0.0792020857334137,walking,2026-03-04_14-07-00
1772633225961510700,5.1835107421875,1.0003799150388688,0.9863108384802936,2.133046047672629,0.3043081164360046,-0.0918449908494949,0.1048951968550682,walking,2026-03-04_14-07-00
1772633225971459600,5.19345947265625,1.127718008707091,0.991140742854774,2.236332234624028,0.1948703676462173,-0.2161597162485122,0.1380549222230911,walking,2026-03-04_14-07-00
1772633225981409500,5.203409423828125,1.0255486238911746,1.1161971553266048,2.0300696573227643,0.0994346514344215,-0.2904965281486511,0.1587807089090347,walking,2026-03-04_14-07-00
1772633225991358700,5.213358642578125,0.8485944855954498,1.2303896439567208,1.7460580699086188,0.01268888451159,-0.3259284198284149,0.1661759316921234,walking,2026-03-04_14-07-00
1772633226001307600,5.2233076171875,0.7020146619711071,1.2147414084479211,1.44946406429708,-0.0651545152068138,-0.3353778719902038,0.1649855077266693,walking,2026-03-04_14-07-00
1772633226011256600,5.233256591796875,0.5123473552377894,1.1387845424488183,1.1362725596278904,-0.1353631168603897,-0.3372827470302582,0.1521247178316116,walking,2026-03-04_14-07-00
1772633226021205800,5.243205810546875,0.2572833193612285,1.1236065548002718,0.8900076422840356,-0.2048228830099105,-0.3439230620861053,0.1196911409497261,walking,2026-03-04_14-07-00
1772633226031154700,5.25315478515625,-0.0010266031013801,1.1053381999209522,0.6644295391380787,-0.2783241271972656,-0.3475013971328735,0.0753562450408935,walking,2026-03-04_14-07-00
1772633226041103600,5.263103515625,-0.2082730220745317,1.086321364761889,0.425928241533041,-0.3443180322647095,-0.3296350538730621,0.0266994927078485,walking,2026-03-04_14-07-00
1772633226051052500,5.273052490234375,-0.327520364675112,1.092705805101991,0.1106669448524713,-0.379791647195816,-0.2764679193496704,-0.020393731072545,walking,2026-03-04_14-07-00
1772633226061001700,5.283001708984375,-0.3644963061012327,1.111717087303102,-0.2311269694447517,-0.384871631860733,-0.1967459172010421,-0.052523173391819,walking,2026-03-04_14-07-00
1772633226070950700,5.29295068359375,-0.3058114408878609,1.1935578967742622,-0.5685358005255461,-0.3667879104614258,-0.0873327478766441,-0.0594586841762065,walking,2026-03-04_14-07-00
1772633226080899800,5.30289990234375,-0.1694172399848699,1.2489029135078191,-0.7675976526677608,-0.2852978408336639,0.1091904267668724,-0.0366537719964981,walking,2026-03-04_14-07-00
1772633226090848800,5.312848876953125,-0.0535507719942368,1.2925962170228362,-0.9208382493555544,-0.1907695233821869,0.2461172640323639,-0.0127589823678135,walking,2026-03-04_14-07-00
1772633226101420500,5.323420654296875,0.0242961546683218,1.276194971189648,-0.749749276766181,-0.0867049098014831,0.2999520003795624,0.0094395307824015,walking,2026-03-04_14-07-00
1772633226111369700,5.33336962890625,0.1351373235765378,1.108564760752022,-0.5136404272556304,-0.0084174554795026,0.2740532457828522,0.0294280722737312,walking,2026-03-04_14-07-00
1772633226121318700,5.343318603515625,0.3749283047990873,0.6508966883480548,0.1184697275578975,0.047607198357582,0.222041442990303,0.0475926958024501,walking,2026-03-04_14-07-00
1772633226131267600,5.353267578125,0.4591797921411693,0.4055668598972261,0.6382376977831125,0.0660857856273651,0.1459773331880569,0.0608509667217731,walking,2026-03-04_14-07-00
1772633226141216800,5.363216796875,0.5076460456790403,0.2067760797813534,1.092705805101991,0.0518951267004013,0.0626630038022995,0.0649178698658943,walking,2026-03-04_14-07-00
1772633226151165700,5.373165771484375,0.5508469625672325,-0.0990321827687323,1.36201374438107,0.0217708274722099,0.0070329420268535,0.0650360137224197,walking,2026-03-04_14-07-00
1772633226161114600,5.383114501953125,0.5326147384472191,-0.3517322477266192,1.439825298336148,-0.0183619447052478,-0.0246477555483579,0.0577522665262222,walking,2026-03-04_14-07-00
1772633226171063600,5.3930634765625,0.4614050669752061,-0.4624117597997188,1.4970657734274864,-0.0704910606145858,-0.0556819923222065,0.039846833795309,walking,2026-03-04_14-07-00
1772633226181012700,5.4030126953125,0.3999108799621462,-0.5205611664295197,1.534424320963025,-0.1169323325157165,-0.0678118914365768,0.0265797600150108,walking,2026-03-04_14-07-00
1772633226190961700,5.412961669921875,0.3971967256326228,-0.5472584730885922,1.4135042776435611,-0.1521348357200622,-0.0635658726096153,0.0108296694234013,walking,2026-03-04_14-07-00
1772633226200910600,5.42291064453125,0.2899222544963471,-0.5473519965909421,1.2703607120782137,-0.1922798752784729,-0.07513277977705,-0.0153097892180085,walking,2026-03-04_14-07-00
1772633226210860800,5.43286083984375,0.1656367350654676,-0.4574395243450999,1.2580541882127525,-0.2462928742170334,-0.1083718687295913,-0.0480450205504894,walking,2026-03-04_14-07-00
1772633226220809700,5.442809814453125,0.1464147327231243,-0.4458307734854519,1.1876555408626794,-0.2934848666191101,-0.1191757842898368,-0.0659947246313095,walking,2026-03-04_14-07-00
1772633226230758700,5.452758544921875,0.1443530326866544,-0.4581149393886327,0.9064905750513076,-0.3135537505149841,-0.1026836633682251,-0.0851307809352874,walking,2026-03-04_14-07-00
1772633226240707600,5.46270751953125,0.0217223038586322,-0.3911218626983463,0.5640893425107002,-0.3125662505626678,-0.0753287374973297,-0.1154482066631317,walking,2026-03-04_14-07-00
1772633226250656500,5.472656494140625,-0.0715287930243182,-0.2900665035389363,0.3118079413563013,-0.2924260199069977,-0.041173443198204,-0.1363740712404251,walking,2026-03-04_14-07-00
1772633226260605700,5.482605712890625,-0.0589327664266806,-0.2402323591813445,0.1016957028895616,-0.2514261305332184,-0.0042953211814165,-0.1525413244962692,walking,2026-03-04_14-07-00
1772633226270554600,5.4925546875,-0.0538840134034398,-0.283062177734822,-0.0704740506738424,-0.1998111605644226,0.0082237981259822,-0.1734599471092224,walking,2026-03-04_14-07-00
1772633226280503800,5.50250390625,-0.0722375897476449,-0.3013148966535925,-0.1806897446274757,-0.1442083418369293,-0.0094137853011488,-0.1984260231256485,walking,2026-03-04_14-07-00
1772633226290452700,5.51245263671875,-0.0448273125136271,-0.3410632619351148,-0.2060954040408134,-0.0967480763792991,-0.0274420101195573,-0.2128660380840301,walking,2026-03-04_14-07-00
1772633226300401700,5.522401611328125,0.0290615607055369,-0.4238901598341762,-0.2201607542723417,-0.0560424625873565,-0.0323246493935585,-0.2216765731573104,walking,2026-03-04_14-07-00
1772633226310350600,5.5323505859375,0.0614172127867117,-0.4797884265363216,-0.2158013900190591,-0.0266711823642253,-0.0320412442088127,-0.2277409434318542,walking,2026-03-04_14-07-00
1772633226320299500,5.542299560546875,0.1433017244022805,-0.5884684353552758,-0.1609212143182754,-0.008849305100739,-0.0323882550001144,-0.2317396849393844,walking,2026-03-04_14-07-00
1772633226330249500,5.55224951171875,0.2512023189471103,-0.6999770917288959,-0.1449766262114047,0.003846141276881,-0.0404432192444801,-0.2324914336204528,walking,2026-03-04_14-07-00
1772633226340198700,5.56219873046875,0.3084972459057346,-0.8454265961490571,-0.08254501221776,-0.0014247871004045,-0.0633621141314506,-0.2338823974132537,walking,2026-03-04_14-07-00
1772633226350147800,5.57214794921875,0.3770881862467155,-0.9420290675528348,-0.0193237091511487,-0.0085057727992534,-0.0980157256126403,-0.2338932603597641,walking,2026-03-04_14-07-00
1772633226360096800,5.5820966796875,0.4582607776001095,-1.0427269915767012,-0.0752437492936849,-0.0093491952866315,-0.1256825029850006,-0.2345534563064575,walking,2026-03-04_14-07-00
1772633226370045700,5.592045654296875,0.4667267003893852,-1.1169823143549262,-0.1726414627283811,-0.0024942979216575,-0.1491524577140808,-0.2394128441810608,walking,2026-03-04_14-07-00
1772633226379994600,5.60199462890625,0.4359837350687012,-1.1174044852897524,-0.3103016284465789,0.0058781476691365,-0.1747369021177292,-0.2458899170160293,walking,2026-03-04_14-07-00
1772633226389943600,5.611943603515625,0.437585873035714,-1.104346266274154,-0.4440238701939583,0.0239003244787454,-0.1938417106866836,-0.2479905933141708,walking,2026-03-04_14-07-00
1772633226399892500,5.621892578125,0.4454902164194733,-1.0592467492230235,-0.634221447879076,0.0535631440579891,-0.1803141832351684,-0.2414064556360244,walking,2026-03-04_14-07-00
1772633226409841700,5.631841552734375,0.4661172632541507,-0.963566507230699,-0.8380804711699485,0.0943914577364921,-0.1529651135206222,-0.219815582036972,walking,2026-03-04_14-07-00
1772633226419790800,5.641790771484375,0.5356942554904147,-0.8557289405852556,-0.9389812242895365,0.1477135270833969,-0.113780677318573,-0.1897178739309311,walking,2026-03-04_14-07-00
1772633226429739800,5.65173974609375,0.6464180816292763,-0.8345530276961625,-0.9989590153902768,0.2100678086280822,-0.0784669294953346,-0.1593295633792877,walking,2026-03-04_14-07-00
1772633226439689700,5.661689697265625,0.7289581254109739,-0.9161201347924768,-0.9614502457290888,0.2587000727653503,-0.0674092173576355,-0.1368218511343002,walking,2026-03-04_14-07-00
1772633226450259700,5.672259765625,0.7986703979320824,-1.0169105594053864,-0.829914700371027,0.3030950725078583,-0.0739404335618019,-0.1203436255455017,walking,2026-03-04_14-07-00
1772633226460208600,5.682208740234375,0.8757670816160738,-1.1559181942097845,-0.6831184575170278,0.3253899812698364,-0.0996620431542396,-0.1116715744137764,walking,2026-03-04_14-07-00
1772633226470157600,5.692157470703125,0.955229106191918,-1.2341241543099284,-0.5644657746076583,0.3213028907775879,-0.1367903798818588,-0.1059810370206832,walking,2026-03-04_14-07-00
1772633226480107500,5.702107421875,1.007335652460903,-1.2974085857406257,-0.4156581919312477,0.2847675085067749,-0.1818079203367233,-0.0951046869158744,walking,2026-03-04_14-07-00
1772633226490056700,5.712056640625,0.9934502619061618,-1.2499338639907538,-0.2739543037801981,0.2296608388423919,-0.209473043680191,-0.0868871137499809,walking,2026-03-04_14-07-00
1772633226500005600,5.722005615234375,0.8685550313454121,-1.1736598948664962,-0.2773199808210134,0.1680520623922348,-0.1971950829029083,-0.0824012830853462,walking,2026-03-04_14-07-00
1772633226509954800,5.731954833984375,0.7019067446172237,-1.0379124309018253,-0.4233949236631393,0.1178454235196113,-0.1647404134273529,-0.0828788802027702,walking,2026-03-04_14-07-00
1772633226519903700,5.74190380859375,0.556261608027108,-0.8985545213550329,-0.5958645369559527,0.0654863491654396,-0.1535812318325042,-0.077092632651329,walking,2026-03-04_14-07-00
1772633226529852700,5.751852783203125,0.3458084106355905,-0.6078988197512925,-0.6860749692350625,0.0178179144859313,-0.1520683616399765,-0.0671764835715293,walking,2026-03-04_14-07-00
1772633226539801600,5.761801513671875,0.0395515001357067,-0.2117484613664448,-0.7343067929625511,-0.0198317263275384,-0.1545064747333526,-0.0574932247400283,walking,2026-03-04_14-07-00
1772633226549750500,5.77175048828125,-0.2796283673612401,0.1474348330184817,-0.8161959716200828,-0.0511503592133522,-0.1496724933385849,-0.0551020354032516,walking,2026-03-04_14-07-00
1772633226559699700,5.78169970703125,-0.608027597230114,0.3802556007690727,-0.8234709310591221,-0.0928293615579605,-0.1594438850879669,-0.0737883746623992,walking,2026-03-04_14-07-00
1772633226569648600,5.791648681640625,-0.9430584106005728,0.5509091045506298,-0.7543442033410072,-0.1371495127677917,-0.1586595773696899,-0.1093590557575225,walking,2026-03-04_14-07-00
1772633226579597800,5.801597900390625,-1.1480352589402347,0.7109050207175314,-0.6972936978638171,-0.1755373775959015,-0.1393439322710037,-0.1339405626058578,walking,2026-03-04_14-07-00
1772633226589547500,5.811547607421875,-1.1220853365823626,0.9195892722077668,-0.7120400160968303,-0.1913960427045822,-0.1162330731749534,-0.1367622166872024,walking,2026-03-04_14-07-00
1772633226599496700,5.82149658203125,-0.9496964603755622,1.1499537328474223,-0.7957809601008892,-0.1727216839790344,-0.0917216092348098,-0.1159900873899459,walking,2026-03-04_14-07-00
1772633226609445600,5.831445556640625,-0.7984050980594009,1.351759769131243,-0.9890957930237054,-0.1074749454855918,-0.057590015232563,-0.0913319811224937,walking,2026-03-04_14-07-00
1772633226619394800,5.841394775390625,-0.6788940447550267,1.4911702856481075,-1.2282137612223625,0.0162504538893699,-0.0224077925086021,-0.0705380216240882,walking,2026-03-04_14-07-00
1772633226629343700,5.85134375,-0.6057140230581164,1.5658049631327389,-1.4521967041313648,0.1848730593919754,0.0128446584567427,-0.0576576218008995,walking,2026-03-04_14-07-00
1772633226639292700,5.861292724609375,-0.5691066957486793,1.606134781564027,-1.51585815218091,0.37724569439888,0.0392813272774219,-0.0577428415417671,walking,2026-03-04_14-07-00
1772633226649241600,5.87124169921875,-0.5819460843818262,1.662098514717817,-1.3287579559892415,0.553286612033844,0.0362053625285625,-0.0668251141905784,walking,2026-03-04_14-07-00
1772633226659190500,5.8811904296875,-0.5654788241077214,1.604191246280819,-0.8913602259367703,0.6716286540031433,-0.0064763184636831,-0.0881522372364997,walking,2026-03-04_14-07-00
1772633226669139700,5.8911396484375,-0.5162647844098508,1.4754986692637204,-0.2509615507274866,0.7163639068603516,-0.0617422498762607,-0.1155464425683021,walking,2026-03-04_14-07-00
1772633226679088600,5.901088623046875,-0.4848046837957576,1.2786454330816863,0.3784334999084472,0.6857223510742188,-0.0989093258976936,-0.1547684073448181,walking,2026-03-04_14-07-00
1772633226689037800,5.911037841796875,-0.5273551739512011,1.0877446755632758,0.886006589949131,0.5850170850753784,-0.1046382263302803,-0.2037025541067123,walking,2026-03-04_14-07-00
1772633226698987800,5.92098779296875,-0.5749812868705019,0.956596960479021,1.2884352979511022,0.4328730404376983,-0.0768670514225959,-0.2566432654857635,walking,2026-03-04_14-07-00
1772633226708936700,5.930936767578125,-0.6157991445470601,0.8240674356475471,1.527840850919485,0.2651193141937256,-0.0214359946548938,-0.3153026700019836,walking,2026-03-04_14-07-00
1772633226718885600,5.9408857421875,-0.6741637282975017,0.73235039819777,1.6157377455592157,0.0910862609744072,0.0378033593297004,-0.3714199960231781,walking,2026-03-04_14-07-00
1772633226728834600,5.95083447265625,-0.6650714903034269,0.7346177586078644,1.6199375353366137,-0.0595216453075408,0.0763012394309043,-0.4176871180534363,walking,2026-03-04_14-07-00
1772633226738783500,5.960783447265625,-0.5471507383977994,0.8083744842141867,1.4551953014254568,-0.1643082499504089,0.1154752746224403,-0.4486961662769317,walking,2026-03-04_14-07-00
1772633226748733000,5.97073291015625,-0.4296118254166096,0.9127072576090692,1.1289286266058682,-0.2371720820665359,0.1600047349929809,-0.4567185342311859,walking,2026-03-04_14-07-00
1772633226758681900,5.980681884765625,-0.2954022750763222,1.0825000529080628,0.8559972361326217,-0.2889876067638397,0.1878366321325302,-0.4421830177307129,walking,2026-03-04_14-07-00
1772633226768630800,5.990630859375,-0.1655254201781004,1.2099179338142274,0.7079121225118636,-0.3291980624198913,0.1894664615392685,-0.4126044511795044,walking,2026-03-04_14-07-00
1772633226778579700,6.000579833984375,-0.0845777236217632,1.2200056125864387,0.5691033712804318,-0.3449469208717346,0.1797768175601959,-0.3783535361289978,walking,2026-03-04_14-07-00
1772633226788528600,6.010528564453125,-0.0993835991554427,1.1816592230573295,0.3605553133904933,-0.3313797116279602,0.1696671843528747,-0.3465666770935058,walking,2026-03-04_14-07-00
1772633226798478600,6.020478515625,-0.1724777235340326,1.1744213807582855,0.1917278559923171,-0.300835907459259,0.1555324643850326,-0.3170287609100342,walking,2026-03-04_14-07-00
1772633226808427800,6.030427734375,-0.1829508214272558,1.1342834316372872,0.0723427671551704,-0.2496254295110702,0.1643485128879547,-0.2833831906318664,walking,2026-03-04_14-07-00
1772633226818376700,6.040376708984375,-0.1578631967208348,1.0043559059977532,-0.0601017097413539,-0.1865988075733184,0.1845560371875763,-0.2388335466384887,walking,2026-03-04_14-07-00
1772633226828325600,6.05032568359375,-0.1017968069101683,0.8576566937774419,-0.0628074615687131,-0.1275715231895446,0.1791642308235168,-0.1930679827928543,walking,2026-03-04_14-07-00
1772633226838274800,6.06027490234375,-0.0406459717083722,0.6611804742142557,0.1289046123325824,-0.0934114232659339,0.1500681340694427,-0.1554396450519561,walking,2026-03-04_14-07-00
1772633226848223700,6.0702236328125,0.0171515162112191,0.3729803490690886,0.3809878605663776,-0.0706984102725982,0.1301533430814743,-0.1185142546892166,walking,2026-03-04_14-07-00
1772633226858172700,6.080172607421875,-0.0065064227519556,0.0648579643577337,0.5220037664532661,-0.0521910339593887,0.1203835383057594,-0.0953316986560821,walking,2026-03-04_14-07-00
1772633226868121600,6.09012158203125,-0.106238004228007,-0.1578434143081307,0.6664402944386005,-0.0585317350924015,0.0941723734140396,-0.0906129702925682,walking,2026-03-04_14-07-00
1772633226878070500,6.100070556640625,-0.1722803743310272,-0.3205412829101085,0.9422136303395032,-0.093107558786869,0.0545077808201313,-0.085515409708023,walking,2026-03-04_14-07-00
1772633226888019700,6.110019775390625,-0.1252042234446853,-0.5136467108659446,1.1823889986366032,-0.1397711038589477,0.0277448687702417,-0.0673791170120239,walking,2026-03-04_14-07-00
1772633226897969000,6.119968994140625,-0.0414957204055041,-0.665682169547677,1.2923457493931054,-0.1857375502586364,0.0050022723153233,-0.0468381531536579,walking,2026-03-04_14-07-00
1772633226907918600,6.129918701171875,-0.0558157029852271,-0.6970525825843215,1.2860977949142456,-0.2321673482656479,-0.0289475042372941,-0.0357086658477783,walking,2026-03-04_14-07-00
1772633226917867800,6.13986767578125,-0.1470621272485703,-0.7086747774474322,1.1997089667499066,-0.2758788466453552,-0.0637076124548912,-0.0288012214004993,walking,2026-03-04_14-07-00
1772633226927816700,6.149816650390625,-0.2185681330523453,-0.7715005053251981,1.0345160664618014,-0.3028136789798736,-0.0808380469679832,-0.0172872338443994,walking,2026-03-04_14-07-00
1772633226937765600,6.159765625,-0.2543353197432123,-0.7946325207181274,0.7682242601335049,-0.3119818866252899,-0.0808319225907325,-0.010770478285849,walking,2026-03-04_14-07-00
1772633226947714800,6.16971484375,-0.3354261328309774,-0.7060043891943991,0.5314087236583233,-0.3134506046772003,-0.0669644400477409,-0.0020590280182659,walking,2026-03-04_14-07-00
1772633226957663700,6.179663818359375,-0.3350787076327949,-0.6379977515473961,0.3696481359064579,-0.3047783076763153,-0.0402731783688068,0.0177026931196451,walking,2026-03-04_14-07-00
1772633226967612700,6.18961279296875,-0.2389890993882902,-0.5946043077617883,0.2363829902768135,-0.2782803475856781,-0.0134239168837666,0.0513044856488704,walking,2026-03-04_14-07-00
1772633226977561600,6.1995615234375,-0.1899804643357172,-0.5316188592776656,0.0760375300198793,-0.2354484498500824,-0.0027576903812587,0.0765105113387107,walking,2026-03-04_14-07-00
1772633226987510800,6.2095107421875,-0.2128510888461023,-0.4247742491923272,0.0187298349112272,-0.1944686025381088,-0.0228741466999053,0.0987476035952568,walking,2026-03-04_14-07-00
1772633226997459700,6.219459716796875,-0.1821647490834817,-0.3765272278957068,0.0793511846125125,-0.1655333638191223,-0.05891789868474,0.1271395683288574,walking,2026-03-04_14-07-00
1772633227007408600,6.22940869140625,-0.0959040225445292,-0.4082207354068756,0.1648053622752427,-0.1461641788482666,-0.088026039302349,0.1564396619796753,walking,2026-03-04_14-07-00
1772633227017358800,6.23935888671875,-0.0788589075835421,-0.4533217137627303,0.1656003120452165,-0.1276501417160034,-0.0889096781611442,0.1786549538373947,walking,2026-03-04_14-07-00
1772633227027307800,6.249307861328125,-0.1121612293976824,-0.438307099982351,0.1524877324938774,-0.123415969312191,-0.0782365947961807,0.1958226263523101,walking,2026-03-04_14-07-00
1772633227037256700,6.259256591796875,-0.1046057542505208,-0.4339743314750492,0.1825491087585687,-0.1235890761017799,-0.0489748418331146,0.221888855099678,walking,2026-03-04_14-07-00
1772633227047205600,6.26920556640625,-0.0170092764626257,-0.485722931151837,0.1031383029133081,-0.1057152599096298,0.0031634469050914,0.2494934648275375,walking,2026-03-04_14-07-00
1772633227057154600,6.279154541015625,-0.0118585426359437,-0.5001156136415899,-0.0562678306668996,-0.0662722438573837,0.0606320649385452,0.2685936391353607,walking,2026-03-04_14-07-00
1772633227067103700,6.289103759765625,-0.0606411412471439,-0.4670451186887919,-0.1791992138087749,-0.0210597291588783,0.089280679821968,0.2805709838867187,walking,2026-03-04_14-07-00
1772633227077052700,6.299052734375,0.0250105226159095,-0.5220099039331079,-0.1585480554461479,0.023652084171772,0.0772772803902626,0.2974048256874084,walking,2026-03-04_14-07-00
1772633227087001900,6.309001953125,0.1624916237064637,-0.6052164487995207,-0.1018015013515949,0.0503986962139606,0.0429172627627849,0.3136589825153351,walking,2026-03-04_14-07-00
1772633227096950800,6.31895068359375,0.1689323608110658,-0.6092332832254469,0.0127554366767406,0.0511318631470203,-0.0005519166588783,0.3182031512260437,walking,2026-03-04_14-07-00
1772633227106899700,6.328899658203125,0.1341137983482331,-0.6082141693107783,0.1220546003073453,0.0297218821942806,-0.0286135114729404,0.3203307092189789,walking,2026-03-04_14-07-00
1772633227116848600,6.3388486328125,0.0894628470485098,-0.6636907034695148,0.0564601383686065,0.0078626573085784,-0.0262302495539188,0.3201949000358581,walking,2026-03-04_14-07-00
1772633227126798600,6.348798583984375,-0.0091475118452683,-0.6063496906131506,-0.1423988846778869,-0.0056616920046508,0.0127342585474252,0.3169294595718384,walking,2026-03-04_14-07-00
1772633227136747500,6.35874755859375,-0.1276284823163878,-0.4911332657627761,-0.3670633801102638,-0.0047173355706036,0.0784493535757064,0.3188495934009552,walking,2026-03-04_14-07-00
1772633227146696700,6.36869677734375,-0.195679077836126,-0.3689579616852104,-0.5840449198246002,0.0114751690998673,0.1484059542417526,0.3311476707458496,walking,2026-03-04_14-07-00
1772633227156646000,6.37864599609375,-0.1868272244691848,-0.2944727756738662,-0.8009048789858818,0.0478211939334869,0.1954983621835708,0.3489905595779419,walking,2026-03-04_14-07-00
1772633227166594800,6.3885947265625,-0.1934888560491613,-0.3074189126171171,-0.9248346255153416,0.1072093769907951,0.2039276212453842,0.3561830818653106,walking,2026-03-04_14-07-00
1772633227176543700,6.398543701171875,-0.2646956597106531,-0.3944419470317661,-1.0290314975708723,0.1717188656330108,0.1896235197782516,0.3572579324245453,walking,2026-03-04_14-07-00
1772633227186492700,6.40849267578125,-0.3250308859469369,-0.4475966141141951,-1.0473866539508103,0.2247150093317031,0.1657218188047409,0.3563217222690582,walking,2026-03-04_14-07-00
1772633227196441600,6.418441650390625,-0.3892034253237769,-0.4747381574094295,-0.9693430448055268,0.2512997388839721,0.1174128800630569,0.3543717563152313,walking,2026-03-04_14-07-00
1772633227206390500,6.428390625,-0.4237038434818387,-0.5304522997163236,-0.8221890745550393,0.2567561268806457,0.0577310994267463,0.3511232733726501,walking,2026-03-04_14-07-00
1772633227216339700,6.438339599609375,-0.4942927527070045,-0.5897587674267589,-0.7107189966261387,0.2328862100839615,-0.0048345457762479,0.3375265002250671,walking,2026-03-04_14-07-00
1772633227226289000,6.448288818359375,-0.5896132580088451,-0.6251189807519316,-0.6554284865587949,0.1832056045532226,-0.0407977104187011,0.3182913661003113,walking,2026-03-04_14-07-00
1772633227236238600,6.458238525390625,-0.6996625458870083,-0.607490092819929,-0.6530062278479337,0.1131831109523773,-0.0536407977342605,0.2910639941692352,walking,2026-03-04_14-07-00
1772633227246187800,6.468187744140625,-0.8057126445937901,-0.53034708577618,-0.7388450209140777,0.0349111296236515,-0.0640723928809166,0.2692802250385284,walking,2026-03-04_14-07-00
1772633227256136700,6.47813671875,-0.8141965414311736,-0.3950330447927117,-0.8482914840608835,-0.0499853864312171,-0.0819043889641761,0.2475253790616989,walking,2026-03-04_14-07-00
1772633227266085600,6.488085693359375,-0.8350656533934175,-0.1948651311047375,-0.9732891520828008,-0.123439073562622,-0.1007380858063697,0.2296133935451507,walking,2026-03-04_14-07-00
1772633227276034600,6.49803466796875,-0.8390773001875728,0.0543763178318738,-1.2011790393024682,-0.1768807172775268,-0.0993670895695686,0.2086963951587677,walking,2026-03-04_14-07-00
1772633227285983700,6.507983642578125,-0.8191721378866582,0.2660997908875346,-1.466053380048275,-0.2046506106853485,-0.0916541516780853,0.2043444961309433,walking,2026-03-04_14-07-00
1772633227295932700,6.5179326171875,-0.7542310983553528,0.5320243713386357,-1.7447732907950877,-0.1870806664228439,-0.0885433107614517,0.2032507359981537,walking,2026-03-04_14-07-00
1772633227305881900,6.5278818359375,-0.7298053898900747,0.7426838684245943,-2.019417330405116,-0.1313590705394745,-0.0810140967369079,0.1901742070913314,walking,2026-03-04_14-07-00
1772633227315830800,6.537830810546875,-0.8094289617031812,0.8776208927892148,-2.2021365350335835,-0.0436526536941528,-0.0457056388258934,0.1701086312532425,walking,2026-03-04_14-07-00
1772633227325779700,6.54777978515625,-0.8157324457615613,0.9737614457696676,-2.2823674250900745,0.0641324743628501,0.0093214400112628,0.1567551791667938,walking,2026-03-04_14-07-00
1772633227335728600,6.557728759765625,-0.7793618132848292,0.9759330907203256,-2.2615859183460474,0.1754006743431091,0.078538067638874,0.1421221792697906,walking,2026-03-04_14-07-00
1772633227345678800,6.567678955078125,-0.7364844292625784,0.9190782539457082,-2.0449819797724484,0.2859060168266296,0.1490347236394882,0.1271819174289703,walking,2026-03-04_14-07-00
1772633227355627800,6.577627685546875,-0.6448922603014856,0.8699223011106252,-1.6465712752401829,0.3833233714103699,0.2119353860616684,0.1096519157290458,walking,2026-03-04_14-07-00
1772633227365576700,6.58757666015625,-0.5365414469042793,0.8402215748518704,-1.1180682098954915,0.4657531976699829,0.2516792416572571,0.0928028598427772,walking,2026-03-04_14-07-00
1772633227375525600,6.597525634765625,-0.3361610960420221,0.7965133660286664,-0.4735059852659702,0.5244162678718567,0.2643777132034302,0.0819944217801094,walking,2026-03-04_14-07-00
1772633227385474600,6.607474609375,-0.1048542673851829,0.7697761657506227,0.1659545323103666,0.5667376518249512,0.2632682919502258,0.0775735825300216,walking,2026-03-04_14-07-00
1772633227395423700,6.617423828125,0.1682985016206279,0.719177174500376,0.7368401108324527,0.5871550440788269,0.2441862076520919,0.0744869783520698,walking,2026-03-04_14-07-00
1772633227405372700,6.62737255859375,0.3773615232953801,0.710621381470561,1.2598071693599224,0.5689599514007568,0.1932217180728912,0.0673536658287048,walking,2026-03-04_14-07-00
1772633227415321600,6.637321533203125,0.5414282325651496,0.7053592231586575,1.7997703708738086,0.5301273465156555,0.1693182438611984,0.0600917600095272,walking,2026-03-04_14-07-00
