time,seconds_elapsed,acc_x,acc_y,acc_z,gyr_x,gyr_y,gyr_z,activity,session
1772632837102214700,0.063214599609375,-0.1722862195499241,-0.0344923444494605,-0.1523532924592495,-0.0236294418573379,0.0112229250371456,0.0730942115187645,walking,2026-03-04_14-00-37
1772632837112163600,0.07316357421875,-0.131353320658952,-0.0402278193615376,-0.1735989095836877,0.0014870623126626,-0.0017861833330243,0.0736080333590507,walking,2026-03-04_14-00-37
1772632837122112500,0.083112548828125,-0.1355563983719795,-0.0579160362653434,-0.1454097569316625,0.0153256468474864,-0.0154692381620407,0.0781167596578598,walking,2026-03-04_14-00-37
1772632837132061400,0.0930615234375,-0.1686138146474957,-0.1057348952777683,-0.0756605134010314,0.0167066380381584,-0.021123306825757,0.0766331925988197,walking,2026-03-04_14-00-37
1772632837142010400,0.10301025390625,-0.2824727604743093,-0.1245211365513503,-0.0418967754870653,0.0077778585255146,-0.0158015135675668,0.0634936913847923,walking,2026-03-04_14-00-37
1772632837151960300,0.112960205078125,-0.3549865733474492,-0.1703629964023828,-0.0492412930309772,-0.0021784771233797,0.0083168838173151,0.0413788929581642,walking,2026-03-04_14-00-37
1772632837161909500,0.122909423828125,-0.3633766544215381,-0.193538997067511,-0.0613654460668563,-0.0167526267468929,0.0310131423175334,0.0269410964101552,walking,2026-03-04_14-00-37
1772632837171858400,0.1328583984375,-0.3352089098837226,-0.1640095357224345,-0.0026917233020067,-0.0307932589203119,0.0320129580795764,0.0184218063950538,walking,2026-03-04_14-00-37
1772632837181807600,0.1428076171875,-0.3112571025405078,-0.1385064072839915,-0.0114443540781736,-0.0330473594367504,0.0187072735279798,0.0107441786676645,walking,2026-03-04_14-00-37
1772632837191756500,0.152756591796875,-0.2697511530019342,-0.0570949291408061,-0.1173597204893827,-0.0163007974624633,0.0101090362295508,0.0069735804572701,walking,2026-03-04_14-00-37
1772632837201705500,0.16270556640625,-0.2290480442788451,0.0215972070410847,-0.2119938144296407,-0.0027098869904875,0.0074823601171374,0.0177226308733224,walking,2026-03-04_14-00-37
1772632837211654400,0.172654296875,-0.2388837210513651,0.0549941574692726,-0.1916822632849216,0.0024539590813219,0.0093232151120901,0.036024659872055,walking,2026-03-04_14-00-37
1772632837221603300,0.182603271484375,-0.2811492567855864,0.0496393524378538,-0.2045043354570865,0.0157212950289249,0.0249969828873872,0.0425960086286067,walking,2026-03-04_14-00-37
1772632837231552500,0.192552490234375,-0.3481101117067038,0.0289181975789368,-0.2379366494596004,0.029755251482129,0.0495564006268978,0.0405859462916851,walking,2026-03-04_14-00-37
1772632837241501700,0.202501708984375,-0.3705467652466148,0.0240602361537516,-0.185551213183999,0.0409818105399608,0.060572300106287,0.0390381179749965,walking,2026-03-04_14-00-37
1772632837251451400,0.212451416015625,-0.370539239527285,-0.0083630469366908,-0.0358884749829769,0.0405327565968036,0.0665792152285575,0.0375171564519405,walking,2026-03-04_14-00-37
1772632837261400600,0.222400634765625,-0.3031733109366148,-0.0440527844771742,0.1462806945472955,0.0341837778687477,0.0681906938552856,0.0380593761801719,walking,2026-03-04_14-00-37
1772632837271349500,0.232349609375,-0.2661869577143341,-0.076706661453098,0.2801730321645737,0.0203525070101022,0.0507151968777179,0.0407127439975738,walking,2026-03-04_14-00-37
1772632837281298400,0.24229833984375,-0.2426632395900785,-0.0901321063458919,0.3661743223160505,0.0084604267030954,0.0124434418976306,0.0344894714653492,walking,2026-03-04_14-00-37
1772632837291247600,0.25224755859375,-0.2202921255670487,-0.1091642852045595,0.3483937509536743,0.0054216161370277,-0.0063854623585939,0.0267555750906467,walking,2026-03-04_14-00-37
1772632837301196500,0.262196533203125,-0.1878319445323198,-0.1025029276192188,0.2678898891746997,0.0035209180787205,-0.0129789169877767,0.0211480222642421,walking,2026-03-04_14-00-37
1772632837311145500,0.2721455078125,-0.1954931998752057,-0.0569996520727872,0.2491355043441057,-0.0003780722618103,-0.0102245872840285,0.0222234837710857,walking,2026-03-04_14-00-37
1772632837321094400,0.282094482421875,-0.2041097101163119,-0.0309236921824514,0.2117360402762889,-0.0091529209166765,-0.0024963598698377,0.0232906118035316,walking,2026-03-04_14-00-37
1772632837331043600,0.292043701171875,-0.2086051949046552,-0.0489357342131435,0.2178799498587846,-0.0238671563565731,0.0006323449779301,0.0205728430300951,walking,2026-03-04_14-00-37
1772632837340992500,0.301992431640625,-0.2132680721491575,-0.0538952563166618,0.2396440378993749,-0.0416964851319789,0.0095672504976391,0.0183664131909608,walking,2026-03-04_14-00-37
1772632837350942500,0.3119423828125,-0.2301929765302687,-0.0438628148630261,0.2303583231598138,-0.0561829917132854,0.0125408452004194,0.0123909674584865,walking,2026-03-04_14-00-37
1772632837360891600,0.3218916015625,-0.264783301461488,-0.0181096571862697,0.2083843917608261,-0.065140001475811,0.0159014891833066,0.0097174206748604,walking,2026-03-04_14-00-37
1772632837370840600,0.331840576171875,-0.2311916321787983,-0.0168608261689543,0.0929278745442628,-0.061513889580965,0.0142592508345842,0.0085325613617897,walking,2026-03-04_14-00-37
1772632837380789500,0.34178955078125,-0.1914574415531009,-0.0024070611417293,-0.0224836344867944,-0.0495128892362117,0.0076570091769099,0.0111435260623693,walking,2026-03-04_14-00-37
1772632837390738400,0.351738525390625,-0.1854396425683051,0.0332166254252195,-0.1161158579081296,-0.0319381766021251,0.0017808214761316,0.0211247727274894,walking,2026-03-04_14-00-37
1772632837400687400,0.361687255859375,-0.1949613580208271,0.0478191512733697,-0.1916407622307538,-0.025163359940052,-0.0080555640161037,0.0288066603243351,walking,2026-03-04_14-00-37
1772632837410636500,0.371636474609375,-0.216297649103403,0.0041546354614198,-0.2186883436322212,-0.0289207175374031,-0.0016155189368873,0.0370040424168109,walking,2026-03-04_14-00-37
1772632837420585500,0.38158544921875,-0.2451268532246351,-0.0230323544107377,-0.2495247959226369,-0.0335114747285842,0.0255055800080299,0.0417697690427303,walking,2026-03-04_14-00-37
1772632837430534700,0.39153466796875,-0.2697223652988672,-0.0323380890250206,-0.2681044087082147,-0.0369722805917263,0.0564904473721981,0.0496732331812381,walking,2026-03-04_14-00-37
1772632837440483600,0.401483642578125,-0.2514287298478186,-0.0390874171547591,-0.2575602183401584,-0.0324228033423423,0.0715008229017257,0.0647091716527938,walking,2026-03-04_14-00-37
1772632837450433500,0.41143359375,-0.2271392149828374,-0.0240028068780899,-0.1945358991503715,-0.0182115938514471,0.0700223594903945,0.0762573331594467,walking,2026-03-04_14-00-37
1772632837460382500,0.421382568359375,-0.2710559519901871,-0.0480243184566497,-0.128157593357563,-0.0061938134022057,0.0731483846902847,0.0859086290001869,walking,2026-03-04_14-00-37
1772632837470331400,0.431331298828125,-0.3215403769500553,-0.1035547747597098,-0.0604623597472906,0.0013093217276036,0.0401432029902935,0.0796773135662078,walking,2026-03-04_14-00-37
1772632837480280300,0.4412802734375,-0.4149824115615337,-0.1397397484712302,-0.034405542948842,0.0143383052200078,0.0349843949079513,0.0684217289090156,walking,2026-03-04_14-00-37
1772632837490229500,0.4512294921875,-0.4753595041781663,-0.1822124241501092,-0.0333703546822071,0.0256895069032907,0.0330381318926811,0.049036331474781,walking,2026-03-04_14-00-37
1772632837500178700,0.4611787109375,-0.5193327206131071,-0.1661143990471959,0.0118897597581148,0.0253805797547101,0.0329182893037796,0.0337196923792362,walking,2026-03-04_14-00-37
1772632837510127600,0.471127685546875,-0.5129759719975292,-0.173989224075526,0.0805026927351951,0.0196663551032543,0.0377840511500835,0.0273140519857406,walking,2026-03-04_14-00-37
1772632837520076500,0.48107666015625,-0.4505824249919504,-0.1804854542270302,0.160616093891859,0.0118806045502424,0.0324175134301185,0.0266522578895092,walking,2026-03-04_14-00-37
1772632837530025500,0.491025390625,-0.4645517675030976,-0.1672404804676771,0.1880336776494979,0.0079804044216871,0.0318015255033969,0.0201986208558082,walking,2026-03-04_14-00-37
1772632837539975400,0.500975341796875,-0.4747236174274236,-0.1590535207502544,0.203257550266385,0.0081343352794647,0.0193997174501419,0.010069552809,walking,2026-03-04_14-00-37
1772632837549924400,0.51092431640625,-0.4743959929082542,-0.1383914026021957,0.240486918464303,0.0020972159691154,0.0012412199284881,0.0002717832103371,walking,2026-03-04_14-00-37
1772632837559873500,0.52087353515625,-0.4714442304305732,-0.1583097166456282,0.2323071191400289,-0.0014503807760775,-0.0127694038674235,-0.0114285489544272,walking,2026-03-04_14-00-37
1772632837569822500,0.530822509765625,-0.5036134656947105,-0.1550298181921243,0.1546393575698137,-0.0044030766002833,-0.0068197576329112,-0.0286068934947252,walking,2026-03-04_14-00-37
1772632837579771400,0.540771484375,-0.5204396589417011,-0.1489174727916717,0.0627156916320323,-0.007998876273632,0.0114364773035049,-0.044567484408617,walking,2026-03-04_14-00-37
1772632837589720600,0.550720458984375,-0.4816656185850501,-0.113265436913073,0.0421416901588439,-0.0212597250938415,0.029277516528964,-0.0447742380201816,walking,2026-03-04_14-00-37
1772632837599669500,0.56066943359375,-0.4296963618949055,-0.0978675229035317,0.0440051459431648,-0.0359571762382984,0.0401179157197475,-0.0367205701768398,walking,2026-03-04_14-00-37
1772632837609618400,0.570618408203125,-0.4205531243659555,-0.0621188947826623,-0.0056260231882333,-0.0369513556361198,0.0675055608153343,-0.0245172847062349,walking,2026-03-04_14-00-37
1772632837619567400,0.5805673828125,-0.4090254028532654,-0.0661364598609507,-0.0267839620292186,-0.0288010146468877,0.0811966061592102,-0.0150295086205005,walking,2026-03-04_14-00-37
1772632837629516500,0.5905166015625,-0.3641131520025432,-0.1105335277311503,0.0104348847746849,-0.0074414764530956,0.0720098093152046,-0.0103804860264062,walking,2026-03-04_14-00-37
1772632837639466500,0.600466552734375,-0.3459369323860853,-0.1515595117330551,0.0677899261564016,0.017385309562087,0.0352344885468483,-0.0143837481737136,walking,2026-03-04_14-00-37
1772632837649415400,0.61041552734375,-0.3451616371646523,-0.15327537574023,0.1907908674031496,0.033341147005558,-0.0272391680628061,-0.0226256698369979,walking,2026-03-04_14-00-37
1772632837659364400,0.6203642578125,-0.3560908813275397,-0.1954569595180451,0.2864899602264166,0.0329499319195747,-0.0840009823441505,-0.0354842096567153,walking,2026-03-04_14-00-37
1772632837669313500,0.6303134765625,-0.4423638280272483,-0.2308703643351793,0.3216653185039758,0.0127744823694229,-0.1123866289854049,-0.0596467517316341,walking,2026-03-04_14-00-37
1772632837679262500,0.640262451171875,-0.5111452494390308,-0.2554356274016201,0.2930430351316929,-0.0195530969649553,-0.1142782717943191,-0.0869612023234367,walking,2026-03-04_14-00-37
1772632837689211600,0.650211669921875,-0.5419708150092512,-0.2241431019067764,0.1832896979928016,-0.0587455555796623,-0.1062258034944534,-0.1113682836294174,walking,2026-03-04_14-00-37
1772632837699160600,0.66016064453125,-0.4594518140155821,-0.1388246794529259,-0.0315033917665481,-0.0748808532953262,-0.0780751258134841,-0.1153129637241363,walking,2026-03-04_14-00-37
1772632837709109500,0.670109619140625,-0.33222748292014,0.0009830196879804,-0.2835767031282186,-0.0595084354281425,-0.0261435639113187,-0.0934880450367927,walking,2026-03-04_14-00-37
1772632837719058400,0.680058349609375,-0.2058815420944243,0.1327571961075067,-0.4574140976428985,-0.0192153360694646,0.0295825488865375,-0.0502508245408535,walking,2026-03-04_14-00-37
1772632837729007400,0.69000732421875,-0.1249905806940048,0.1720657086670398,-0.4493751680940389,0.0284033380448818,0.0676699355244636,-0.0136584434658288,walking,2026-03-04_14-00-37
1772632837738957300,0.699957275390625,-0.1012369262713938,0.1066888350017368,-0.2170095967650413,0.0637674555182457,0.0741142481565475,0.0054534655064344,walking,2026-03-04_14-00-37
1772632837748906500,0.709906494140625,-0.1176242897097021,-0.0187255971275269,0.1551952378869056,0.0693030953407287,0.0384345278143882,0.0023932384792715,walking,2026-03-04_14-00-37
1772632837758855700,0.719855712890625,-0.187942199973762,-0.1280249068886041,0.4997317288905382,0.0402235053479671,-0.0258451253175735,-0.0198819730430841,walking,2026-03-04_14-00-37
1772632837768804600,0.7298046875,-0.292268835888803,-0.2143396469034254,0.7250111413508653,-0.0151193095371127,-0.0797384083271026,-0.0575135983526706,walking,2026-03-04_14-00-37
1772632837778753500,0.73975341796875,-0.3865068431835621,-0.2450923664331436,0.7584352720469236,-0.0798937827348709,-0.1062997058033943,-0.1055807247757911,walking,2026-03-04_14-00-37
1772632837788702500,0.749702392578125,-0.3494618185766041,-0.1867864540673792,0.6227583891004324,-0.1273227930068969,-0.0993613600730896,-0.1334557831287384,walking,2026-03-04_14-00-37
1772632837798650400,0.759650390625,-0.1479947319235652,-0.0307896905392408,0.3486164537936448,-0.1375682502985,-0.0573217570781707,-0.1315910369157791,walking,2026-03-04_14-00-37
1772632837808599600,0.769599609375,0.0096152389548718,0.1319482178121805,0.0576776974648237,-0.1085555776953697,0.0171503014862537,-0.101937435567379,walking,2026-03-04_14-00-37
1772632837818548500,0.779548583984375,0.0578591915115714,0.2222350763283669,-0.0635211627960205,-0.0618834160268306,0.0973886847496032,-0.074186235666275,walking,2026-03-04_14-00-37
1772632837828497400,0.789497314453125,0.0531884962867945,0.2483855627596378,0.0852291367352008,-0.0229707546532154,0.1317680478096008,-0.0652576461434364,walking,2026-03-04_14-00-37
1772632837838447400,0.799447265625,0.0052679304655641,0.1962748517721891,0.3710281920880079,-0.0043185078538954,0.130989596247673,-0.0735009312629699,walking,2026-03-04_14-00-37
1772632837848396300,0.809396240234375,-0.0239129366375505,0.0854530086189508,0.6822106950223445,-0.0074934079311788,0.1143229156732559,-0.0958125591278076,walking,2026-03-04_14-00-37
1772632837858345200,0.81934521484375,0.0311740136817097,0.009630874915421,0.9607669396400452,-0.0352941453456878,0.0861842185258865,-0.1245826855301857,walking,2026-03-04_14-00-37
1772632837868294400,0.82929443359375,0.1554092459637671,-0.0644930765680968,1.1338421176105735,-0.074822723865509,0.0564944557845592,-0.1485363990068435,walking,2026-03-04_14-00-37
1772632837878243300,0.839243408203125,0.3175770993422717,-0.1227137948684394,1.176492341813445,-0.1201241537928581,0.0173598360270261,-0.1609222292900085,walking,2026-03-04_14-00-37
1772632837888192500,0.849192626953125,0.4977306182011962,-0.1560471785411238,1.1352151595294475,-0.1732877343893051,-0.0460477955639362,-0.1610040813684463,walking,2026-03-04_14-00-37
1772632837898141400,0.859141357421875,0.6062477646086365,-0.2158490285530686,0.9824819278419016,-0.2266369760036468,-0.1092419475317001,-0.1635940074920654,walking,2026-03-04_14-00-37
1772632837908090400,0.86909033203125,0.5445097589023411,-0.206368375763297,0.6658335607171059,-0.262123167514801,-0.1287124752998352,-0.1727658659219741,walking,2026-03-04_14-00-37
1772632837918039300,0.879039306640625,0.40580183769688,-0.1372862178392708,0.2817997565835714,-0.2872386574745178,-0.1216495037078857,-0.1795500069856643,walking,2026-03-04_14-00-37
1772632837927988200,0.88898828125,0.2702318491909652,-0.0774544110804796,-0.0491477695286273,-0.3020243644714355,-0.1043966487050056,-0.1897108256816864,walking,2026-03-04_14-00-37
1772632837937938400,0.8989384765625,0.1509874839987605,-0.102839173836261,-0.382055782058835,-0.3076497614383697,-0.075749821960926,-0.2140630334615707,walking,2026-03-04_14-00-37
1772632837947887400,0.908887451171875,0.0979668185595423,-0.0735531658582389,-0.6271434723168611,-0.3075451254844665,-0.0372770093381404,-0.2282436937093734,walking,2026-03-04_14-00-37
1772632837957836300,0.918836181640625,0.1229831133291125,-0.0493636042363941,-0.7375023741334676,-0.3095555305480957,-0.0102504529058933,-0.2239211201667785,walking,2026-03-04_14-00-37
1772632837967785500,0.928785400390625,0.2299193472206592,-0.0617575141243636,-0.8232020509898662,-0.3056183457374573,0.025837056338787,-0.2049532979726791,walking,2026-03-04_14-00-37
1772632837977734400,0.938734375,0.3907709303688257,-0.0495180641457438,-0.8803595239728689,-0.2927558124065399,0.0145263448357582,-0.1499984413385391,walking,2026-03-04_14-00-37
1772632837987683300,0.948683349609375,0.471828188246861,-0.0735505355097353,-0.943234205558896,-0.2543883621692657,0.0089071290567517,-0.0897904634475708,walking,2026-03-04_14-00-37
1772632837997632300,0.95863232421875,0.4154118159547448,-0.0928755598351359,-0.9477426228940486,-0.2077990174293518,-0.0280961636453866,-0.0478523336350917,walking,2026-03-04_14-00-37
1772632838007581400,0.96858154296875,0.3181577487744391,-0.2344260109901428,-0.8659896378368139,-0.1637151092290878,-0.0990994498133659,-0.0127868559211492,walking,2026-03-04_14-00-37
1772632838017530400,0.9785302734375,0.2444610097270458,-0.3734017893515527,-0.8362620235711336,-0.1075501143932342,-0.0958956703543663,0.016646135598421,walking,2026-03-04_14-00-37
1772632838027480300,0.988480224609375,0.0146540368396788,-0.4422976309232413,-0.879846313753724,-0.0585138127207756,-0.047867827117443,0.0333287268877029,walking,2026-03-04_14-00-37
1772632838037429200,0.99842919921875,-0.1232175066068768,-0.5940665476232767,-0.7815700639188289,-0.0176713075488805,0.0266154650598764,0.0308029819279909,walking,2026-03-04_14-00-37
1772632838047378200,1.008378173828125,-0.1992111974850297,-0.776065840479359,-0.6024328094303607,0.0161093901842832,0.1098131164908409,0.0082139708101749,walking,2026-03-04_14-00-37
1772632838057327400,1.018327392578125,-0.1785703413207083,-0.8848148228812962,-0.2472188570678234,0.0328998230397701,0.1414440125226974,-0.0198642686009407,walking,2026-03-04_14-00-37
1772632838067276500,1.028276611328125,-0.0515480356033891,-0.9390203872561456,0.1958323687016963,0.031961265951395,0.1190813109278678,-0.0343699902296066,walking,2026-03-04_14-00-37
1772632838077225500,1.0382255859375,0.0947033597841858,-0.9527223840679973,0.5284451976776122,0.0237219780683517,0.0556591972708702,-0.0402936600148677,walking,2026-03-04_14-00-37
1772632838087174400,1.04817431640625,0.2282974451072514,-0.9214548468839376,0.6518529661595821,0.0293360017240047,-0.01018738001585,-0.0440409742295742,walking,2026-03-04_14-00-37
1772632838097123300,1.058123291015625,0.3407593105524778,-0.8419075551774352,0.6307803675144911,0.0566901266574859,-0.0767203345894813,-0.0463113188743591,walking,2026-03-04_14-00-37
1772632838107072300,1.068072265625,0.4378041919615119,-0.785930304954946,0.5949813243806362,0.0813271701335907,-0.1100010797381401,-0.0504573583602905,walking,2026-03-04_14-00-37
1772632838117021400,1.078021484375,0.4566297423321753,-0.7157838788002729,0.6413555375427007,0.086628720164299,-0.1346441209316253,-0.0508182160556316,walking,2026-03-04_14-00-37
1772632838126970400,1.087970458984375,0.418587523381412,-0.6685447193719446,0.7027496251821518,0.0552180334925651,-0.1212915629148483,-0.0573320910334587,walking,2026-03-04_14-00-37
1772632838136920600,1.097920654296875,0.3178928142279386,-0.6745654409661889,0.7777087123155594,-0.0022207605652511,-0.1036097705364227,-0.0752522349357605,walking,2026-03-04_14-00-37
1772632838146869500,1.107869384765625,0.2338115323536098,-0.6807983440063894,0.7942401603996754,-0.070831686258316,-0.09722301363945,-0.1071817576885223,walking,2026-03-04_14-00-37
1772632838156818400,1.117818359375,0.2197462551873177,-0.668502926056832,0.650012306728959,-0.1281349211931228,-0.0797750502824783,-0.1402243971824646,walking,2026-03-04_14-00-37
1772632838166767400,1.127767333984375,0.2139879108563065,-0.6223561649750918,0.3895125278055668,-0.1556106209754943,-0.046610876917839,-0.1665933430194854,walking,2026-03-04_14-00-37
1772632838176716300,1.13771630859375,0.2281663660734891,-0.5272619792424142,0.1164390985131263,-0.1560266017913818,-0.0026761787012219,-0.1785538643598556,walking,2026-03-04_14-00-37
1772632838186665200,1.147665283203125,0.3273074160441756,-0.4976195590421557,-0.1085784481406211,-0.1265300512313842,0.0464392155408859,-0.1743402630090713,walking,2026-03-04_14-00-37
1772632838196614100,1.1576142578125,0.4270754388067871,-0.5005841810014099,-0.2223801838874816,-0.0779619812965393,0.0817085206508636,-0.1569620668888092,walking,2026-03-04_14-00-37
1772632838206563600,1.1675634765625,0.5117384660918265,-0.5321319964315742,-0.1980553054481744,-0.0278929565101861,0.0814621672034263,-0.137716606259346,walking,2026-03-04_14-00-37
1772632838216512500,1.177512451171875,0.543700123019889,-0.6205765150167047,-0.0890320361495018,0.0181006342172622,0.0546404086053371,-0.1216390952467918,walking,2026-03-04_14-00-37
1772632838226461400,1.18746142578125,0.4783917845461517,-0.7222244332417845,0.0632709874272346,0.0363286137580871,0.0170973818749189,-0.116821065545082,walking,2026-03-04_14-00-37
1772632838236411400,1.197411376953125,0.3476366489760577,-0.793910124727711,0.2148170551568269,0.0317407883703708,-0.0325556583702564,-0.1301001161336898,walking,2026-03-04_14-00-37
1772632838246360300,1.2073603515625,0.2348223168313503,-0.8647972131818532,0.2892079870134592,0.0099972896277904,-0.0638623610138893,-0.1503597646951675,walking,2026-03-04_14-00-37
1772632838256309200,1.217309326171875,0.1194667757712304,-0.8934104364648461,0.2510463064014911,-0.0131951142102479,-0.0688448697328567,-0.1726086139678955,walking,2026-03-04_14-00-37
1772632838266258400,1.227258544921875,0.0635189708389341,-0.8709939489301294,0.1202332300990819,-0.0219357553869485,-0.0500821880996227,-0.19553904235363,walking,2026-03-04_14-00-37
1772632838276207400,1.237207275390625,0.1057590798709541,-0.803478967257589,-0.0087882866114377,-0.0126453191041946,-0.0366574600338935,-0.2014432698488235,walking,2026-03-04_14-00-37
1772632838286156300,1.24715625,0.2491295129947364,-0.7030261040359735,-0.1429348912507295,0.0244926065206527,-0.031961940228939,-0.1814560443162918,walking,2026-03-04_14-00-37
1772632838296105500,1.25710546875,0.4113922050498426,-0.6092485538598149,-0.2056201877444982,0.0798935443162918,-0.0467070639133453,-0.1433965414762497,walking,2026-03-04_14-00-37
1772632838306054400,1.267054443359375,0.4709837733119726,-0.5671886237002909,-0.1833200931310653,0.134003147482872,-0.0805034562945365,-0.1053870916366577,walking,2026-03-04_14-00-37
1772632838316003300,1.27700341796875,0.4907086106099188,-0.6149123517751693,-0.0625309827148914,0.1749812066555023,-0.1214799135923385,-0.0811347514390945,walking,2026-03-04_14-00-37
1772632838325952300,1.2869521484375,0.4120049301207065,-0.737937769876048,0.0973123732388019,0.1792185753583908,-0.1584308445453643,-0.0788898169994354,walking,2026-03-04_14-00-37
1772632838335902500,1.29690234375,0.2696501037802547,-0.8867159072622657,0.2474555884331464,0.1510753631591797,-0.173536017537117,-0.0921126827597618,walking,2026-03-04_14-00-37
1772632838345851400,1.306851318359375,0.1878943422440439,-0.9958844302505254,0.3220312292069197,0.1060902178287506,-0.174815371632576,-0.1141995266079902,walking,2026-03-04_14-00-37
1772632838355800300,1.31680029296875,0.1232358459811657,-1.052905709633231,0.3110825496912002,0.0569761991500854,-0.1617038249969482,-0.1447856724262237,walking,2026-03-04_14-00-37
1772632838365749200,1.326749267578125,0.1885683690480887,-1.090134054917842,0.1928150667071342,0.0328035838901996,-0.12801194190979,-0.1693973541259765,walking,2026-03-04_14-00-37
1772632838375698400,1.336698486328125,0.3646605567522347,-1.062799181007594,0.043875966605544,0.03727662935853,-0.101980872452259,-0.1754198223352432,walking,2026-03-04_14-00-37
1772632838385647400,1.3466474609375,0.5578321087468415,-0.9727245039373636,-0.0910433759719133,0.0673979669809341,-0.0862485691905021,-0.1590358167886734,walking,2026-03-04_14-00-37
1772632838395596300,1.35659619140625,0.7417530903805046,-0.9379919209912418,-0.1894055505245923,0.1195828765630722,-0.0580544807016849,-0.1344945281744003,walking,2026-03-04_14-00-37
1772632838405545500,1.36654541015625,0.8762431746952235,-0.9480847143299878,-0.1794961509287357,0.1697627156972885,-0.0530837588012218,-0.1105336546897888,walking,2026-03-04_14-00-37
1772632838415494400,1.376494384765625,0.9631062693078072,-0.9853194893553852,-0.016348492732644,0.2032735347747802,-0.0863508954644203,-0.0944657400250434,walking,2026-03-04_14-00-37
1772632838425443300,1.386443359375,1.043286232894659,-1.0093125054918228,0.1523152985364198,0.2140359580516815,-0.1416868418455124,-0.0862644910812377,walking,2026-03-04_14-00-37
1772632838435393300,1.396393310546875,1.0756810936082153,-1.0407523305028676,0.2430073768526315,0.2026347070932388,-0.1828728914260864,-0.0795852839946746,walking,2026-03-04_14-00-37
1772632838445342200,1.40634228515625,1.042417779497057,-1.0207824324026704,0.2668260593354702,0.1722462475299835,-0.2185107171535492,-0.0740706473588943,walking,2026-03-04_14-00-37
1772632838455291400,1.41629150390625,0.923159751105681,-0.950862946871668,0.1889449472755193,0.1266372203826904,-0.2406903207302093,-0.0776110514998436,walking,2026-03-04_14-00-37
1772632838465240600,1.426240478515625,0.7772665215060114,-0.8276368185669183,-0.0215630125105381,0.0852177888154983,-0.2204955369234085,-0.0845032259821891,walking,2026-03-04_14-00-37
1772632838475189500,1.436189453125,0.6370554291959851,-0.6761383893713354,-0.2932633998841047,0.0612019337713718,-0.1668400317430496,-0.0854659602046012,walking,2026-03-04_14-00-37
1772632838485138400,1.446138427734375,0.5760213339753448,-0.464155096335709,-0.5711591347664594,0.0592204704880714,-0.0971017256379127,-0.0697432309389114,walking,2026-03-04_14-00-37
1772632838495087400,1.45608740234375,0.6202694948941468,-0.2805975411869585,-0.7563596348166466,0.0786224007606506,-0.0395598709583282,-0.0392082296311855,walking,2026-03-04_14-00-37
1772632838505036300,1.466036376953125,0.6641505760662257,-0.1521903569824993,-0.782638569933176,0.1068868264555931,-0.016476035118103,-0.0065900599583983,walking,2026-03-04_14-00-37
1772632838514985200,1.475985107421875,0.7024785531558096,-0.0577735590547323,-0.6948936509847641,0.1357054263353347,-0.0250985529273748,0.0265457890927791,walking,2026-03-04_14-00-37
1772632838524934400,1.485934326171875,0.6815159907564521,-0.00102101361081,-0.5022293909251689,0.1435933709144592,-0.0808643922209739,0.0554720759391784,walking,2026-03-04_14-00-37
1772632838534884400,1.49588427734375,0.5606383983392268,0.0248532862275838,-0.2571779410243034,0.1100519225001335,-0.181459441781044,0.0638879314064979,walking,2026-03-04_14-00-37
1772632838544833500,1.50583349609375,0.3556907395614311,0.0309447349704802,-0.1480143864721059,0.0491988398134708,-0.2684839963912964,0.0475112944841384,walking,2026-03-04_14-00-37
1772632838554782500,1.515782470703125,0.0836714224318042,0.1018128995284438,-0.2468365797519683,-0.0221874564886093,-0.2924761474132538,0.0275809932500123,walking,2026-03-04_14-00-37
1772632838564731400,1.5257314453125,-0.1652978584999218,0.2067790023908019,-0.569641715940833,-0.0794509872794151,-0.2301923334598541,0.0077369958162307,walking,2026-03-04_14-00-37
1772632838574680300,1.535680419921875,-0.3075368399083614,0.3231011965259909,-0.9501058448940516,-0.1090288534760475,-0.1017480790615081,-0.0043460326269268,walking,2026-03-04_14-00-37
1772632838584629200,1.545629150390625,-0.2690053761359304,0.4324373311661184,-1.2202800456136464,-0.0904479324817657,0.0436438582837581,0.0084343673661351,walking,2026-03-04_14-00-37
1772632838594578200,1.555578125,-0.0874182442773133,0.5171732775568961,-1.3207201954841612,-0.030800849199295,0.1523288041353225,0.0406921729445457,walking,2026-03-04_14-00-37
1772632838604527400,1.56552734375,0.093213157759048,0.5727475730016828,-1.1770347781270742,0.0520962327718734,0.1963213235139846,0.0799619853496551,walking,2026-03-04_14-00-37
1772632838614476500,1.5754765625,0.217756688805297,0.525379672627151,-0.8057663475424051,0.1282445192337036,0.1731022894382476,0.11923348903656,walking,2026-03-04_14-00-37
1772632838624426200,1.58542626953125,0.2370228590829297,0.4010423682101071,-0.3806324712574482,0.1832021623849868,0.1157195940613746,0.1418019831180572,walking,2026-03-04_14-00-37
1772632838634375400,1.59537548828125,0.1332508979085832,0.2530469786994159,-0.0056570028483867,0.2115736305713653,0.0456683412194252,0.138759583234787,walking,2026-03-04_14-00-37
1772632838644324400,1.605324462890625,-0.0067551733486354,0.172044958139956,0.3174421478509903,0.2071285396814346,-0.0351314358413219,0.1212767288088798,walking,2026-03-04_14-00-37
1772632838654273300,1.615273193359375,-0.1549474736709147,0.090495678961277,0.46268940769732,0.1849470734596252,-0.0868207290768623,0.094899445772171,walking,2026-03-04_14-00-37
1772632838664222500,1.625222412109375,-0.3281965469036251,0.0802681533269584,0.4249474138021469,0.1590929925441742,-0.0889154598116874,0.0643472000956535,walking,2026-03-04_14-00-37
1772632838674171400,1.63517138671875,-0.4645374467168003,0.1551633814439177,0.3211789962917566,0.1384827941656112,-0.0641262233257293,0.0362971946597099,walking,2026-03-04_14-00-37
1772632838684120300,1.645120361328125,-0.5462105714708566,0.183812114431709,0.2126543241649865,0.1270039528608322,-0.0133656300604343,0.0119955465197563,walking,2026-03-04_14-00-37
1772632838694069500,1.655069580078125,-0.639348654699698,0.2423557810761034,0.1111252100139856,0.1260409653186798,0.0443312227725982,-0.0053496211767196,walking,2026-03-04_14-00-37
1772632838704018400,1.665018310546875,-0.7175721504565328,0.3445258234791457,0.0925800840198993,0.1329527199268341,0.1051540449261665,-0.0246809180825948,walking,2026-03-04_14-00-37
1772632838713968400,1.674968505859375,-0.7579355058312416,0.3980805957950651,0.1922206079453229,0.1318107545375824,0.1334573179483413,-0.0462826155126094,walking,2026-03-04_14-00-37
1772632838723917600,1.68491748046875,-0.7591001656964421,0.4515000512935221,0.3674181848973035,0.123630367219448,0.1297443658113479,-0.0650941282510757,walking,2026-03-04_14-00-37
1772632838733866500,1.694866455078125,-0.7295349754508584,0.5079354936122894,0.4862327803701162,0.1140275374054908,0.1109874546527862,-0.0817205086350441,walking,2026-03-04_14-00-37
1772632838743815400,1.7048154296875,-0.736432991336286,0.6104371060572564,0.5839531498879194,0.0987055078148841,0.0789652094244957,-0.0900354534387588,walking,2026-03-04_14-00-37
1772632838753764400,1.714764404296875,-0.7331810038030148,0.7083272791840136,0.6307534795075654,0.0853747949004173,0.0466051399707794,-0.0925414860248565,walking,2026-03-04_14-00-37
1772632838763713300,1.72471337890625,-0.736259680595994,0.7839780018433928,0.6547182924628258,0.0701524019241333,0.0312157906591892,-0.0941911786794662,walking,2026-03-04_14-00-37
1772632838773662200,1.734662109375,-0.728618152866885,0.8597665255382656,0.6378653573393821,0.0544264391064643,0.0165907740592956,-0.0999728962779045,walking,2026-03-04_14-00-37
1772632838783611400,1.744611328125,-0.7049449432693421,0.9015415743418036,0.5649988585710525,0.0406545102596282,0.025335393846035,-0.0943525433540344,walking,2026-03-04_14-00-37
1772632838793562400,1.754562255859375,-0.6983679760318249,0.9698417881079018,0.542424038669467,0.0207726787775754,0.0420560538768768,-0.0874091461300849,walking,2026-03-04_14-00-37
1772632838803512300,1.76451220703125,-0.7141254440687597,0.9937683148793875,0.5968418575555086,-0.0124126216396689,0.0502767525613307,-0.0865236148238182,walking,2026-03-04_14-00-37
1772632838813461200,1.774461181640625,-0.7489333572734147,0.9326980523668228,0.6572334901541471,-0.0520042404532432,0.0472934804856777,-0.1021928563714027,walking,2026-03-04_14-00-37
1772632838823410200,1.78441015625,-0.7610782608363776,0.8838526267856359,0.6120300743371248,-0.0863995179533958,0.0393205843865871,-0.1249668896198272,walking,2026-03-04_14-00-37
1772632838833359400,1.794359375,-0.7459390708282589,0.8985727876640855,0.5241922164082526,-0.1050898507237434,0.0412897281348705,-0.1383258402347564,walking,2026-03-04_14-00-37
1772632838843308300,1.804308349609375,-0.6962019571043551,0.98001860646829,0.4162701863497495,-0.1105604469776153,0.0475861951708793,-0.1380320340394973,walking,2026-03-04_14-00-37
1772632838853257500,1.814257568359375,-0.6162205117642879,1.0313538030385971,0.3623194004535675,-0.1164859756827354,0.0308463647961616,-0.1226480230689048,walking,2026-03-04_14-00-37
1772632838863206400,1.824206298828125,-0.5087046513538808,1.0354527627900243,0.368332961654663,-0.1268167793750763,0.0021308423019945,-0.0978286117315292,walking,2026-03-04_14-00-37
1772632838873155300,1.8341552734375,-0.4379422852579504,1.008867538203299,0.3772679632604122,-0.1448362618684768,-0.0312287118285894,-0.0635942071676254,walking,2026-03-04_14-00-37
1772632838883104300,1.844104248046875,-0.4737975520910695,0.9615585284091532,0.3604249650090932,-0.1798669099807739,-0.0511438213288784,-0.0232975166290998,walking,2026-03-04_14-00-37
1772632838893054200,1.85405419921875,-0.5187179131830111,0.8125367184601724,0.3083896573454141,-0.2302131801843643,-0.0635267198085784,0.0089616198092699,walking,2026-03-04_14-00-37
1772632838903003100,1.864003173828125,-0.5623180219892412,0.5698109350278974,0.2171650795876979,-0.2742522954940796,-0.0770118236541748,0.0356169193983078,walking,2026-03-04_14-00-37
1772632838912952300,1.873952392578125,-0.6095079354483633,0.3509694466605782,0.0127922615557909,-0.3047915697097778,-0.0842170119285583,0.0482629388570785,walking,2026-03-04_14-00-37
1772632838922901500,1.883901611328125,-0.6700092389665544,0.1714709576442837,-0.1880564740031957,-0.3168376386165619,-0.0829435214400291,0.0605145022273063,walking,2026-03-04_14-00-37
1772632838932850400,1.893850341796875,-0.7033762326478957,0.0164180508375167,-0.3873924669116735,-0.304314911365509,-0.0727753043174743,0.0696129277348518,walking,2026-03-04_14-00-37
1772632838942799400,1.90379931640625,-0.6532097875960171,-0.1252162792086601,-0.5639134014219045,-0.2671325206756592,-0.0556187778711319,0.0814761668443679,walking,2026-03-04_14-00-37
1772632838952748300,1.913748291015625,-0.5632845654664561,-0.2258772322230041,-0.6547399197727441,-0.2127047032117843,-0.0419812612235546,0.1031465753912925,walking,2026-03-04_14-00-37
1772632838962697200,1.923697265625,-0.4692758003503084,-0.3364114906065166,-0.6037964989989996,-0.1586184799671173,-0.0418430864810943,0.1325708329677581,walking,2026-03-04_14-00-37
1772632838972646100,1.933646240234375,-0.3919766528967767,-0.467490816629678,-0.4308130909651517,-0.1135759055614471,-0.0581213943660259,0.1540886461734771,walking,2026-03-04_14-00-37
1772632838982596400,1.943596435546875,-0.3836179168090224,-0.5713337606810033,-0.24480069001019,-0.0793180540204048,-0.080595351755619,0.1685972958803177,walking,2026-03-04_14-00-37
1772632838992545300,1.953545166015625,-0.4102516567125916,-0.692701547767967,-0.0340618440777063,-0.0615105628967285,-0.0925814434885978,0.1707222312688827,walking,2026-03-04_14-00-37
1772632839002494200,1.963494140625,-0.4659398608606308,-0.7746784047089517,0.1562257499784231,-0.063864842057228,-0.0922283455729484,0.1644797474145889,walking,2026-03-04_14-00-37
1772632839012443400,1.973443359375,-0.5078416047837585,-0.8292983220383524,0.3305307620048522,-0.0749752819538116,-0.0700545981526374,0.146162524819374,walking,2026-03-04_14-00-37
1772632839022392300,1.983392333984375,-0.5308861245563253,-0.8610650409162044,0.4048626571506261,-0.086522601544857,-0.0334392301738262,0.1225047931075096,walking,2026-03-04_14-00-37
1772632839032341200,1.99334130859375,-0.5604004613975062,-0.8261072709120809,0.5342810642242432,-0.1017015576362609,-0.0150554273277521,0.1008937731385231,walking,2026-03-04_14-00-37
1772632839042290200,2.003290283203125,-0.5564527466850355,-0.765767806892097,0.6626940936475992,-0.1187711954116821,-0.0324144326150417,0.0773121044039726,walking,2026-03-04_14-00-37
1772632839052239400,2.0132392578125,-0.5091024915650486,-0.7152145544797182,0.7161620644629001,-0.1306137442588806,-0.0701524838805198,0.052042968571186,walking,2026-03-04_14-00-37
1772632839062188300,2.023188232421875,-0.4466914454353973,-0.5864603104032575,0.6190279704004525,-0.1323602348566055,-0.0936975702643394,0.0444883964955806,walking,2026-03-04_14-00-37
1772632839072138200,2.03313818359375,-0.4701932074561715,-0.417495490361005,0.5101104995638132,-0.1318728774785995,-0.0926767811179161,0.0517380535602569,walking,2026-03-04_14-00-37
1772632839082087200,2.043087158203125,-0.483114977143146,-0.2863914682880044,0.424180521082878,-0.1349828243255615,-0.0820187628269195,0.0600833632051944,walking,2026-03-04_14-00-37
1772632839092036400,2.053036376953125,-0.4961372845951467,-0.2118205036893486,0.405189404886961,-0.1533788740634918,-0.0718835666775703,0.0654991716146469,walking,2026-03-04_14-00-37
1772632839101985300,2.0629853515625,-0.5061569761650636,-0.1858933776851743,0.4368880269646644,-0.184976577758789,-0.0715677663683891,0.0753006339073181,walking,2026-03-04_14-00-37
1772632839111934500,2.0729345703125,-0.5001341722115874,-0.1718395717609673,0.3996463838070631,-0.2173867225646972,-0.0547160878777504,0.0939446240663528,walking,2026-03-04_14-00-37
1772632839121883400,2.08288330078125,-0.5037754147907719,-0.1541049584321677,0.252713947352767,-0.2377102673053741,-0.0204893518239259,0.1235608831048011,walking,2026-03-04_14-00-37
1772632839131832300,2.092832275390625,-0.5108784882616252,-0.1896666126135736,0.1558867272824048,-0.2420682609081268,0.0002239162568002,0.1509757190942764,walking,2026-03-04_14-00-37
1772632839141781200,2.10278125,-0.4912495490862056,-0.2727380598582327,0.0178039522379636,-0.218556523323059,0.0251978226006031,0.1753735095262527,walking,2026-03-04_14-00-37
1772632839151730200,2.112730224609375,-0.4670283136844634,-0.3620508126452565,-0.0517997453421354,-0.1748881340026855,0.042293980717659,0.197393849492073,walking,2026-03-04_14-00-37
1772632839161680100,2.12268017578125,-0.4997196000613272,-0.4377919900670647,-0.0469236637383699,-0.1237839758396148,0.0605519749224185,0.219297245144844,walking,2026-03-04_14-00-37
1772632839171629300,2.13262939453125,-0.4504933219363912,-0.5274397469621152,0.1048819317102432,-0.0818362534046173,0.0679235979914665,0.2331771105527877,walking,2026-03-04_14-00-37
1772632839181578500,2.14257861328125,-0.4202500497661531,-0.6659426471147686,0.349013344156742,-0.0639415085315704,0.0508660748600959,0.2394362986087799,walking,2026-03-04_14-00-37
1772632839191527400,2.15252734375,-0.3820580105485394,-0.8108185163654387,0.588636923789978,-0.066433161497116,0.0315717421472072,0.232605293393135,walking,2026-03-04_14-00-37
1772632839201476400,2.162476318359375,-0.3225445855565368,-0.8852921580694615,0.789759215593338,-0.089979201555252,-0.0069642663002014,0.2257706969976425,walking,2026-03-04_14-00-37
1772632839211425300,2.17242529296875,-0.3080000004407018,-0.8902967614237218,0.8760533512115478,-0.1299109011888504,-0.0514443814754486,0.2218049764633178,walking,2026-03-04_14-00-37
1772632839221374200,2.182374267578125,-0.3177386465795338,-0.9138682642124591,0.7538245633810758,-0.164330393075943,-0.0698937773704528,0.2153468430042266,walking,2026-03-04_14-00-37
1772632839231323100,2.1923232421875,-0.3520493143191561,-0.8987866496104746,0.4497317264467477,-0.1806526333093643,-0.055416565388441,0.2062113881111145,walking,2026-03-04_14-00-37
1772632839241272300,2.202272216796875,-0.3627496085643768,-0.8649002351649105,0.1033826330631971,-0.1802671700716018,-0.0208808928728103,0.203971579670906,walking,2026-03-04_14-00-37
1772632839251222300,2.21222216796875,-0.3753167926600202,-0.8279490263212471,-0.207491242313385,-0.1622263789176941,0.0285955797880888,0.2045795768499374,walking,2026-03-04_14-00-37
1772632839261171500,2.22217138671875,-0.370669551376067,-0.799515908845514,-0.4402759158372878,-0.1332649737596511,0.0743872597813606,0.2138711214065551,walking,2026-03-04_14-00-37
1772632839271120400,2.232120361328125,-0.4373480822244658,-0.785853367261216,-0.568476179292798,-0.100645512342453,0.093869611620903,0.2112322002649307,walking,2026-03-04_14-00-37
1772632839281069300,2.2420693359375,-0.4490678191779181,-0.83338493376486,-0.6310691213279962,-0.0609866306185722,0.0838524997234344,0.2009840160608291,walking,2026-03-04_14-00-37
1772632839291018200,2.252018310546875,-0.416847730509378,-0.8429622518621385,-0.7286842769056558,-0.0223851781338453,0.0582685768604278,0.1977102011442184,walking,2026-03-04_14-00-37
1772632839300967200,2.26196728515625,-0.4147346108129248,-0.8031091840971261,-0.8495026134163141,0.019959133118391,0.0467928685247898,0.2110392153263092,walking,2026-03-04_14-00-37
1772632839310916400,2.271916259765625,-0.4548063993625342,-0.7642478307832032,-1.0093588288515805,0.0660965368151664,0.0563845112919807,0.2285012900829315,walking,2026-03-04_14-00-37
1772632839320865300,2.281865234375,-0.4851406377518549,-0.7526058352410793,-1.1466817254394293,0.1103727519512176,0.0772980228066444,0.2491131275892257,walking,2026-03-04_14-00-37
1772632839330814500,2.291814453125,-0.5416590821789578,-0.7438751971010118,-1.212091478461027,0.1460596323013305,0.1000121235847473,0.2660050392150879,walking,2026-03-04_14-00-37
1772632839340764200,2.30176416015625,-0.5946765692804008,-0.7825104865740984,-1.2411053914994,0.1745195984840393,0.1169496178627014,0.2833981812000274,walking,2026-03-04_14-00-37
1772632839350713300,2.31171337890625,-0.6561434298951179,-0.8201818994510919,-1.291854166483879,0.2139066904783249,0.1450995057821273,0.2939259111881256,walking,2026-03-04_14-00-37
1772632839360662300,2.321662353515625,-0.7034292780093848,-0.8464672643084079,-1.3083774312615395,0.2591611444950104,0.1745779812335968,0.2989427745342254,walking,2026-03-04_14-00-37
1772632839370611500,2.331611572265625,-0.740015160671994,-0.9211497264575212,-1.2153829212218523,0.2971098721027374,0.174504205584526,0.2855105698108673,walking,2026-03-04_14-00-37
1772632839380560400,2.341560302734375,-0.7477088569797575,-0.9531605562895537,-1.034901266387105,0.3221125602722168,0.1323867440223693,0.2526653409004211,walking,2026-03-04_14-00-37
1772632839390509300,2.35150927734375,-0.7194491233095526,-0.9405180054027588,-0.8288631454914808,0.3255980908870697,0.0699569210410118,0.208985224366188,walking,2026-03-04_14-00-37
1772632839400458200,2.361458251953125,-0.695778105669096,-0.8363453179404139,-0.6369879899829626,0.3039960861206054,-0.0007730168290436,0.1487618088722229,walking,2026-03-04_14-00-37
1772632839410407400,2.371407470703125,-0.6581685790471732,-0.6556217441085725,-0.5258358919620514,0.2575137913227081,-0.0731111317873001,0.1010070666670799,walking,2026-03-04_14-00-37
1772632839420356400,2.3813564453125,-0.6103590358523652,-0.3448907112687825,-0.5249567710399627,0.2000901848077774,-0.1396072506904602,0.0619701705873012,walking,2026-03-04_14-00-37
1772632839430306600,2.391306640625,-0.6268815334450453,0.0238251122236251,-0.6242600258350371,0.135859802365303,-0.1888038218021392,0.0219537820667028,walking,2026-03-04_14-00-37
1772632839440255500,2.40125537109375,-0.6758052849594504,0.4061253705628216,-0.8714251068890094,0.0724961459636688,-0.1861456483602523,-0.0064996220171451,walking,2026-03-04_14-00-37
1772632839450204400,2.411204345703125,-0.7282732118867338,0.7239080024145543,-1.2068132457971572,0.0279337354004383,-0.131256029009819,-0.0269356556236743,walking,2026-03-04_14-00-37
1772632839460153300,2.4211533203125,-0.7136117223929613,1.012459425215423,-1.4964520254433151,0.0087972711771726,-0.0602361224591732,-0.0331243127584457,walking,2026-03-04_14-00-37
1772632839470102300,2.431102294921875,-0.5924938184138387,1.2731744543246923,-1.7143460038274525,0.0321574546396732,0.0293273199349641,-0.0119931967929005,walking,2026-03-04_14-00-37
1772632839480051200,2.44105126953125,-0.4186790010571479,1.496717690642178,-1.7486872493684291,0.0792311578989029,0.0850816145539283,0.0323658399283885,walking,2026-03-04_14-00-37
1772632839490000100,2.451000244140625,-0.2122578356606885,1.5426581885620951,-1.5044447777628898,0.1391176581382751,0.1559677720069885,0.1039580032229423,walking,2026-03-04_14-00-37
1772632839499949300,2.46094921875,-0.0615675079775974,1.496972396055609,-1.2454068880856035,0.192495971918106,0.1936524957418441,0.189671978354454,walking,2026-03-04_14-00-37
1772632839509899300,2.470899169921875,-0.0771386961948126,1.334120944327116,-0.7953688721686601,0.2270060032606125,0.1830059736967086,0.2444750368595123,walking,2026-03-04_14-00-37
1772632839519848400,2.480848388671875,-0.0869765649244189,1.0092724657423793,-0.33517888007164,0.2487030923366546,0.1495035290718078,0.2661496102809906,walking,2026-03-04_14-00-37
1772632839529797400,2.49079736328125,-0.1964592684283852,0.730580758176744,0.0156610949903726,0.2601475119590759,0.1131780222058296,0.2533155679702759,walking,2026-03-04_14-00-37
1772632839539746300,2.500746337890625,-0.3683595574006438,0.5824507825009525,0.2916255695492029,0.261409193277359,0.1106592267751693,0.2215221673250198,walking,2026-03-04_14-00-37
1772632839549695200,2.5106953125,-0.4096228938223794,0.509438445521146,0.4631009111076593,0.2617234587669372,0.1511501967906952,0.1856067776679992,walking,2026-03-04_14-00-37
1772632839559644200,2.52064404296875,-0.2946715861815959,0.504603426580131,0.5820861869722604,0.2766304016113281,0.2006597965955734,0.1703567951917648,walking,2026-03-04_14-00-37
1772632839569593300,2.53059326171875,-0.1681277481636032,0.578433509683609,0.7957429661780595,0.2990928590297699,0.2489445060491562,0.1561126112937927,walking,2026-03-04_14-00-37
1772632839579542300,2.540542236328125,-0.0255056857217103,0.6043880351513624,1.0366922414571047,0.3181003630161285,0.2894275784492492,0.1398479044437408,walking,2026-03-04_14-00-37
1772632839589491500,2.550491455078125,0.0937928208105266,0.6453828933626413,1.2500906619876622,0.3291402459144592,0.2558613717556,0.1167833358049392,walking,2026-03-04_14-00-37
1772632839599441400,2.56044140625,0.2055036121601238,0.6867576908022165,1.532995749464631,0.3392800688743591,0.1884889900684356,0.0894462913274765,walking,2026-03-04_14-00-37
1772632839609390300,2.570390380859375,0.2874658925864845,0.8243968137323856,1.613895917084813,0.3482557237148285,0.1200934201478958,0.0693554058670997,walking,2026-03-04_14-00-37
1772632839619339300,2.58033935546875,0.3091774467222392,1.0181791180364788,1.78175189910233,0.3141094446182251,-0.0205635000020265,0.0539673902094364,walking,2026-03-04_14-00-37
1772632839629288400,2.590288330078125,0.4270418287981301,1.030875518002361,1.9011761509060856,0.254747062921524,-0.14910389482975,0.0559349320828914,walking,2026-03-04_14-00-37
1772632839639237400,2.6002373046875,0.4799741583667695,1.0118187892243264,1.842064621245861,0.1718126684427261,-0.24790820479393,0.0630407258868217,walking,2026-03-04_14-00-37
1772632839649186300,2.610186279296875,0.3952284942995757,0.9788009012416004,1.6722522444635628,0.0711233392357826,-0.3009490668773651,0.0630133002996444,walking,2026-03-04_14-00-37
1772632839659135200,2.62013525390625,0.198022243428789,0.976612451286614,1.3588438821732998,-0.0274678226560354,-0.2906885147094726,0.049249742180109,walking,2026-03-04_14-00-37
1772632839669084400,2.63008447265625,-0.0054954190785065,0.9105595780558884,0.9268395355969666,-0.1059205532073974,-0.2268397808074951,0.0184409618377685,walking,2026-03-04_14-00-37
1772632839679033300,2.640033447265625,-0.139086727922596,0.826925893818587,0.5183516736865044,-0.1554195135831833,-0.1388355940580368,-0.0211194064468145,walking,2026-03-04_14-00-37
1772632839688982300,2.649982177734375,-0.2439688057633116,0.7784079466260969,0.2212403662025928,-0.1854171007871627,-0.0674865916371345,-0.0705364868044853,walking,2026-03-04_14-00-37
1772632839698932500,2.659932373046875,-0.3175693909598514,0.6886307911977172,0.0850222159862518,-0.2148236036300659,-0.0422404520213604,-0.1366752386093139,walking,2026-03-04_14-00-37
1772632839708881400,2.66988134765625,-0.4140180965740233,0.6011934768937528,0.0398164620816707,-0.2456560730934143,-0.070334143936634,-0.2210527062416076,walking,2026-03-04_14-00-37
1772632839718830300,2.679830322265625,-0.3858916704272851,0.5246941745810211,-0.1033253499180078,-0.2672094404697418,-0.0960893779993057,-0.3061041533946991,walking,2026-03-04_14-00-37
1772632839728779300,2.689779296875,-0.2413533260352909,0.5586334151923656,-0.3426274425119161,-0.2699831128120422,-0.1008460521697998,-0.3637168407440185,walking,2026-03-04_14-00-37
1772632839738728200,2.699728271484375,-0.0310263123067095,0.646218029012531,-0.5946189208090304,-0.2563608884811401,-0.0497253127396106,-0.3859970271587372,walking,2026-03-04_14-00-37
1772632839748677400,2.709677490234375,0.1906820002011954,0.7363461898356676,-0.7468138078361749,-0.2298219501972198,0.054157942533493,-0.3699887692928314,walking,2026-03-04_14-00-37
1772632839758626300,2.719626220703125,0.4400892341587692,0.7821521015904843,-0.7488093655675649,-0.1946201175451278,0.1754494905471801,-0.3218754827976227,walking,2026-03-04_14-00-37
1772632839768575500,2.729575439453125,0.6349372679982334,0.7642024572715163,-0.5982692600101233,-0.1612568348646164,0.2690742313861847,-0.252433568239212,walking,2026-03-04_14-00-37
1772632839778525400,2.739525390625,0.7530294674806296,0.6331389133393764,-0.2460088967561721,-0.1355601698160171,0.3070442378520965,-0.1878882199525833,walking,2026-03-04_14-00-37
1772632839788474400,2.749474365234375,0.7672709779966622,0.41784518058151,0.1132061079412698,-0.1136058643460273,0.2955977022647857,-0.1319517195224762,walking,2026-03-04_14-00-37
1772632839798423300,2.75942333984375,0.6971919179897755,0.2023809135623276,0.440016388118267,-0.1078229025006294,0.2286570519208908,-0.0937858670949935,walking,2026-03-04_14-00-37
1772632839808372200,2.769372314453125,0.5515441875837743,-0.0383380600921809,0.6888181304633617,-0.1073033139109611,0.1371566951274871,-0.0822535827755928,walking,2026-03-04_14-00-37
1772632839818321200,2.779321044921875,0.4089356787431984,-0.2674593888029456,0.7991817084550857,-0.110499806702137,0.0487413257360458,-0.0906464830040931,walking,2026-03-04_14-00-37
1772632839828270000,2.78927001953125,0.3199050308331847,-0.4102576480619609,0.7248474752217531,-0.0968835949897766,-0.015328467823565,-0.1001004427671432,walking,2026-03-04_14-00-37
1772632839838219300,2.79921923828125,0.2966285654682666,-0.4374551593281328,0.5759826094001531,-0.0710474252700805,-0.0360360220074653,-0.0976744145154953,walking,2026-03-04_14-00-37
1772632839848168200,2.809168212890625,0.2889385224223136,-0.4393116008497774,0.4846645081400871,-0.043976929038763,-0.0303232744336128,-0.0916998758912086,walking,2026-03-04_14-00-37
1772632839858117400,2.819117431640625,0.2876960480805486,-0.4388542124710977,0.5292570985823869,-0.0355026610195636,-0.0358293950557708,-0.0846204683184623,walking,2026-03-04_14-00-37
1772632839868066300,2.82906640625,0.3027641456138342,-0.4679419213980436,0.6495026036411523,-0.0459260083734989,-0.0535138510167598,-0.0836393609642982,walking,2026-03-04_14-00-37
1772632839878016300,2.839016357421875,0.2672757758643478,-0.4945614866457879,0.7375076348304748,-0.0719422325491905,-0.0779020562767982,-0.0899674743413925,walking,2026-03-04_14-00-37
1772632839887965200,2.848965087890625,0.1972716807898134,-0.4863191434793174,0.7714502364426851,-0.104574479162693,-0.1025488153100013,-0.1077800244092941,walking,2026-03-04_14-00-37
1772632839897914000,2.8589140625,0.2089751972608268,-0.471875315324217,0.7089677690446377,-0.1273194104433059,-0.1298227459192276,-0.1307465583086013,walking,2026-03-04_14-00-37
1772632839907863000,2.868863037109375,0.2746783072058111,-0.4342266988009214,0.4957417824715375,-0.128954067826271,-0.1369722634553909,-0.1447031199932098,walking,2026-03-04_14-00-37
1772632839917812200,2.878812255859375,0.3449791567372158,-0.3501286119222641,0.2712690102189779,-0.1106160581111908,-0.1237973272800445,-0.1428627520799636,walking,2026-03-04_14-00-37
1772632839927761400,2.888761474609375,0.4030314962007105,-0.277515649523586,0.1372194362133741,-0.0865906178951263,-0.1052654534578323,-0.1332942694425583,walking,2026-03-04_14-00-37
1772632839937710300,2.89871044921875,0.4377076362518593,-0.2652132173113525,0.1193231295168399,-0.0658669099211692,-0.0936583057045936,-0.1278459429740905,walking,2026-03-04_14-00-37
1772632839947659300,2.9086591796875,0.4303457291817292,-0.3246173001773655,0.1515863997399807,-0.05226881057024,-0.0958665981888771,-0.1329304426908493,walking,2026-03-04_14-00-37
1772632839957608200,2.918608154296875,0.3853666601724922,-0.404352807932347,0.1629337231844663,-0.0463723018765449,-0.0933231934905052,-0.1515452861785888,walking,2026-03-04_14-00-37
1772632839967558100,2.92855810546875,0.2996616860864683,-0.4868004972554743,0.1800865180373191,-0.053331408649683,-0.0857456997036933,-0.1735696345567703,walking,2026-03-04_14-00-37
1772632839977507300,2.93850732421875,0.2225339131444692,-0.5723752325579524,0.1718523581773042,-0.0676097273826599,-0.0647132396697998,-0.2025982439517974,walking,2026-03-04_14-00-37
1772632839987456300,2.948456298828125,0.1957022029833868,-0.6400830333888531,0.1179793136924505,-0.0739118307828903,-0.0393692664802074,-0.2310280203819275,walking,2026-03-04_14-00-37
1772632839997405200,2.9584052734375,0.2096978489795699,-0.6514382478788495,0.0790232678323984,-0.0764072090387344,-0.0241002887487411,-0.244994044303894,walking,2026-03-04_14-00-37
1772632840007354400,2.968354248046875,0.3098821243928745,-0.6811791600175201,0.047182606935501,-0.0765624716877937,-0.0133464438840746,-0.2420403361320495,walking,2026-03-04_14-00-37
1772632840017303300,2.97830322265625,0.3521739636121317,-0.698425186111778,0.0454962612837553,-0.0700367093086242,-0.014811304397881,-0.2265283763408661,walking,2026-03-04_14-00-37
1772632840027252200,2.988252197265625,0.3471292474431917,-0.7171748947672546,0.0378337638318538,-0.0514928512275218,-0.0245558116585016,-0.206956535577774,walking,2026-03-04_14-00-37
1772632840037201200,2.998201171875,0.3857128432616591,-0.7627826536014676,0.0438210215479135,-0.0317874662578105,-0.064823530614376,-0.1867344081401825,walking,2026-03-04_14-00-37
1772632840047150000,3.008150146484375,0.3694247024141252,-0.8706925548307597,0.0310568170428276,-0.0076104938052594,-0.1005839258432388,-0.1706909984350204,walking,2026-03-04_14-00-37
1772632840057099300,3.018099365234375,0.2485315105689689,-0.9766884391322732,-0.0165624277442693,0.0113950045779347,-0.1228215992450714,-0.1680609434843063,walking,2026-03-04_14-00-37
1772632840067049200,3.02804931640625,0.1383296990102157,-1.0604654773630202,-0.0382680635958909,0.0304424650967121,-0.1470339894294738,-0.1751566678285598,walking,2026-03-04_14-00-37
1772632840076998100,3.037998046875,0.0642355581430718,-1.139696250466257,-0.0765454795420169,0.042697224766016,-0.1564353257417678,-0.1983051747083664,walking,2026-03-04_14-00-37
1772632840086947300,3.047947265625,-0.0054669601690024,-1.227307313901931,-0.1275222180634737,0.0463651977479457,-0.1401812583208084,-0.2375540435314178,walking,2026-03-04_14-00-37
1772632840096896300,3.057896240234375,0.0330803222270682,-1.281469842852652,-0.1797486643850803,0.0481689982116222,-0.0966184884309768,-0.2725037336349487,walking,2026-03-04_14-00-37
1772632840106845200,3.06784521484375,0.2051401491425931,-1.3011927804544567,-0.1912608230024576,0.0541051849722862,-0.0512352921068668,-0.2928936779499054,walking,2026-03-04_14-00-37
1772632840116794400,3.07779443359375,0.4185344780199229,-1.2389540586844086,-0.1259340720891952,0.0596786551177501,-0.0329172611236572,-0.3027925193309784,walking,2026-03-04_14-00-37
1772632840126743300,3.087743408203125,0.6761782829903066,-1.1583199946545064,-0.0287169759184122,0.0732847452163696,-0.0534680746495723,-0.2982747256755829,walking,2026-03-04_14-00-37
1772632840136692200,3.097692138671875,0.9193779675446452,-1.056242452840507,0.0331751243710517,0.0875359922647476,-0.1011992916464805,-0.2853096127510071,walking,2026-03-04_14-00-37
1772632840146641200,3.10764111328125,1.0522732569485902,-0.9288127353660762,0.0712011959046125,0.0990533679723739,-0.1505878865718841,-0.2693268954753876,walking,2026-03-04_14-00-37
1772632840156591000,3.117591064453125,1.1149530004844068,-0.8187586617149412,-0.0088192662715911,0.1075009107589721,-0.1671380996704101,-0.2468231916427612,walking,2026-03-04_14-00-37
1772632840166540000,3.1275400390625,1.1559762080073357,-0.7186027356132865,-0.1379033268243074,0.1092213168740272,-0.1431371569633484,-0.2258358895778656,walking,2026-03-04_14-00-37
1772632840176489500,3.137489501953125,1.1311044362749905,-0.640753626126796,-0.2198287458389997,0.0998657941818237,-0.1068001613020896,-0.2073069810867309,walking,2026-03-04_14-00-37
1772632840186438400,3.1474384765625,1.1322457883298396,-0.5789847138255835,-0.2518576227843761,0.0768555551767349,-0.0823736414313316,-0.1832754164934158,walking,2026-03-04_14-00-37
1772632840196387300,3.15738720703125,1.115229917729646,-0.5315267970800399,-0.2818313207656145,0.0497041717171669,-0.0879696980118751,-0.1648260802030563,walking,2026-03-04_14-00-37
1772632840206336300,3.167336181640625,1.0269033264357597,-0.4543059024944901,-0.3074783877193927,0.0218650847673416,-0.1133059412240982,-0.1551633328199386,walking,2026-03-04_14-00-37
1772632840216285200,3.17728515625,0.8419612581260502,-0.3863141701556742,-0.4501800547361373,0.0003351713530719,-0.1293127685785293,-0.1543838828802108,walking,2026-03-04_14-00-37
1772632840226234000,3.187234130859375,0.7144314412780106,-0.307910641656816,-0.6583212853908539,-0.0122538581490516,-0.1295742839574813,-0.1548808366060257,walking,2026-03-04_14-00-37
1772632840236183000,3.19718310546875,0.6454077355429529,-0.1603543742157518,-0.85889120400846,-0.0189264081418514,-0.1205107644200325,-0.1470194458961486,walking,2026-03-04_14-00-37
1772632840246132200,3.20713232421875,0.5596390120383352,-0.0126139823794364,-1.0354045397341252,-0.0162637792527675,-0.1032699868083,-0.1314977407455444,walking,2026-03-04_14-00-37
1772632840256082200,3.217082275390625,0.4255644131893292,0.1257996320545673,-1.1597732622027397,-0.0200209058821201,-0.0879594385623931,-0.1111974865198135,walking,2026-03-04_14-00-37
1772632840266031400,3.22703125,0.3115717214476317,0.225922971060872,-1.2022674190610647,-0.0285323709249496,-0.0665979534387588,-0.0970627591013908,walking,2026-03-04_14-00-37
1772632840275980300,3.236980224609375,0.2315010634541511,0.2666357974603772,-1.2643944971501826,-0.0320907309651374,-0.027065884321928,-0.0837383717298507,walking,2026-03-04_14-00-37
1772632840285929200,3.24692919921875,0.1146637959362938,0.3227003606401383,-1.3530623761624097,-0.0247483942657709,0.0351847074925899,-0.0667335540056228,walking,2026-03-04_14-00-37
1772632840295878100,3.256878173828125,0.0212973107790574,0.3623611937686801,-1.365865159112215,-0.0049976892769336,0.1192391514778137,-0.0495942942798137,walking,2026-03-04_14-00-37
1772632840305827000,3.2668271484375,0.0131949606051668,0.3687326284967362,-1.2680471744388342,0.0379822701215744,0.1844511777162552,-0.0345013625919818,walking,2026-03-04_14-00-37
1772632840315776300,3.2767763671875,0.0606737740082666,0.3751362119287252,-1.0146721328288315,0.09070385992527,0.2001295089721679,-0.025795180350542,walking,2026-03-04_14-00-37
1772632840325725400,3.286725341796875,0.1668651808818802,0.3465701887883246,-0.6844985136985778,0.143834188580513,0.1672842055559158,-0.0155992675572633,walking,2026-03-04_14-00-37
1772632840335674400,3.29667431640625,0.2589769532702863,0.3234931184530258,-0.3563005785554647,0.1870753169059753,0.1036986112594604,6.47278502583e-05,walking,2026-03-04_14-00-37
1772632840345624300,3.306624267578125,0.2632626677654683,0.3140942987278103,-0.1328589029163122,0.2262791842222213,0.0435564406216144,0.0085716638714075,walking,2026-03-04_14-00-37
1772632840355573200,3.3165732421875,0.2025780435696244,0.3168018041208386,-0.0532300704061984,0.2553574740886688,0.0051670973189175,0.0129449972882866,walking,2026-03-04_14-00-37
1772632840365522200,3.326522216796875,0.0928142946345731,0.3594591887168586,0.0469815314054489,0.2666354477405548,-0.0127708911895751,0.0070647373795509,walking,2026-03-04_14-00-37
1772632840375471400,3.336471435546875,-0.0475173187825828,0.4006222431018948,0.1182908638596534,0.2563411295413971,-0.0198739860206842,-0.0014746125089004,walking,2026-03-04_14-00-37
1772632840385420300,3.346420166015625,-0.2321102448610588,0.4668535416394472,0.1747439879655838,0.226791501045227,-0.0251126885414123,-0.0131485788151621,walking,2026-03-04_14-00-37
1772632840395369200,3.356369140625,-0.4598612715993076,0.5135970265053212,0.2027636292695999,0.1902970820665359,-0.0237007029354572,-0.0389420092105865,walking,2026-03-04_14-00-37
1772632840405318100,3.366318115234375,-0.7206083763472736,0.5929769988209009,0.1493155321985483,0.1511142551898956,-0.0240647569298744,-0.0786041989922523,walking,2026-03-04_14-00-37
1772632840415267300,3.376267333984375,-0.9138862382605673,0.66607277630046,0.0178501294672489,0.1311521828174591,-0.0039201411418616,-0.1214487627148628,walking,2026-03-04_14-00-37
1772632840425216300,3.38621630859375,-1.034776544028893,0.8106997122913598,-0.1597217754006385,0.1323604434728622,0.0383322425186634,-0.1544474512338638,walking,2026-03-04_14-00-37
1772632840435165200,3.396165283203125,-1.1321633707433938,0.9848933728978038,-0.2559206344395875,0.1442018449306488,0.0869924873113632,-0.1757550686597824,walking,2026-03-04_14-00-37
1772632840445115400,3.406115478515625,-1.1811006393264978,1.1277743420042097,-0.243482008627057,0.1613605916500091,0.1265207231044769,-0.1858881264925003,walking,2026-03-04_14-00-37
1772632840455064300,3.416064208984375,-1.159066794433817,1.2483536090619862,-0.1269517246991396,0.1830127984285354,0.1490392684936523,-0.1873703300952911,walking,2026-03-04_14-00-37
1772632840465013200,3.42601318359375,-1.12773634808138,1.3058219015598296,0.0769733495652675,0.1996311843395233,0.1720766872167587,-0.1882787346839904,walking,2026-03-04_14-00-37
1772632840474962200,3.435962158203125,-1.079948614859581,1.317896224104613,0.311379486811161,0.2027480602264404,0.1921407133340835,-0.1860072463750839,walking,2026-03-04_14-00-37
1772632840484911000,3.4459111328125,-1.0219584173794836,1.270652973023057,0.589461099654436,0.1879928261041641,0.1893340051174163,-0.1854301393032074,walking,2026-03-04_14-00-37
1772632840494860300,3.4558603515625,-0.9507698617607354,1.1882444466665387,0.8406523674845695,0.1592906862497329,0.1645719856023788,-0.1962111294269561,walking,2026-03-04_14-00-37
1772632840504809200,3.465809326171875,-0.8209691773712634,1.09874493913576,1.0648574287116528,0.1209451630711555,0.1166212409734726,-0.2051601409912109,walking,2026-03-04_14-00-37
1772632840514758400,3.47575830078125,-0.7066970476336777,1.0728045883238315,1.1773416521191595,0.0760684534907341,0.0636593699455261,-0.2032127231359481,walking,2026-03-04_14-00-37
1772632840524707300,3.485707275390625,-0.6513460395507514,1.069327998254448,1.200849368956685,0.0310908555984497,0.0422645956277847,-0.1989247649908065,walking,2026-03-04_14-00-37
1772632840534656300,3.49565625,-0.595906257205829,0.9990816188566386,1.1529910547167062,-0.0147633058950304,0.0460615791380405,-0.1854096949100494,walking,2026-03-04_14-00-37
1772632840544606200,3.505606201171875,-0.5141637204773724,0.8959260725475847,1.1291226878732443,-0.066409982740879,0.047457605600357,-0.1725535541772842,walking,2026-03-04_14-00-37
1772632840554555100,3.51555517578125,-0.4635898636683821,0.7634501775994896,1.1302800412148235,-0.1276857852935791,0.0373726934194564,-0.1603203862905502,walking,2026-03-04_14-00-37
1772632840564504000,3.525504150390625,-0.4117463522497564,0.6169505796045065,1.2002250995784998,-0.2043249011039734,-0.0121652977541089,-0.1547714173793792,walking,2026-03-04_14-00-37
1772632840574453200,3.535453369140625,-0.3993590182330459,0.4590095501407981,1.169748128250241,-0.2839129269123077,-0.0878310054540634,-0.148860827088356,walking,2026-03-04_14-00-37
1772632840584402400,3.54540234375,-0.4213130758877843,0.3475663602188229,0.9297364260822534,-0.3411751687526703,-0.1488898396492004,-0.1508616507053375,walking,2026-03-04_14-00-37
1772632840594351400,3.555351318359375,-0.442803498086147,0.2711740254119038,0.4782482113569974,-0.3577183783054352,-0.1628055423498153,-0.1497618705034256,walking,2026-03-04_14-00-37
1772632840604300300,3.56530029296875,-0.4333811878874897,0.2266919096067547,-0.009373393023014,-0.3435479700565338,-0.1250680088996887,-0.1379619389772415,walking,2026-03-04_14-00-37
1772632840614249200,3.575249267578125,-0.430067715957947,0.1946178783454001,-0.4058949228078126,-0.2960244119167328,-0.0498027466237545,-0.1140618100762367,walking,2026-03-04_14-00-37
1772632840624198100,3.5851982421875,-0.3815556505169719,0.1481907659523189,-0.5847305640012026,-0.2293260842561721,0.0231580138206481,-0.0875332653522491,walking,2026-03-04_14-00-37
1772632840634148400,3.5951484375,-0.2745776963755488,0.0839648158878088,-0.5176987627357245,-0.1586795449256897,0.0471203848719596,-0.0547876618802547,walking,2026-03-04_14-00-37
1772632840644097300,3.60509716796875,-0.1268761021796614,-0.0359032341606915,-0.2914922985583543,-0.1021012216806411,0.0281429626047611,-0.0213767103850841,walking,2026-03-04_14-00-37
1772632840654046200,3.615046142578125,-0.0593440963070839,-0.1397173905089497,-0.020063713863492,-0.0599930509924888,-0.004958885256201,0.013918618671596,walking,2026-03-04_14-00-37
1772632840663995400,3.624995361328125,-0.069385670915246,-0.2384882919929921,0.2670487621754407,-0.0458303615450859,-0.0453726202249527,0.036710750311613,walking,2026-03-04_14-00-37
1772632840673944300,3.6349443359375,-0.1607205041144043,-0.3341796399012208,0.5815659624904393,-0.0667938739061355,-0.1009329408407211,0.0445162802934646,walking,2026-03-04_14-00-37
1772632840683893200,3.644893310546875,-0.2693469195825979,-0.4491426745124161,0.7623223426133394,-0.1137240976095199,-0.1407088488340377,0.0305714383721351,walking,2026-03-04_14-00-37
1772632840693842200,3.65484228515625,-0.3671991718517616,-0.4982558111190796,0.7695283284693956,-0.1660405695438385,-0.1428190469741821,0.0089541412889957,walking,2026-03-04_14-00-37
1772632840703791000,3.664791015625,-0.4233680721888318,-0.4386611741170287,0.6530763704746961,-0.2066415250301361,-0.1195936203002929,-0.0030447316821664,walking,2026-03-04_14-00-37
1772632840713740300,3.674740234375,-0.3827534454667941,-0.3379534593515098,0.4725333408415317,-0.2326382845640182,-0.1003281697630882,-0.004738125950098,walking,2026-03-04_14-00-37
1772632840723689200,3.684689208984375,-0.2849570881033316,-0.2102304580189287,0.3557370994538069,-0.2483027428388595,-0.0924566686153411,0.0100866258144378,walking,2026-03-04_14-00-37
1772632840733639200,3.69463916015625,-0.1848848216971382,-0.0908216960452497,0.2331540913581848,-0.2484464794397354,-0.1019145622849464,0.0352569930255413,walking,2026-03-04_14-00-37
1772632840743588000,3.704588134765625,-0.0656415890160948,0.0065226797670125,0.0423316597729921,-0.2269646078348159,-0.104653887450695,0.0690538361668586,walking,2026-03-04_14-00-37
1772632840753537300,3.714537353515625,0.0251428437586873,0.1122838785298168,-0.2006394767224788,-0.1838818788528442,-0.079620636999607,0.1168491840362548,walking,2026-03-04_14-00-37
1772632840763486200,3.724486328125,0.0904264496499672,0.2013702752150595,-0.3085065617233514,-0.1365439295768737,-0.045749757438898,0.1757564544677734,walking,2026-03-04_14-00-37
1772632840773435400,3.734435302734375,0.1586446476884186,0.1938200059659779,-0.2521609896451234,-0.1002881675958633,-0.0178960990160703,0.2361923605203628,walking,2026-03-04_14-00-37
1772632840783384300,3.74438427734375,0.1898763829067349,0.1313047322768717,-0.0889835208326578,-0.0768233239650726,-0.0066261342726647,0.2855197191238403,walking,2026-03-04_14-00-37
1772632840793331500,3.75433154296875,0.1675662783559411,0.027221476663649,0.1082329957038164,-0.0712704062461853,-0.000780074391514,0.3206403851509094,walking,2026-03-04_14-00-37
1772632840803280400,3.7642802734375,0.1701567332405597,-0.0716326461244374,0.3214741798460483,-0.081929437816143,-0.0070534166879951,0.3469617366790771,walking,2026-03-04_14-00-37
1772632840813229600,3.7742294921875,0.1599594566140323,-0.1688166437432169,0.4923398650735616,-0.104894608259201,-0.0205502621829509,0.3646736443042755,walking,2026-03-04_14-00-37
1772632840823178500,3.784178466796875,0.1478697903696447,-0.2079834828097373,0.4940495916008949,-0.1169986724853515,-0.0200256183743476,0.3831040561199188,walking,2026-03-04_14-00-37
1772632840833128400,3.79412841796875,0.1156648262050002,-0.1922420891247689,0.3546311840385198,-0.1113686710596084,0.0061900615692138,0.4033909738063812,walking,2026-03-04_14-00-37
1772632840843077400,3.804077392578125,0.1361946962755173,-0.1677870814997702,0.2076566620081663,-0.0871922299265861,0.0566095598042011,0.4280545115470886,walking,2026-03-04_14-00-37
1772632840853026300,3.8140263671875,0.1850004474334418,-0.1779506750524044,0.1671235760897398,-0.0573913864791393,0.1045883148908615,0.4637279808521271,walking,2026-03-04_14-00-37
1772632840862975200,3.823975341796875,0.2160087126268073,-0.2220283747751265,0.2465601008981466,-0.0338980443775653,0.1334535181522369,0.5044251084327698,walking,2026-03-04_14-00-37
1772632840872924700,3.833924560546875,0.2132167438207194,-0.3067217241331935,0.4370645525753497,-0.0234314873814582,0.1282377392053604,0.5298578143119812,walking,2026-03-04_14-00-37
1772632840882873600,3.84387353515625,0.1104819071417674,-0.4625710420146584,0.6008318039745092,-0.0310683697462081,0.1046573296189308,0.5335148572921753,walking,2026-03-04_14-00-37
1772632840892822500,3.853822509765625,-0.091741623901762,-0.6244898160029202,0.7034492978841066,-0.0601967349648475,0.0702784806489944,0.5104724764823914,walking,2026-03-04_14-00-37
1772632840902771500,3.863771484375,-0.2676392023492604,-0.7137601178877055,0.6659083795189857,-0.093237780034542,0.0481681190431118,0.4728803634643554,walking,2026-03-04_14-00-37
1772632840912720400,3.873720458984375,-0.3685220179533586,-0.7469272781480103,0.448603014677763,-0.1217113509774208,0.0467306189239025,0.4440467953681946,walking,2026-03-04_14-00-37
1772632840922669300,3.88366943359375,-0.3924984848137944,-0.7601905912816525,0.1803741028070449,-0.1452630162239074,0.057882871478796,0.4229873120784759,walking,2026-03-04_14-00-37
1772632840932619300,3.893619384765625,-0.3660133961332961,-0.737850091592595,-0.0770849932461976,-0.162713423371315,0.0779334306716919,0.413953572511673,walking,2026-03-04_14-00-37
1772632840942568400,3.903568359375,-0.3534921335386112,-0.6912487916763872,-0.3511486026197671,-0.1671909987926483,0.1010576635599136,0.4090474843978882,walking,2026-03-04_14-00-37
1772632840952517600,3.913517578125,-0.3486469219971448,-0.6273045080974697,-0.6196703599572181,-0.156352013349533,0.1122884228825569,0.4183908998966217,walking,2026-03-04_14-00-37
1772632840962466600,3.923466552734375,-0.2959611145354807,-0.5512105717152357,-0.8911696718007326,-0.1215969622135162,0.1106732189655304,0.440374493598938,walking,2026-03-04_14-00-37
1772632840972415500,3.93341552734375,-0.2283690855713561,-0.47920149349384,-1.1985510288864374,-0.0585013218224048,0.118919625878334,0.4794956743717193,walking,2026-03-04_14-00-37
1772632840982364400,3.943364501953125,-0.1913567211249843,-0.4525202611867338,-1.4662427651405334,0.0226412042975425,0.1430324167013168,0.5304110646247864,walking,2026-03-04_14-00-37
1772632840992313300,3.953313232421875,-0.2188559918167069,-0.4752608661092817,-1.5771978792846202,0.0984701588749885,0.1638930290937423,0.5833014249801636,walking,2026-03-04_14-00-37
1772632841002262300,3.96326220703125,-0.315408011674881,-0.5724591845143586,-1.5058295101195571,0.1615122407674789,0.161934807896614,0.6230486035346985,walking,2026-03-04_14-00-37
1772632841012211500,3.97321142578125,-0.454593523796834,-0.7294148562025279,-1.3766431582361458,0.20136359333992,0.1401499360799789,0.6459172964096069,walking,2026-03-04_14-00-37
1772632841022160600,3.98316064453125,-0.6360020476855337,-0.8940851208560168,-1.2457780594855543,0.2219762057065963,0.1129593253135681,0.6451564431190491,walking,2026-03-04_14-00-37
1772632841032110300,3.9931103515625,-0.8485271925128995,-1.018790600998327,-1.1280109272390604,0.2361191213130951,0.0791634246706962,0.6208653450012207,walking,2026-03-04_14-00-37
1772632841042059500,4.0030595703125,-0.9765322256572544,-1.09354152527377,-1.101395892035961,0.2462543100118637,0.0551150813698768,0.5860559344291687,walking,2026-03-04_14-00-37
1772632841052008400,4.013008544921875,-1.018429804861918,-1.1355433685705063,-1.1596861684411763,0.2484687566757202,0.0361232049763202,0.5376527309417725,walking,2026-03-04_14-00-37
1772632841061957400,4.022957275390625,-1.0591538102425635,-1.1166421226151286,-1.1510410896927117,0.240448385477066,0.0339521951973438,0.4965971708297729,walking,2026-03-04_14-00-37
1772632841071906600,4.032906494140625,-1.073769633963704,-1.0338238464139402,-1.1595324391841888,0.22506083548069,0.0329047292470932,0.4559649229049682,walking,2026-03-04_14-00-37
1772632841081855500,4.04285546875,-1.0583448319472373,-0.905415639296174,-1.1731927157461643,0.202040746808052,0.0275626964867115,0.4138305187225342,walking,2026-03-04_14-00-37
1772632841091804400,4.052804443359375,-1.0475725319117306,-0.739198948918283,-1.1895832940548658,0.1809690296649933,0.0170766860246658,0.3692723512649536,walking,2026-03-04_14-00-37
1772632841101753600,4.062753662109375,-1.112460891407728,-0.5063866567350924,-1.1811731931060552,0.1535605788230896,-0.0242459848523139,0.3101760149002075,walking,2026-03-04_14-00-37
1772632841111702500,4.07270263671875,-1.2019890405111011,-0.2100176920510828,-1.217072774004936,0.1293121874332428,-0.071122258901596,0.2425508648157119,walking,2026-03-04_14-00-37
1772632841121651500,4.0826513671875,-1.25694856505841,0.1169663372576236,-1.3431500539571046,0.1156443133950233,-0.0641674175858497,0.1741952449083328,walking,2026-03-04_14-00-37
1772632841131600400,4.092600341796875,-1.26700117251724,0.5119260245531797,-1.4954957476317885,0.118211805820465,-0.0222073141485452,0.1362899243831634,walking,2026-03-04_14-00-37
1772632841141550600,4.102550537109375,-1.1620111042574048,0.8719456236317753,-1.5523440085351463,0.1380651444196701,0.0471994578838348,0.1202763393521308,walking,2026-03-04_14-00-37
1772632841151499500,4.11249951171875,-0.9710024293851108,1.1336930645287036,-1.4937474426597357,0.1783930957317352,0.1304062902927398,0.132515013217926,walking,2026-03-04_14-00-37
1772632841161448400,4.122448486328125,-0.7819153702251612,1.3142450081206858,-1.2513842089295386,0.2233243584632873,0.1926369071006775,0.1673259884119033,walking,2026-03-04_14-00-37
1772632841171397400,4.1323974609375,-0.6575716360673308,1.3362781223610043,-0.8599398362785577,0.2530615031719208,0.2308390736579895,0.210495576262474,walking,2026-03-04_14-00-37
1772632841181346300,4.14234619140625,-0.5899975811513141,1.2212649649977685,-0.3818681505322456,0.271679937839508,0.2537776827812195,0.2554793059825897,walking,2026-03-04_14-00-37
1772632841191295500,4.15229541015625,-0.5734313540147618,0.985377941544354,0.091133392342925,0.2713519334793091,0.2419657260179519,0.2924460172653198,walking,2026-03-04_14-00-37
1772632841201244400,4.162244384765625,-0.6531715014122426,0.7127864505499601,0.5082715936988592,0.2584584951400757,0.2178073823451995,0.2955222427845001,walking,2026-03-04_14-00-37
1772632841211193600,4.172193603515625,-0.7807602088406681,0.4078587702266871,0.8155249404907227,0.2475150823593139,0.1898917108774185,0.2658325731754303,walking,2026-03-04_14-00-37
1772632841221142500,4.182142578125,-0.8283778461925685,0.2482956925190985,0.9655044895559548,0.2528136968612671,0.1632662266492843,0.2283056825399398,walking,2026-03-04_14-00-37
1772632841231092500,4.192092529296875,-0.8309296495672315,0.2171454981043934,1.0567425113171338,0.2746723890304565,0.1593743711709976,0.1941470354795456,walking,2026-03-04_14-00-37
1772632841241041400,4.20204150390625,-0.7704693356465547,0.2403298282064497,1.202305997505784,0.3081493675708771,0.1741626411676406,0.1619558036327362,walking,2026-03-04_14-00-37
1772632841250990300,4.211990234375,-0.692692195417732,0.2256518990345299,1.3826385992586612,0.3351897895336151,0.1770178079605102,0.1164650097489357,walking,2026-03-04_14-00-37
1772632841260939300,4.221939208984375,-0.562683932692185,0.276963568598777,1.680627858620882,0.3528031408786773,0.1537140905857086,0.059144202619791,walking,2026-03-04_14-00-37
1772632841270888400,4.231888427734375,-0.3722090724356472,0.3315365780465305,1.8293086000472305,0.3663359880447387,0.1059052944183349,0.0059685981832444,walking,2026-03-04_14-00-37
1772632841280837600,4.241837646484375,-0.2143055254381149,0.5291466239452361,2.042966548296809,0.3399517834186554,0.0218034647405147,-0.079835258424282,walking,2026-03-04_14-00-37
1772632841290786600,4.25178662109375,-0.0529186663694679,0.8044735312528908,2.2451433175891635,0.3036302328109741,-0.0557775236666202,-0.1416729539632797,walking,2026-03-04_14-00-37
1772632841300735500,4.261735595703125,0.1053210537798702,1.0833043550282715,2.306390105712414,0.2297464162111282,-0.1521722227334976,-0.173931285738945,walking,2026-03-04_14-00-37
1772632841310684400,4.271684326171875,0.3386201796319335,1.207627630919963,2.3104881886810062,0.133930966258049,-0.2492136359214782,-0.1792988628149032,walking,2026-03-04_14-00-37
1772632841320633300,4.28163330078125,0.3991954251691699,1.339747552037239,2.208888931903243,0.0164371021091938,-0.3316613733768463,-0.1982616335153579,walking,2026-03-04_14-00-37
1772632841330582300,4.291582275390625,0.2449261064881458,1.486920811510086,1.9951029733598231,-0.1131879389286041,-0.3704457581043243,-0.2351535856723785,walking,2026-03-04_14-00-37
1772632841340532500,4.301532470703125,0.176644341694191,1.5346812183335423,1.6342279264956712,-0.242886796593666,-0.3828432857990265,-0.2729984223842621,walking,2026-03-04_14-00-37
1772632841350481400,4.3114814453125,0.2034218739826232,1.6217622665457427,1.2160679808765649,-0.3599629998207092,-0.3885033130645752,-0.2878085970878601,walking,2026-03-04_14-00-37
1772632841360430600,4.3214306640625,0.2169400386601686,1.756113599976897,0.7247481065005064,-0.452734500169754,-0.3934714496135711,-0.2859151065349579,walking,2026-03-04_14-00-37
1772632841370379500,4.331379638671875,0.1795611059237271,1.818445845249295,0.1431751297473907,-0.5122271776199341,-0.4042055904865265,-0.2807860076427459,walking,2026-03-04_14-00-37
1772632841380328400,4.341328369140625,0.0737932216918095,1.809435294189304,-0.3900251535028219,-0.5481455326080322,-0.4185634851455688,-0.2966475486755371,walking,2026-03-04_14-00-37
1772632841390277400,4.35127734375,-0.0368907473606988,1.6917751294486223,-0.8537778065174818,-0.5530894994735718,-0.3862851560115814,-0.3029286861419678,walking,2026-03-04_14-00-37
1772632841400226300,4.361226318359375,-0.1279775240829214,1.625040995955467,-1.3471318170696496,-0.5341097116470337,-0.3250185847282409,-0.299922227859497,walking,2026-03-04_14-00-37
1772632841410175500,4.371175537109375,-0.3076117317754775,1.5772503401242195,-1.640992598325014,-0.49798583984375,-0.2295719534158706,-0.3095112442970276,walking,2026-03-04_14-00-37
1772632841420124400,4.38112451171875,-0.2568843283725902,1.3813143649175763,-1.956128222799301,-0.4250000715255737,-0.0939241126179695,-0.2990293204784393,walking,2026-03-04_14-00-37
1772632841430073600,4.391073486328125,-0.1365744893733411,1.1898470595575867,-2.078714153504372,-0.3361819386482239,0.0493783541023731,-0.2819464206695556,walking,2026-03-04_14-00-37
1772632841440023300,4.401023193359375,0.04325282973852,0.9684788291916252,-1.9651579169511797,-0.2342300117015838,0.1855212748050689,-0.2316398173570633,walking,2026-03-04_14-00-37
1772632841449972500,4.410972412109375,0.2241290733814239,0.6720188252232968,-1.6335171478778123,-0.1441049873828888,0.2907108664512634,-0.1676969826221466,walking,2026-03-04_14-00-37
1772632841459921400,4.42092138671875,0.3117459820359945,0.3046238750711083,-1.0125158315777778,-0.0849639177322387,0.3186335861682892,-0.1127607598900795,walking,2026-03-04_14-00-37
1772632841469870600,4.43087060546875,0.3606467545336112,-0.1163278932236134,-0.3482306693464517,-0.0636627897620201,0.2610674500465393,-0.0844486504793167,walking,2026-03-04_14-00-37
1772632841479819500,4.440819580078125,0.3616697043731808,-0.484642296308279,0.1714852784305811,-0.0602992214262485,0.163655400276184,-0.0753712654113769,walking,2026-03-04_14-00-37
1772632841489768400,4.4507685546875,0.2601013907229527,-0.7401362297683953,0.4650590594381094,-0.0631292611360549,0.0714839175343513,-0.0891488119959831,walking,2026-03-04_14-00-37
1772632841499717400,4.46071728515625,0.1424643145969137,-0.8976401829890907,0.5741027870029211,-0.0627907738089561,-0.0086008021607995,-0.1229786872863769,walking,2026-03-04_14-00-37
1772632841509666600,4.47066650390625,0.1070730850789696,-0.9452923071324824,0.5337251839071512,-0.0498541332781314,-0.0609425269067287,-0.1805078536272049,walking,2026-03-04_14-00-37
1772632841519615500,4.480615478515625,0.0556520368561148,-0.8148544938832522,0.4654641331076621,-0.0249671600759029,-0.091512955725193,-0.2363258451223373,walking,2026-03-04_14-00-37
1772632841529564400,4.490564453125,0.1471097657825797,-0.6261728737190365,0.3675514558881521,0.0105460938066244,-0.1048977300524711,-0.263039231300354,walking,2026-03-04_14-00-37
1772632841539513300,4.500513427734375,0.2739294615998864,-0.382695541267097,0.3461637999445199,0.0424584858119487,-0.1149407774209976,-0.2642970383167267,walking,2026-03-04_14-00-37
1772632841549463600,4.510463623046875,0.3462097214454784,-0.1566729092240333,0.3684025197595357,0.0647014006972312,-0.1091795936226844,-0.2537144720554352,walking,2026-03-04_14-00-37
1772632841559412500,4.52041259765625,0.3538215116234496,-0.0281859377816319,0.423650944250822,0.0703936368227005,-0.1033640503883361,-0.2433278709650039,walking,2026-03-04_14-00-37
1772632841569361400,4.530361328125,0.3451165559139103,-0.0044765608921647,0.4655512268692254,0.0610921643674373,-0.0868944376707077,-0.2391490340232849,walking,2026-03-04_14-00-37
1772632841579310300,4.540310302734375,0.3150059336800128,-0.0204576816171407,0.534326072409749,0.0410705208778381,-0.0634402483701706,-0.2436074316501617,walking,2026-03-04_14-00-37
1772632841589259300,4.55025927734375,0.2472799396052956,-0.0469127039529383,0.5784773488253354,0.0163615643978118,-0.0478920042514801,-0.2612424194812774,walking,2026-03-04_14-00-37
1772632841599208400,4.56020849609375,0.1490102656416594,-0.1376044900082051,0.6135369717687368,-0.0134386736899614,-0.0518385432660579,-0.2942291498184204,walking,2026-03-04_14-00-37
1772632841609157600,4.57015771484375,0.024630510322377,-0.2091153363838791,0.6139905607551336,-0.0393485911190509,-0.0588425919413566,-0.3494659066200256,walking,2026-03-04_14-00-37
1772632841619106600,4.5801064453125,-0.1139785536184906,-0.2413743688233196,0.5581926856875419,-0.0604701191186904,-0.0637270957231521,-0.4161266982555389,walking,2026-03-04_14-00-37
1772632841629055500,4.590055419921875,-0.2885666934352368,-0.2784012001864612,0.464960859760642,-0.0824977830052375,-0.0458105988800525,-0.4974671304225921,walking,2026-03-04_14-00-37
1772632841639004400,4.60000439453125,-0.3947412953045219,-0.3074552991047501,0.2999590981304645,-0.0941467210650444,0.0136375464498996,-0.5800914168357849,walking,2026-03-04_14-00-37
1772632841648954400,4.609954345703125,-0.3634438379062339,-0.2651395675532519,0.1591378380328416,-0.0972072929143905,0.0831723734736442,-0.6464200019836426,walking,2026-03-04_14-00-37
1772632841658903300,4.6199033203125,-0.1958028138136491,-0.1784263297401368,0.1652425846487283,-0.0922034829854965,0.1370827406644821,-0.6782727241516113,walking,2026-03-04_14-00-37
1772632841668852500,4.6298525390625,0.0720029407415539,-0.0996305870532989,0.212569568490982,-0.0815146192908287,0.1803543120622635,-0.6722385287284851,walking,2026-03-04_14-00-37
1772632841678801700,4.6398017578125,0.3340593745224177,-0.0883402544930577,0.3159814276486635,-0.0708646401762962,0.1893475502729416,-0.641079306602478,walking,2026-03-04_14-00-37
1772632841688750600,4.64975048828125,0.4658728600390255,-0.1884757223285734,0.4778513209939002,-0.0702169761061668,0.1531424820423126,-0.6079957485198975,walking,2026-03-04_14-00-37
1772632841698699500,4.659699462890625,0.4754261762062087,-0.3473246604174375,0.6340273866117,-0.0782551988959312,0.0884180814027786,-0.5831001996994019,walking,2026-03-04_14-00-37
1772632841708648400,4.6696484375,0.4541820203864947,-0.5278055845998227,0.6567611964672804,-0.089080773293972,0.0119305159896612,-0.5593200922012329,walking,2026-03-04_14-00-37
1772632841718597400,4.679597412109375,0.3768777583664283,-0.6616941228248179,0.5495189653664827,-0.0929588675498962,-0.0570727847516536,-0.5394731760025024,walking,2026-03-04_14-00-37
1772632841728546300,4.68954638671875,0.2624138323837891,-0.8078849471315741,0.3224479933142662,-0.0891277715563774,-0.1016222834587097,-0.5233435034751892,walking,2026-03-04_14-00-37
1772632841738495200,4.6994951171875,0.1469059503061696,-0.9585863076653331,0.0580476998209953,-0.0776205211877822,-0.1248325332999229,-0.5084735155105591,walking,2026-03-04_14-00-37
1772632841748444700,4.709444580078125,0.0813484593769535,-1.0709005813334136,-0.1763192744582891,-0.0624620243906974,-0.1510571092367172,-0.5041194558143616,walking,2026-03-04_14-00-37
1772632841758394400,4.719394287109375,0.0507639360209926,-1.1638613352339715,-0.3778519006282091,-0.0429663509130477,-0.172609806060791,-0.5028336644172668,walking,2026-03-04_14-00-37
1772632841768343600,4.729343505859375,0.0805311881773173,-1.1953802168305965,-0.5163099387258291,-0.0129262153059244,-0.1902978271245956,-0.502437949180603,walking,2026-03-04_14-00-37
1772632841778292500,4.73929248046875,0.1663095197604969,-1.1976363982595504,-0.6803741272449493,0.0230496283620595,-0.1952641010284423,-0.5000893473625183,walking,2026-03-04_14-00-37
1772632841788241400,4.749241455078125,0.275576936545968,-1.1585557031065226,-0.8308049272090197,0.07630106061697,-0.1752481013536453,-0.4967215359210968,walking,2026-03-04_14-00-37
1772632841798191600,4.759191650390625,0.4614980790209025,-1.0848933777853846,-0.937504721996188,0.1425128430128097,-0.1479014307260513,-0.4845724403858185,walking,2026-03-04_14-00-37
1772632841808140500,4.769140625,0.7132233806625008,-0.9978044385276734,-0.935664062565565,0.2166743129491806,-0.1217225342988967,-0.4579664766788482,walking,2026-03-04_14-00-37
1772632841818089500,4.77908935546875,0.9907939021784812,-0.8995572686567902,-0.7829109571337699,0.2779515385627746,-0.1054351702332496,-0.4211578369140625,walking,2026-03-04_14-00-37
1772632841828038400,4.789038330078125,1.2639181118100882,-0.8497329150408506,-0.4821159927010536,0.3117492198944092,-0.1044882386922836,-0.37685227394104,walking,2026-03-04_14-00-37
1772632841837987300,4.7989873046875,1.4799362133197485,-0.8293602813586592,-0.1833867286264896,0.315541535615921,-0.1294439285993576,-0.330791562795639,walking,2026-03-04_14-00-37
1772632841847936500,4.8089365234375,1.5767176945522428,-0.8268433301016688,0.0473778372466564,0.2993190586566925,-0.1571479439735412,-0.2966940999031067,walking,2026-03-04_14-00-37
1772632841857885400,4.818885498046875,1.5938094068676232,-0.8190212581738829,0.1662806955248117,0.2625943124294281,-0.1756598502397537,-0.2744995951652527,walking,2026-03-04_14-00-37
1772632841867835600,4.828835693359375,1.5623159519731995,-0.8172844975091517,0.1252402446061372,0.2249667048454284,-0.1805784106254577,-0.2578061521053314,walking,2026-03-04_14-00-37
1772632841877784600,4.83878466796875,1.5191697609469297,-0.769537826950103,-0.0405412692248821,0.1967300027608871,-0.1634217947721481,-0.2433315962553024,walking,2026-03-04_14-00-37
1772632841887733500,4.8487333984375,1.449469324994087,-0.6739186674952506,-0.218694188851118,0.1748425662517547,-0.1447248756885528,-0.2271855175495147,walking,2026-03-04_14-00-37
1772632841897682400,4.858682373046875,1.3856456721201538,-0.5767397113777697,-0.3772591954320669,0.1621339619159698,-0.1379580497741699,-0.2162423133850097,walking,2026-03-04_14-00-37
1772632841907631400,4.86863134765625,1.327804308526218,-0.4698496547155082,-0.5296773698210716,0.1445145159959793,-0.1365285366773605,-0.2050650119781494,walking,2026-03-04_14-00-37
1772632841917580300,4.878580322265625,1.259223816514015,-0.3712371586635709,-0.6685252840191126,0.1133850961923599,-0.1188273131847381,-0.1849898397922516,walking,2026-03-04_14-00-37
1772632841927529200,4.888529296875,1.1075383403137329,-0.1651794562846422,-0.7314940736293792,0.0740206465125083,-0.128702312707901,-0.1537704020738601,walking,2026-03-04_14-00-37
1772632841937478700,4.898478759765625,0.9532027879960836,-0.0155957746692001,-0.8240800028681755,0.032227661460638,-0.1504931002855301,-0.1209165751934051,walking,2026-03-04_14-00-37
1772632841947427600,4.908427490234375,0.7619423303198068,0.1338939450524747,-0.9893366160422564,-0.0031202314421534,-0.1761576384305954,-0.1003248915076255,walking,2026-03-04_14-00-37
1772632841957376500,4.91837646484375,0.5075334156174213,0.3176655813433229,-1.2424755108088257,-0.0192941427230834,-0.1849042624235153,-0.0850996002554893,walking,2026-03-04_14-00-37
1772632841967326500,4.928326416015625,0.2675972629036754,0.5199807361930608,-1.5325696330070495,-0.0127727696672081,-0.1478349268436432,-0.0744566395878791,walking,2026-03-04_14-00-37
1772632841977275400,4.938275390625,0.0886989317376166,0.7340954882994294,-1.754300997596979,0.0179332122206687,-0.0746786966919899,-0.0580481030046939,walking,2026-03-04_14-00-37
1772632841987224300,4.948224365234375,-0.0136335346855223,0.9422403722159564,-1.8497201044350864,0.0700478851795196,0.0343799218535423,-0.0319689288735389,walking,2026-03-04_14-00-37
1772632841997173500,4.958173583984375,-0.0035652912661433,1.107265368591249,-1.7665063991755243,0.1371286511421203,0.1486399173736572,0.0098448321223258,walking,2026-03-04_14-00-37
1772632842007122400,4.968122314453125,0.1127960293030366,1.21071098388806,-1.4182915119200945,0.2057669758796692,0.2376029044389724,0.0687632113695144,walking,2026-03-04_14-00-37
1772632842017071400,4.9780712890625,0.2469350351577624,1.2179939805030822,-0.8622101192981004,0.2543323934078216,0.2813083231449127,0.1195227950811386,walking,2026-03-04_14-00-37
1772632842027020500,4.9880205078125,0.3130324781825765,1.1385003186799585,-0.2321691719740629,0.2762291431427002,0.270384818315506,0.1594130992889404,walking,2026-03-04_14-00-37
1772632842036969500,4.997969482421875,0.3302170564131811,1.018067620486021,0.290983764514327,0.2822878360748291,0.2136600166559219,0.1858260631561279,walking,2026-03-04_14-00-37
1772632842046918400,5.00791845703125,0.2617923029519617,0.9019362727478146,0.5798410383939743,0.2879672646522522,0.1649181842803955,0.1943870484828949,walking,2026-03-04_14-00-37
1772632842056867300,5.017867431640625,0.1438053174097091,0.8814340213365852,0.7329355046093463,0.2969152331352234,0.1201451197266578,0.1935446858406067,walking,2026-03-04_14-00-37
1772632842066816300,5.027816162109375,0.0776696977989748,0.8949461215995251,0.8336363512426614,0.3036180138587951,0.0720951408147811,0.1953426450490951,walking,2026-03-04_14-00-37
1772632842076766500,5.037766357421875,-0.0125648094754666,0.9080730219371616,0.9234826263844966,0.302993506193161,0.0263987611979246,0.1951767355203628,walking,2026-03-04_14-00-37
1772632842086715400,5.04771533203125,-0.1541877413447946,0.9748419344827532,0.9696621937572956,0.2974526882171631,-0.0204775687307119,0.1916192173957824,walking,2026-03-04_14-00-37
1772632842096664300,5.057664306640625,-0.3606393384121358,1.0198268852435053,0.9949690689712762,0.2821094095706939,-0.0432278849184513,0.1739744544029235,walking,2026-03-04_14-00-37
1772632842106613500,5.067613525390625,-0.5934188243042677,1.0345629743434488,0.9965274043291806,0.2568266093730926,-0.0524166338145732,0.138205885887146,walking,2026-03-04_14-00-37
1772632842116562400,5.0775625,-0.7952624891847372,1.0184548662379382,0.9550158287674188,0.2131078988313675,-0.0224653966724872,0.0896399542689323,walking,2026-03-04_14-00-37
1772632842126511400,5.087511474609375,-0.9986008496023714,1.004453228892386,0.9523901564389466,0.1494747251272201,0.0171178001910448,0.0399588868021965,walking,2026-03-04_14-00-37
1772632842136460500,5.09746044921875,-1.1396689240679143,1.0055503764793277,0.941108299446106,0.0707588717341423,0.0738527178764343,-0.0072094248607754,walking,2026-03-04_14-00-37
1772632842146409500,5.107409423828125,-1.1711207317776977,1.005994613115489,0.9001695553362369,-0.0041900007054209,0.1171980053186416,-0.0419487953186035,walking,2026-03-04_14-00-37
1772632842156358400,5.1173583984375,-1.165467089930177,1.0354890031471848,0.8535948511660099,-0.0704419910907745,0.1398870646953582,-0.0743791684508323,walking,2026-03-04_14-00-37
1772632842166307300,5.127307373046875,-1.119993698065355,1.080063035019487,0.8108335678040981,-0.1161393672227859,0.1252445131540298,-0.0903678238391876,walking,2026-03-04_14-00-37
1772632842176257300,5.13725732421875,-0.9729768712632356,1.0647115905001758,0.7165922725737095,-0.1428165137767791,0.0857333391904831,-0.0888000130653381,walking,2026-03-04_14-00-37
1772632842186206500,5.14720654296875,-0.9425243767891078,1.042565079013258,0.5872364093422889,-0.1560607552528381,0.0447309985756874,-0.0875229388475418,walking,2026-03-04_14-00-37
1772632842196155600,5.15715576171875,-1.0200271570559591,1.019436570751667,0.4313987818986177,-0.1601479202508926,0.0105482582002878,-0.0902382954955101,walking,2026-03-04_14-00-37
1772632842206104600,5.1671044921875,-1.0828944590531289,0.9512579375386238,0.2694453019231557,-0.1622863709926605,-0.014238191768527,-0.1051481142640113,walking,2026-03-04_14-00-37
1772632842216053500,5.177053466796875,-1.080348866223544,0.8748321388535201,0.1374199272215366,-0.1720122396945953,-0.0252117477357387,-0.1168268769979476,walking,2026-03-04_14-00-37
1772632842226002400,5.18700244140625,-1.0136115909252317,0.8234691774934529,0.0409469274163246,-0.1888438612222671,-0.032729897648096,-0.1107888966798782,walking,2026-03-04_14-00-37
1772632842235951400,5.196951416015625,-0.8789779334213584,0.7614986051402985,-0.0368704717576503,-0.2043839395046234,-0.0286336876451969,-0.0848718136548996,walking,2026-03-04_14-00-37
1772632842245900300,5.206900390625,-0.7449666455995291,0.6585520254068076,-0.1381061559200286,-0.2216439396142959,-0.0337310768663883,-0.0515595637261867,walking,2026-03-04_14-00-37
1772632842255849500,5.216849365234375,-0.6248968624338507,0.5248582791015506,-0.2275502800017595,-0.2354034185409546,-0.056377001106739,-0.0156380478292703,walking,2026-03-04_14-00-37
1772632842265798400,5.22679833984375,-0.6181785139642656,0.33272169617787,-0.3091092037916183,-0.2447305917739868,-0.0713471844792366,0.0126023907214403,walking,2026-03-04_14-00-37
1772632842275747600,5.23674755859375,-0.7077584663201123,0.1453916367530822,-0.4178402121454477,-0.2464555203914642,-0.0774647295475006,0.0149771319702267,walking,2026-03-04_14-00-37
1772632842285697500,5.246697509765625,-0.797898829037696,0.0026205577619373,-0.5362924040466547,-0.2349851578474044,-0.0649043917655944,0.0024833695497363,walking,2026-03-04_14-00-37
1772632842295646500,5.256646484375,-0.8000757346853613,-0.1309061614133417,-0.6185679516732693,-0.2044733166694641,-0.0279330629855394,-0.0163233410567045,walking,2026-03-04_14-00-37
1772632842305595400,5.266595458984375,-0.6776951172940433,-0.1908266693688929,-0.6768646578192711,-0.1541039943695068,0.0191405154764652,-0.0245570838451385,walking,2026-03-04_14-00-37
1772632842315544300,5.27654443359375,-0.4942151208935305,-0.2007306621372699,-0.5729834275841713,-0.0911844074726104,0.0496827103197574,-0.0192387513816356,walking,2026-03-04_14-00-37
1772632842325493200,5.2864931640625,-0.3045812415057793,-0.1871168550655245,-0.3555488834053277,-0.0238924976438283,0.0567915774881839,-0.0014354090671986,walking,2026-03-04_14-00-37
1772632842335442400,5.2964423828125,-0.1229660525964572,-0.2031932528585195,-0.0513274516552686,0.0317806154489517,0.0351941399276256,0.0195273980498313,walking,2026-03-04_14-00-37
1772632842345391600,5.3063916015625,-0.0535862999653443,-0.2602266610704362,0.2826356228858232,0.0585752576589584,-0.0018169643590226,0.0257260594516992,walking,2026-03-04_14-00-37
1772632842358450400,5.319450439453125,-0.0322065715998411,-0.3217690711393952,0.4800736732184886,0.0477378070354461,-0.0373992584645748,0.0258188787847757,walking,2026-03-04_14-00-37
1772632842368399400,5.3293994140625,-0.0675137395635247,-0.3877816123597323,0.7881956195384263,0.008675092831254,-0.0316359139978885,0.0202395562082529,walking,2026-03-04_14-00-37
1772632842378348300,5.339348388671875,-0.1849875879518687,-0.4522846257999539,0.9272533770948648,-0.0465052314102649,-0.0006133273709565,0.0047227097675204,walking,2026-03-04_14-00-37
1772632842388297500,5.34929736328125,-0.2507998208271339,-0.4904610655896365,0.9851286429584024,-0.1154755130410194,0.0227114353328943,-0.0179708842188119,walking,2026-03-04_14-00-37
1772632842398247400,5.359247314453125,-0.2946975974056869,-0.5103868322871625,1.0024784216880798,-0.1842296868562698,0.0399348065257072,-0.0409274101257324,walking,2026-03-04_14-00-37
1772632842408196400,5.3691962890625,-0.3136712144775316,-0.4723879410214722,0.9379559728950262,-0.2381211519241333,0.0281942654401063,-0.0591112077236175,walking,2026-03-04_14-00-37
1772632842418145500,5.3791455078125,-0.2827291463881731,-0.3655589668966829,0.7672691513657569,-0.2642657458782196,-0.0139630874618887,-0.0620171539485454,walking,2026-03-04_14-00-37
1772632842428094500,5.389094482421875,-0.1978168570498004,-0.2139744668528437,0.5019236859768629,-0.2468462735414505,-0.0566469021141529,-0.0332800485193729,walking,2026-03-04_14-00-37
1772632842438043400,5.39904345703125,-0.1284672438286244,-0.0607271481633186,0.1203536416083574,-0.1981469690799713,-0.0812796503305435,0.0175495464354753,walking,2026-03-04_14-00-37
1772632842447992600,5.40899267578125,-0.1748311913250014,0.0864303292185068,-0.1757359216123819,-0.141461044549942,-0.0802841633558273,0.0708873346447944,walking,2026-03-04_14-00-37
1772632842457941500,5.41894140625,-0.2734915816392749,0.1025344918012619,-0.3378893080741167,-0.0870368853211402,-0.0514290370047092,0.1174693927168846,walking,2026-03-04_14-00-37
1772632842467890400,5.428890380859375,-0.3926693478686734,0.0568156738080084,-0.3521118946939706,-0.0472990535199642,-0.0133596807718276,0.1575084179639816,walking,2026-03-04_14-00-37
1772632842477839400,5.43883935546875,-0.4922250430548563,-0.0387684143334627,-0.2404354805380106,-0.0337185785174369,0.0347339548170566,0.186906635761261,walking,2026-03-04_14-00-37
1772632842487788500,5.44878857421875,-0.5745141808154061,-0.1769048192612826,-0.0290431391328573,-0.0403021797537803,0.0679675489664077,0.2078361511230468,walking,2026-03-04_14-00-37
1772632842497737500,5.458737548828125,-0.5868043380679563,-0.3359010568663477,0.2204366486042737,-0.0586552731692791,0.0849601402878761,0.2207314819097519,walking,2026-03-04_14-00-37
1772632842507687400,5.4686875,-0.5362773160753771,-0.4918097037196159,0.4261135349720716,-0.0765802189707756,0.0876667127013206,0.2260918915271759,walking,2026-03-04_14-00-37
1772632842517636600,5.47863671875,-0.5059538548083976,-0.63358446514979,0.5956622923821211,-0.0930792689323425,0.0771439597010612,0.2237388640642166,walking,2026-03-04_14-00-37
1772632842527585500,5.48858544921875,-0.4377123124269768,-0.7460635739907622,0.6945102046251297,-0.0986769646406173,0.0602997317910194,0.2204346805810928,walking,2026-03-04_14-00-37
1772632842537534500,5.498534423828125,-0.368975826135464,-0.8282831536464392,0.7090151153177022,-0.0908477678894996,0.0453400947153568,0.2134777307510376,walking,2026-03-04_14-00-37
1772632842547483400,5.5084833984375,-0.2924559559587389,-0.8344879996359348,0.6795891143471002,-0.0769697651267051,0.0280620381236076,0.2065678983926773,walking,2026-03-04_14-00-37
1772632842557432300,5.518432373046875,-0.215764966998808,-0.8289907173939048,0.630399843764305,-0.0570986531674861,0.0153091568499803,0.2019663155078888,walking,2026-03-04_14-00-37
1772632842567381500,5.528381591796875,-0.1289274086862802,-0.8028650731429458,0.5379109451591968,-0.0441929772496223,0.017879107967019,0.2002637535333633,walking,2026-03-04_14-00-37
1772632842577330400,5.538330322265625,-0.0814551711544394,-0.7482068696297705,0.4768786765694618,-0.0441023707389831,0.0198440551757812,0.202703908085823,walking,2026-03-04_14-00-37
1772632842587279600,5.548279541015625,-0.0319561405027285,-0.7084659570023417,0.4872469258487224,-0.0608328767120838,-0.0075087384320795,0.199525699019432,walking,2026-03-04_14-00-37
1772632842597228500,5.558228515625,0.005307056899555,-0.6760470578260719,0.3915981019079685,-0.0827918425202369,-0.0278391540050506,0.2054383754730224,walking,2026-03-04_14-00-37
1772632842607177500,5.568177490234375,-0.005160122709535,-0.635296529764682,0.1783218464523553,-0.1010360941290855,-0.0201436839997768,0.2141991108655929,walking,2026-03-04_14-00-37
1772632842617127400,5.57812744140625,-0.1043903488010168,-0.5911459840014577,-0.1191080254614353,-0.110719010233879,0.0016002696938812,0.2203269451856613,walking,2026-03-04_14-00-37
1772632842627076400,5.588076416015625,-0.219529762892425,-0.5685568433135748,-0.390410937950015,-0.1092292368412017,0.0289847571402788,0.2201820760965347,walking,2026-03-04_14-00-37
1772632842637025300,5.598025390625,-0.2728589828241616,-0.5682540609747171,-0.6234399416238069,-0.0967049971222877,0.0428763031959533,0.2308921962976455,walking,2026-03-04_14-00-37
1772632842646974500,5.607974365234375,-0.2672998873922974,-0.5341559765398503,-0.833594265666604,-0.0665622800588607,0.0478628054261207,0.2633097767829895,walking,2026-03-04_14-00-37
1772632842656923600,5.617923583984375,-0.3037921369547024,-0.5125146380960941,-1.0345236652463674,-0.0195860303938388,0.0544255152344703,0.3055537641048431,walking,2026-03-04_14-00-37
1772632842666872600,5.62787255859375,-0.3991487730158493,-0.5138410643942654,-1.2047761870115994,0.045403353869915,0.0692153796553611,0.3445807993412018,walking,2026-03-04_14-00-37
1772632842676821500,5.637821533203125,-0.5483714758317917,-0.5764056571178138,-1.319561088576913,0.1165509447455406,0.0972033366560936,0.3771722316741943,walking,2026-03-04_14-00-37
1772632842686770400,5.6477705078125,-0.6431362834796309,-0.7154254207514226,-1.3835504534065723,0.1964015662670135,0.1402501314878463,0.4085533320903778,walking,2026-03-04_14-00-37
1772632842697341400,5.658341552734375,-0.6870163417384028,-0.9291600874990223,-1.3202607612788675,0.2772274613380432,0.1855984330177307,0.4347497820854187,walking,2026-03-04_14-00-37
1772632842707290400,5.668290283203125,-0.7613928066782653,-1.0332466310478747,-1.0737333936065434,0.331009179353714,0.1578248143196106,0.4494067728519439,walking,2026-03-04_14-00-37
1772632842717239300,5.6782392578125,-0.7424366887304932,-1.1737276994057,-0.6760621092647313,0.3490568995475769,0.0641116425395011,0.4452080428600311,walking,2026-03-04_14-00-37
1772632842727188200,5.688188232421875,-0.752169416585192,-1.381683052099496,-0.3909562968730926,0.3458448946475982,-0.0361346155405044,0.4073653221130371,walking,2026-03-04_14-00-37
1772632842737137700,5.6981376953125,-0.9075079354003072,-1.3970369808368384,-0.3136339877396821,0.3368586003780365,-0.0983428582549095,0.3488090634346008,walking,2026-03-04_14-00-37
1772632842747086600,5.708086669921875,-1.085077867506817,-1.281391516919434,-0.4142144228637218,0.3253569006919861,-0.1082220450043678,0.2806057631969452,walking,2026-03-04_14-00-37
1772632842757035500,5.718035400390625,-1.1094649244621395,-1.1437611618176102,-0.5488911888569593,0.2976261973381042,-0.0977464988827705,0.2139055728912353,walking,2026-03-04_14-00-37
1772632842766985500,5.7279853515625,-1.0789423604264854,-0.9369869817323982,-0.5633657044112682,0.2592477202415466,-0.0799956321716308,0.1555739939212799,walking,2026-03-04_14-00-37
1772632842776934400,5.737934326171875,-0.9667401688307524,-0.6746078188031911,-0.5587094030380249,0.2084007859230041,-0.086056187748909,0.1050002947449684,walking,2026-03-04_14-00-37
1772632842786883300,5.74788330078125,-0.8063089299865066,-0.3601936404712498,-0.5354103605151176,0.1578386127948761,-0.1217038705945015,0.0674187242984771,walking,2026-03-04_14-00-37
1772632842796832500,5.75783251953125,-0.6904601255167275,0.0241935071446001,-0.5710322935163974,0.1061969846487045,-0.1632238775491714,0.0481928288936615,walking,2026-03-04_14-00-37
1772632842806781200,5.76778125,-0.6058612860416993,0.3977352894887327,-0.6684247462540864,0.0548125505447387,-0.1991696804761886,0.038452286273241,walking,2026-03-04_14-00-37
1772632842816730400,5.77773046875,-0.5474226141417399,0.7128180147320031,-0.8211030328840017,0.0085387984290719,-0.2134607434272766,0.0252286251634359,walking,2026-03-04_14-00-37
1772632842826679300,5.78767919921875,-0.5329635153522715,0.9682311380408704,-1.0094745641857386,-0.0191343575716018,-0.1858526021242141,0.015620476566255,walking,2026-03-04_14-00-37
1772632842836628500,5.79762841796875,-0.4797842618178576,1.2259301803298297,-1.2464473370492457,-0.0172317959368228,-0.1180908679962158,0.0264440961182117,walking,2026-03-04_14-00-37
1772632842846577400,5.807577392578125,-0.3617705709317699,1.4751638843514023,-1.4094248993754386,0.0136473197489976,-0.0193614363670349,0.0675566643476486,walking,2026-03-04_14-00-37
1772632842856526300,5.8175263671875,-0.2164252940710634,1.6563154012717305,-1.4089081820249556,0.0605122968554496,0.0825667902827262,0.1300197690725326,walking,2026-03-04_14-00-37
1772632842866476300,5.827476318359375,-0.0740777011889964,1.7350380787223576,-1.242198447433114,0.1138098239898681,0.1589461266994476,0.2027552127838134,walking,2026-03-04_14-00-37
1772632842876425200,5.83742529296875,-0.0070747972244396,1.6764321604967116,-0.8904086243003606,0.1652450561523437,0.2075016647577285,0.2674782872200012,walking,2026-03-04_14-00-37
1772632842886374100,5.8473740234375,0.0382215575730428,1.4496717156983912,-0.4658925876528024,0.2061744034290313,0.2143424600362777,0.3222196698188782,walking,2026-03-04_14-00-37
1772632842896323300,5.8573232421875,0.1027313660802319,1.1410523412503302,-0.015477555117011,0.2314331531524658,0.1897580325603485,0.3632581830024719,walking,2026-03-04_14-00-37
1772632842906272500,5.8672724609375,0.0730619848078116,0.8066589124679565,0.3949146791100502,0.2388777285814285,0.1526416093111038,0.3729132413864136,walking,2026-03-04_14-00-37
1772632842916221400,5.877221435546875,-0.0140539520546793,0.4926519997626543,0.7201134324371814,0.2273393124341964,0.1120947152376174,0.3603915870189667,walking,2026-03-04_14-00-37
1772632842926170400,5.88717041015625,-0.1346514123562723,0.2599814541377127,0.9451005839526652,0.2071641534566879,0.0900880619883537,0.3222194910049438,walking,2026-03-04_14-00-37
1772632842936119300,5.897119384765625,-0.2450004503659903,0.1053244147807359,1.1361322743743658,0.1739276349544525,0.0755586475133895,0.262732446193695,walking,2026-03-04_14-00-37
1772632842946068200,5.907068115234375,-0.3161140410523861,0.0336111777007579,1.2900088308781386,0.1362095773220062,0.0468265376985073,0.1876189559698104,walking,2026-03-04_14-00-37
1772632842956017200,5.91701708984375,-0.295112461816892,0.0320192323341965,1.3573264633476734,0.1082426607608795,0.0218964219093322,0.1102874055504798,walking,2026-03-04_14-00-37
1772632842965966300,5.92696630859375,-0.1532922172771766,0.1618864060886204,1.3195914837151763,0.0932997539639473,0.0026880714576691,0.0528147146105766,walking,2026-03-04_14-00-37
1772632842975916300,5.936916259765625,0.0627931773150339,0.4161382305331528,1.2697171534776688,0.0849331691861152,-0.0307100992649793,0.021089008077979,walking,2026-03-04_14-00-37
1772632842985865500,5.946865478515625,0.2743842561626807,0.6686326899163425,1.1815648227721451,0.0838948935270309,-0.0577084384858608,0.0138200856745243,walking,2026-03-04_14-00-37
1772632842995814400,5.956814453125,0.426541331930086,0.8873137270249426,1.1297954725682735,0.0676890313625335,-0.1292721033096313,0.0162094738334417,walking,2026-03-04_14-00-37
1772632843005763300,5.966763427734375,0.5894856130411849,1.0557214977063238,1.1714596083432436,0.0397567525506019,-0.2076918631792068,0.0264247022569179,walking,2026-03-04_14-00-37
1772632843015712300,5.976712158203125,0.6132439801715314,1.1631181887164712,1.114551726207137,0.0045481636188924,-0.261900782585144,0.0398273281753063,walking,2026-03-04_14-00-37
1772632843025661200,5.9866611328125,0.5823023139409721,1.2983655942045151,0.9481108716845512,-0.0376613810658454,-0.2850163578987121,0.0581420063972473,walking,2026-03-04_14-00-37
1772632843035610400,5.9966103515625,0.4671287053190171,1.3500086876802146,0.762241094070673,-0.0874230787158012,-0.2621784210205078,0.0701398178935051,walking,2026-03-04_14-00-37
1772632843045559300,6.006559326171875,0.2758770154710859,1.299410719343275,0.5235772993803024,-0.1288744807243347,-0.194249153137207,0.0582650005817413,walking,2026-03-04_14-00-37
1772632843055508500,6.016508544921875,0.0991725410874933,1.184979453521222,0.3010515695422888,-0.1613559871912002,-0.1071837693452835,0.029104983434081,walking,2026-03-04_14-00-37
1772632843065457400,6.02645751953125,-0.0100108689426444,1.083853805604577,0.1694721850425004,-0.1834932267665863,-0.0413166582584381,-0.009291673079133,walking,2026-03-04_14-00-37
1772632843075406300,6.03640625,-0.0293012055471539,0.960489291742444,0.1656406440556049,-0.2065162509679794,-0.0257161278277635,-0.0521515198051929,walking,2026-03-04_14-00-37
1772632843085356300,6.046356201171875,0.0013936280491761,0.8346551728963851,0.1915256114184856,-0.2272331416606903,-0.0631588846445083,-0.1052959114313125,walking,2026-03-04_14-00-37
1772632843095305500,6.056305419921875,0.0024784276111982,0.7424174725733697,0.1802531067758798,-0.2471701204776764,-0.1270931214094162,-0.1643296629190445,walking,2026-03-04_14-00-37
1772632843105254400,6.06625439453125,0.0122731147862039,0.7282705815382301,0.0929039091467857,-0.2657229602336883,-0.1781785488128662,-0.2149563431739807,walking,2026-03-04_14-00-37
1772632843115203300,6.076203369140625,0.041181028433144,0.7646351496003567,-0.1101063883602619,-0.2885355949401855,-0.1850708127021789,-0.2511068880558014,walking,2026-03-04_14-00-37
1772632843125152300,6.08615234375,0.0266703638532198,0.8331067744106054,-0.3238905933380127,-0.3207516968250274,-0.1385315060615539,-0.2762364149093628,walking,2026-03-04_14-00-37
1772632843135101400,6.096101318359375,0.0472988354600034,0.8637985575333237,-0.4880079733490943,-0.3499279618263244,-0.0578084252774715,-0.2841009795665741,walking,2026-03-04_14-00-37
1772632843145050400,6.10605029296875,0.1703477623006329,0.8670929229035973,-0.6318272462189197,-0.361988753080368,0.0482007265090942,-0.2656912803649902,walking,2026-03-04_14-00-37
1772632843154999300,6.115999267578125,0.2982290960000828,0.8711744931288063,-0.7802771014988422,-0.3401069045066833,0.1735615879297256,-0.2145532667636871,walking,2026-03-04_14-00-37
1772632843164948200,6.1259482421875,0.3760821144767105,0.8984761954218149,-0.8140542834162712,-0.2978164255619049,0.2658914923667907,-0.1508234143257141,walking,2026-03-04_14-00-37
1772632843174897400,6.1358974609375,0.4362372714383527,0.7672143524385988,-0.645032764750719,-0.2452861070632934,0.303196519613266,-0.0928378775715828,walking,2026-03-04_14-00-37
1772632843184847400,6.145847412109375,0.4842840574551373,0.5535546506233513,-0.3342062356472015,-0.1909715086221695,0.279073417186737,-0.0501986779272556,walking,2026-03-04_14-00-37
1772632843194796300,6.15579638671875,0.431073093608208,0.3022834494248032,0.025972061124444,-0.1414148658514022,0.2303090691566467,-0.029980756342411,walking,2026-03-04_14-00-37
1772632843204745200,6.1657451171875,0.30488300093133,0.0750686849877238,0.3182838593721389,-0.103515475988388,0.1595623642206192,-0.0276256259530782,walking,2026-03-04_14-00-37
1772632843214694100,6.175694091796875,0.2530279086727648,-0.0964183470085263,0.5884107138186693,-0.0810615718364715,0.0714349001646041,-0.0337149426341056,walking,2026-03-04_14-00-37
1772632843224643300,6.185643310546875,0.2665045722961425,-0.2389864507734775,0.7623164973944425,-0.0687191560864448,0.0047687999904155,-0.0464335419237613,walking,2026-03-04_14-00-37
1772632843234592500,6.195592529296875,0.3028264337277039,-0.3145440883219242,0.8631880244195461,-0.0746340379118919,-0.0458746701478958,-0.055991094559431,walking,2026-03-04_14-00-37
1772632843244541400,6.20554150390625,0.3253827681245282,-0.335103330617398,0.9722744220823047,-0.1063083037734031,-0.104934349656105,-0.068261981010437,walking,2026-03-04_14-00-37
1772632843254490400,6.215490478515625,0.3340115898579359,-0.303090528023988,1.002108419331908,-0.1462187021970749,-0.1468860656023025,-0.0773950368165969,walking,2026-03-04_14-00-37
1772632843264439300,6.225439208984375,0.3370684201452881,-0.2741574251368642,0.8911264171808958,-0.184470072388649,-0.1633842438459396,-0.0816180706024169,walking,2026-03-04_14-00-37
1772632843274388200,6.23538818359375,0.2889413171675987,-0.1876394176349043,0.6528384700655937,-0.2174788862466812,-0.1684319972991943,-0.0878591910004615,walking,2026-03-04_14-00-37
1772632843284338200,6.245338134765625,0.2384040112430229,-0.1378911979950964,0.3715075000375509,-0.2276951372623443,-0.1541435867547989,-0.0960250124335289,walking,2026-03-04_14-00-37
1772632843294287000,6.255287109375,0.2808431682447903,-0.1116506951928138,0.026257307806611,-0.2102572917938232,-0.1233910024166107,-0.0910712704062461,walking,2026-03-04_14-00-37
1772632843304236300,6.265236328125,0.2642853436104022,-0.0792087074019014,-0.2829945193260908,-0.1710506528615951,-0.0814857259392738,-0.0897396281361579,walking,2026-03-04_14-00-37
1772632843314185500,6.275185546875,0.2424689408606849,-0.0737986650519073,-0.4726525833070278,-0.1233283951878547,-0.0463407896459102,-0.0961357429623603,walking,2026-03-04_14-00-37
1772632843324134400,6.285134521484375,0.2033548366283998,-0.1535088922351598,-0.5089946472764015,-0.082360602915287,-0.0215974617749452,-0.1122826933860778,walking,2026-03-04_14-00-37
1772632843334083300,6.295083251953125,0.137092540164385,-0.2487050039723515,-0.4202531185060739,-0.0611993931233882,-0.0042911749333143,-0.1440893560647964,walking,2026-03-04_14-00-37
1772632843344032300,6.3050322265625,0.0320714374454692,-0.3558127950385212,-0.2785638434022665,-0.0606979168951511,0.0032879151403903,-0.1913871020078659,walking,2026-03-04_14-00-37
1772632843353981200,6.314981201171875,-0.0246975111439824,-0.4913036538936197,-0.1300654728055,-0.073270708322525,0.0082038436084985,-0.2405738234519958,walking,2026-03-04_14-00-37
1772632843363930000,6.32493017578125,0.026669724532403,-0.5590158386386931,-0.0658715253144502,-0.0779886394739151,0.0229627285152673,-0.2752967178821563,walking,2026-03-04_14-00-37
1772632843373879600,6.334879638671875,0.1232474268211051,-0.5380333294298499,-0.1214618951112031,-0.0675368010997772,0.041449062526226,-0.2944523096084595,walking,2026-03-04_14-00-37
1772632843383828500,6.344828369140625,0.2159641610990278,-0.4951809337183833,-0.2095189487487077,-0.0404389426112175,0.061546828597784,-0.2940703332424164,walking,2026-03-04_14-00-37
1772632843393777400,6.35477734375,0.2961591578582301,-0.4830284313708543,-0.270325007367134,-0.0052375453524291,0.0665072351694107,-0.2810509204864502,walking,2026-03-04_14-00-37
1772632843403727400,6.364727294921875,0.317113171624951,-0.4822529900189489,-0.2522387310564518,0.0304497610777616,0.0602944195270538,-0.272192507982254,walking,2026-03-04_14-00-37
1772632843413676300,6.37467626953125,0.2779719053911045,-0.5519033032197505,-0.1646142236173153,0.0540309883654117,0.0354447290301322,-0.2668531239032745,walking,2026-03-04_14-00-37
1772632843423625200,6.384625244140625,0.2166814425229094,-0.6271448605563491,-0.0845066676795482,0.0760884210467338,0.0006037149578332,-0.2625582218170166,walking,2026-03-04_14-00-37
1772632843433574400,6.394574462890625,0.1681775421220809,-0.6959833459176122,-0.0284931040346622,0.0909235626459121,-0.0130527094006538,-0.2538110613822937,walking,2026-03-04_14-00-37
1772632843443523300,6.4045234375,0.1150177422068081,-0.7665899369299412,0.0001899696141481,0.0970792174339294,-0.031896237283945,-0.2486260086297989,walking,2026-03-04_14-00-37
1772632843453472300,6.41447216796875,0.0875860933911986,-0.8299918572604655,0.0238157598733901,0.0994419753551483,-0.0620911605656147,-0.2450938522815704,walking,2026-03-04_14-00-37
1772632843463421400,6.42442138671875,0.1247889571746811,-0.8827028722286224,-0.0199164143472909,0.1110919788479805,-0.0834611728787422,-0.2408116161823272,walking,2026-03-04_14-00-37
1772632843473370400,6.434370361328125,0.1374999701878055,-0.9020096302449704,-0.0701549017220735,0.1207941398024559,-0.0988371968269348,-0.2445800006389618,walking,2026-03-04_14-00-37
1772632843483319300,6.4443193359375,0.0614307481217198,-0.930287045702338,-0.1421744282722473,0.1428706496953964,-0.0836419612169265,-0.258832573890686,walking,2026-03-04_14-00-37
1772632843493268200,6.454268310546875,0.0373025795646011,-0.9277589885294436,-0.2015636058300733,0.1644212156534195,-0.0593030676245689,-0.2814124524593353,walking,2026-03-04_14-00-37
1772632843503218400,6.464218505859375,0.1295100491461344,-0.897307590033859,-0.1434527776449918,0.1739061325788498,-0.0570030882954597,-0.302213966846466,walking,2026-03-04_14-00-37
1772632843513167400,6.47416748046875,0.3244915549058467,-0.8390190671943127,0.0310252528607845,0.1721796095371246,-0.0742995217442512,-0.3088380396366119,walking,2026-03-04_14-00-37
1772632843523116300,6.4841162109375,0.5463544369209558,-0.7474732946582138,0.1142827972620725,0.1674671769142151,-0.0935371816158294,-0.2987377345561981,walking,2026-03-04_14-00-37
1772632843533065200,6.494065185546875,0.7605936921898275,-0.6523201452799141,0.1500795023083686,0.1597842127084732,-0.1200580075383186,-0.2771248519420624,walking,2026-03-04_14-00-37
1772632843543014400,6.504014404296875,0.9113852152250708,-0.5811643959522247,0.1534475174367428,0.143738180398941,-0.1376011967658996,-0.2501604557037353,walking,2026-03-04_14-00-37
1772632843552963300,6.51396337890625,0.9956168653555214,-0.5329322799637913,0.0856874018967151,0.1238358542323112,-0.1437472403049469,-0.2212640941143036,walking,2026-03-04_14-00-37
1772632843562912300,6.523912353515625,0.9515952797342092,-0.503424738189578,-0.0309206234425306,0.1059874221682548,-0.1265692710876464,-0.1995860636234283,walking,2026-03-04_14-00-37
1772632843572861400,6.533861328125,0.931142274292186,-0.4971884741485118,-0.1430436123222112,0.0892284139990806,-0.1138790473341941,-0.1773808896541595,walking,2026-03-04_14-00-37
1772632843582810400,6.543810302734375,0.9212178232576698,-0.4910992173627018,-0.2731219446092844,0.0839998200535774,-0.1150473579764366,-0.1584206521511078,walking,2026-03-04_14-00-37
1772632843592759300,6.55375927734375,0.8690008023515343,-0.4460550837606191,-0.4549012380391359,0.0977523848414421,-0.1163009107112884,-0.1347235739231109,walking,2026-03-04_14-00-37
1772632843602709200,6.563709228515625,0.7916107617441565,-0.3888678001612424,-0.6631628802031279,0.1221689209342002,-0.116514928638935,-0.1087572947144508,walking,2026-03-04_14-00-37
1772632843612658200,6.573658203125,0.6935329570908099,-0.338325069142878,-0.8247294066876173,0.1547236740589141,-0.1007876321673393,-0.0861300081014633,walking,2026-03-04_14-00-37
1772632843622607000,6.583607177734375,0.6093227150745689,-0.3455408457405865,-0.9338520447075368,0.1843223124742508,-0.0804488137364387,-0.0676922723650932,walking,2026-03-04_14-00-37
1772632843632556500,6.593556640625,0.4846392275683581,-0.3543161267399787,-0.921383608278632,0.1934053003787994,-0.0759715065360069,-0.0602585934102535,walking,2026-03-04_14-00-37
1772632843642505500,6.60350537109375,0.3747204342020675,-0.3834164028875529,-0.7873737817615271,0.1777740865945816,-0.0901215523481369,-0.0643130093812942,walking,2026-03-04_14-00-37
1772632843652454400,6.613454345703125,0.3110995373586192,-0.4411183580107987,-0.633520021611452,0.1383374631404876,-0.1136793419718742,0.0140925860032439,walking,2026-03-04_14-00-37
1772632843662403300,6.6234033203125,0.2262259360628202,-0.4252402592688798,-0.5560808081001043,0.0855276361107826,-0.1182107999920845,-0.1274619549512863,walking,2026-03-04_14-00-37
