time,seconds_elapsed,acc_x,acc_y,acc_z,gyr_x,gyr_y,gyr_z,activity,session
1772632867798602000,0.06560205078125,-0.4732749529890716,0.6882192877873778,-1.6325614545881748,-0.0144361751154065,0.1459186226129531,0.1572158932685852,walking,2026-03-04_14-01-07
1772632867808551200,0.07555126953125,-0.2028199625667184,0.6767417620919645,-1.5927555139005185,0.0733099207282066,0.1679171323776245,0.2176680564880371,walking,2026-03-04_14-01-07
1772632867818501000,0.085501220703125,-0.0914171046551317,0.5599601337514818,-1.3694617222994565,0.169323980808258,0.1778314411640167,0.2603744566440582,walking,2026-03-04_14-01-07
1772632867828450600,0.095450439453125,-0.0609260317362844,0.4022735174402594,-0.9903186128169298,0.2447465658187866,0.145976036787033,0.3001405000686645,walking,2026-03-04_14-01-07
1772632867838399700,0.105399658203125,-0.0349311742581427,0.1765364243403077,-0.5608130973190069,0.2904794216156006,0.1050835996866226,0.329723447561264,walking,2026-03-04_14-01-07
1772632867848348700,0.1153486328125,-0.1229253917925059,-0.0467661350890994,-0.1584007559299469,0.3024322390556335,0.0633401498198509,0.3396194875240326,walking,2026-03-04_14-01-07
1772632867858297600,0.125297607421875,-0.3099730540793389,-0.2407151742622256,0.130035662189126,0.2917602360248565,0.0472299270331859,0.312198132276535,walking,2026-03-04_14-01-07
1772632867868246500,0.13524658203125,-0.4479601136643439,-0.3585889817535877,0.2811187885820865,0.2728099822998047,0.0551376529037952,0.2749458253383636,walking,2026-03-04_14-01-07
1772632867878195700,0.14519580078125,-0.524827957028523,-0.369246861629188,0.4073077122151851,0.2470382153987884,0.0601235814392566,0.2261219322681427,walking,2026-03-04_14-01-07
1772632867888144600,0.15514453125,-0.5818429528009146,-0.2773169120810926,0.5404010084092616,0.2219048887491226,0.0630993992090225,0.1745735257863998,walking,2026-03-04_14-01-07
1772632867898093800,0.16509375,-0.5041957956273109,-0.1915216658957302,0.5683113441199064,0.2089022845029831,0.0582420527935028,0.1241345927119255,walking,2026-03-04_14-01-07
1772632867908042800,0.175042724609375,-0.3541409163035452,-0.010238777680695,0.5994394728332758,0.2104841917753219,0.0596583224833011,0.0888663530349731,walking,2026-03-04_14-01-07
1772632867917991700,0.18499169921875,-0.1773074087128043,0.2454173606038093,0.6252887843608855,0.2214143872261047,0.06256914883852,0.0748838558793068,walking,2026-03-04_14-01-07
1772632867927940600,0.194940673828125,-0.0056448009539395,0.5061645384170115,0.6555401302397251,0.2436312884092331,0.0679255649447441,0.0765320882201194,walking,2026-03-04_14-01-07
1772632867937889500,0.2048896484375,0.1414488904766738,0.7646297427728772,0.753497815644741,0.2646422982215881,0.072086215019226,0.0836096778512001,walking,2026-03-04_14-01-07
1772632867947838500,0.21483837890625,0.2380602758392691,0.967107102447003,0.9193564863651992,0.2745396494865417,0.0718159079551696,0.0857870802283287,walking,2026-03-04_14-01-07
1772632867957787600,0.22478759765625,0.2664744694188237,1.04904245833382,1.014676809003949,0.2728616893291473,0.0433268584311008,0.0876063406467437,walking,2026-03-04_14-01-07
1772632867967736800,0.23473681640625,0.3590810761194676,1.1375338117353615,1.2419435958892109,0.2466532588005066,-0.0131601225584745,0.0908250361680984,walking,2026-03-04_14-01-07
1772632867977686500,0.2446865234375,0.3853855110034346,1.181507247366011,1.369388072541356,0.2011678516864776,-0.0920608639717102,0.0852952972054481,walking,2026-03-04_14-01-07
1772632867987635700,0.2546357421875,0.4057922661509364,1.1848472054436805,1.3517308352977038,0.1454294770956039,-0.1503822356462478,0.0736444965004921,walking,2026-03-04_14-01-07
1772632867997584600,0.264584716796875,0.3667240651533007,1.23320280168131,1.241575931620598,0.0784786343574523,-0.1818581223487854,0.0605937764048576,walking,2026-03-04_14-01-07
1772632868007533600,0.274533447265625,0.3092752080082893,1.2810172767795622,1.0744517710089685,0.005485916044563,-0.1741463989019394,0.049743790179491,walking,2026-03-04_14-01-07
1772632868017482800,0.284482666015625,0.2321990556556731,1.3019926986604928,0.9431775069355964,-0.0806439146399498,-0.1603093594312667,0.0393645130097866,walking,2026-03-04_14-01-07
1772632868027431700,0.294431640625,0.1310510497767478,1.3134504967421292,0.7347054368913173,-0.1533601880073547,-0.1333685666322708,0.0287992190569639,walking,2026-03-04_14-01-07
1772632868037380600,0.304380615234375,0.0762660780787467,1.2858435278922318,0.4659282434880733,-0.2151390016078949,-0.1062455549836158,0.0195567980408668,walking,2026-03-04_14-01-07
1772632868047329800,0.314329833984375,0.0011050386324524,1.2146794491276145,0.2320452533334493,-0.2615267336368561,-0.0881805345416069,-0.0030515766702592,walking,2026-03-04_14-01-07
1772632868057278700,0.32427880859375,-0.0849180249594152,1.1179507209956645,0.0391325714707374,-0.2875470519065857,-0.0950293391942977,-0.045886218547821,walking,2026-03-04_14-01-07
1772632868067227600,0.3342275390625,-0.1186365354921668,1.0809240357629954,-0.1464694951176643,-0.3044208586215973,-0.1136243343353271,-0.086213931441307,walking,2026-03-04_14-01-07
1772632868077176600,0.344176513671875,-0.1390524968594312,1.0559624668553471,-0.3316758403867483,-0.3144402801990509,-0.1165760308504104,-0.1130013987421989,walking,2026-03-04_14-01-07
1772632868087125500,0.35412548828125,-0.1237553398106247,1.0438146406829356,-0.482510544976592,-0.3244907855987549,-0.0838564336299896,-0.1241187676787376,walking,2026-03-04_14-01-07
1772632868097074700,0.36407470703125,-0.0626522710070014,0.9798875274345278,-0.6467360615372657,-0.3262626528739929,-0.016247684136033,-0.1204235181212425,walking,2026-03-04_14-01-07
1772632868107023600,0.374023681640625,0.0085800506882369,0.8678118848279118,-0.84234865000844,-0.3048596382141113,0.1049083024263382,-0.1033324152231216,walking,2026-03-04_14-01-07
1772632868116972800,0.383972900390625,0.0745687726415693,0.8232467669144272,-0.9040922817379236,-0.2676591277122497,0.2379202544689178,-0.0636058449745178,walking,2026-03-04_14-01-07
1772632868126922500,0.393922607421875,0.174908677008003,0.7364907128728926,-0.6883394070357084,-0.2292533963918686,0.3316291570663452,0.0001110862940549,walking,2026-03-04_14-01-07
1772632868136871700,0.40387158203125,0.2691191387087107,0.5099591083943844,-0.2976303629219531,-0.1927748024463653,0.3625767230987549,0.0564298778772354,walking,2026-03-04_14-01-07
1772632868146820600,0.413820556640625,0.3050679655767977,0.2403464870803058,0.1361813253372907,-0.1560966819524765,0.3312518298625946,0.0909697413444519,walking,2026-03-04_14-01-07
1772632868156769800,0.423769775390625,0.2766787603080272,-0.0426829574286937,0.5573381146848202,-0.1323001384735107,0.2485893219709396,0.1112242117524147,walking,2026-03-04_14-01-07
1772632868166718700,0.43371875,0.2319086944069713,-0.3021576310880482,0.8743979852199554,-0.1165781617164611,0.1490145325660705,0.1161521300673484,walking,2026-03-04_14-01-07
1772632868176667600,0.443667724609375,0.2090987505752593,-0.4901933545641601,1.000778632032871,-0.1003016829490661,0.0696650296449661,0.1095680072903633,walking,2026-03-04_14-01-07
1772632868186616600,0.453616455078125,0.1429426361657679,-0.6359028250947594,1.0610621280819177,-0.0915036648511886,-0.0001792993862181,0.0846304297447204,walking,2026-03-04_14-01-07
1772632868196565500,0.4635654296875,0.098056834930554,-0.7258059449903667,1.0936199973374603,-0.0922349169850349,-0.0562793277204036,0.0509677156805992,walking,2026-03-04_14-01-07
1772632868206514700,0.4735146484375,0.1406619778826832,-0.7789632424212992,1.0964210262328389,-0.1094304174184799,-0.107323333621025,0.0213941112160682,walking,2026-03-04_14-01-07
1772632868216463600,0.483463623046875,0.1395885034322738,-0.750004712831974,1.0609902318894862,-0.1429152190685272,-0.1746288537979126,-0.012127143330872,walking,2026-03-04_14-01-07
1772632868226412800,0.493412841796875,0.1084344365600496,-0.6683591336719691,0.9076473438709972,-0.1766220480203628,-0.2244864255189895,-0.0457812435925006,walking,2026-03-04_14-01-07
1772632868236361700,0.50336181640625,0.0872531168434768,-0.5559228410594165,0.5871195049643516,-0.2031425684690475,-0.2406612783670425,-0.0687950626015663,walking,2026-03-04_14-01-07
1772632868246310700,0.513310546875,0.0467707381989806,-0.4485349178776144,0.2151613385498523,-0.2151089459657669,-0.2207528203725814,-0.0852003991603851,walking,2026-03-04_14-01-07
1772632868256259600,0.523259521484375,-0.0013256225805729,-0.3437134841829538,-0.1865408087432384,-0.2032783925533294,-0.1620548814535141,-0.0986464321613311,walking,2026-03-04_14-01-07
1772632868266208800,0.533208740234375,-0.0591654518045485,-0.270824042930454,-0.5324690463662147,-0.1659941375255584,-0.0769823342561721,-0.1121518611907959,walking,2026-03-04_14-01-07
1772632868276157700,0.54315771484375,-0.1022563324470073,-0.2288331594191491,-0.7062316220790147,-0.1134145557880401,0.0006062772590667,-0.1367518603801727,walking,2026-03-04_14-01-07
1772632868286107600,0.553107666015625,-0.1129163312144577,-0.2581225283980369,-0.700878570613265,-0.0616592094302177,0.0521725304424762,-0.1668040305376052,walking,2026-03-04_14-01-07
1772632868296056800,0.563056884765625,-0.088165336317569,-0.3132930653475225,-0.5181085125803947,-0.0253297854214906,0.0715868026018142,-0.2016423642635345,walking,2026-03-04_14-01-07
1772632868306005800,0.573005859375,-0.0478919242486357,-0.3813061327353119,-0.2531388947665691,-0.0110251493752002,0.0580534115433692,-0.2403897643089294,walking,2026-03-04_14-01-07
1772632868315954700,0.58295458984375,-0.0331647491075098,-0.4617639634154736,-0.037066871112585,-0.0126108396798372,0.0445210300385952,-0.2801675498485565,walking,2026-03-04_14-01-07
1772632868325903600,0.592903564453125,-0.0395227398321032,-0.5391095072939992,0.0934749870330095,-0.0297884959727525,0.0442674979567527,-0.323318213224411,walking,2026-03-04_14-01-07
1772632868335852500,0.6028525390625,-0.0682778558038175,-0.5502306207671761,0.1355704999625682,-0.0457450076937675,0.0660222396254539,-0.3606305420398712,walking,2026-03-04_14-01-07
1772632868345801500,0.612801513671875,-0.111272655660659,-0.5210423740752042,0.159871997526288,-0.064338132739067,0.0908452942967414,-0.392920047044754,walking,2026-03-04_14-01-07
1772632868355750700,0.622750732421875,-0.1249956952605396,-0.5034973650343716,0.1711737282633781,-0.0781131088733673,0.109862670302391,-0.4163389801979065,walking,2026-03-04_14-01-07
1772632868365699800,0.632699951171875,-0.0435534566529095,-0.4889430622421205,0.1177636251151561,-0.0699390694499015,0.1099329814314842,-0.4243414998054504,walking,2026-03-04_14-01-07
1772632868375648800,0.642648681640625,0.0296209390208125,-0.4106435786396264,0.0704611911922693,-0.0431582331657409,0.0898783579468727,-0.4160522222518921,walking,2026-03-04_14-01-07
1772632868385597700,0.65259765625,0.0773600838605314,-0.3574678687691688,0.0525830046743154,-0.00532509945333,0.0542005188763141,-0.3938169777393341,walking,2026-03-04_14-01-07
1772632868395546600,0.662546630859375,0.1122575750447809,-0.3793528067104518,0.0624117402493953,0.0274239145219326,0.0151167958974838,-0.3665938377380371,walking,2026-03-04_14-01-07
1772632868405495600,0.67249560546875,0.0393896149717271,-0.4607314054973423,0.0989355905264616,0.0589626617729663,-0.0211285594850778,-0.3501687943935394,walking,2026-03-04_14-01-07
1772632868415444700,0.68244482421875,-0.0324742095600813,-0.5489817897498608,0.1685936486423015,0.0759971737861633,-0.0676266551017761,-0.3511764407157898,walking,2026-03-04_14-01-07
1772632868425393700,0.6923935546875,-0.0823698017813265,-0.6435227985791862,0.2671680046409368,0.0764935836195945,-0.1069117411971092,-0.3556566834449768,walking,2026-03-04_14-01-07
1772632868435343600,0.702343505859375,-0.1460388486154377,-0.7410100899934768,0.363030763593316,0.0552652291953563,-0.1335089951753616,-0.366057813167572,walking,2026-03-04_14-01-07
1772632868445292800,0.712292724609375,-0.0664802317973226,-0.8108687852479517,0.4288847532510757,0.0204406697303056,-0.1654030084609985,-0.3661142587661743,walking,2026-03-04_14-01-07
1772632868455241700,0.72224169921875,0.1020148518413305,-0.8840558942727744,0.390880893549323,-0.0098799932748079,-0.1877684146165847,-0.3539438843727112,walking,2026-03-04_14-01-07
1772632868465190700,0.732190673828125,0.1893348233759403,-0.9721002345591784,0.2379851647764444,-0.0191997252404689,-0.1805946677923202,-0.3472007513046264,walking,2026-03-04_14-01-07
1772632868475139600,0.7421396484375,0.235160462744534,-1.0156514992550014,0.0474748678803443,-0.0057028229348361,-0.1590444147586822,-0.3504931032657623,walking,2026-03-04_14-01-07
1772632868485088500,0.752088623046875,0.3277721840117126,-1.0581289972394703,-0.0848959592580795,0.020723458379507,-0.1343995183706283,-0.3593012392520904,walking,2026-03-04_14-01-07
1772632868495037400,0.762037353515625,0.4637881627194583,-1.0949892398640513,-0.0878349353194236,0.0431976839900016,-0.1417989581823349,-0.3655874729156494,walking,2026-03-04_14-01-07
1772632868504987000,0.77198681640625,0.6341572966016829,-1.101142501796782,-0.0294067117482423,0.064704842865467,-0.1696769297122955,-0.361954927444458,walking,2026-03-04_14-01-07
1772632868514935800,0.781935791015625,0.8230002448074519,-1.05818569586277,-0.0461976875513792,0.0929491370916366,-0.1942200511693954,-0.3524207472801208,walking,2026-03-04_14-01-07
1772632868524884700,0.791884765625,0.9926870224487035,-0.9851403333961964,-0.1447334651052951,0.1215538829565048,-0.1903563290834427,-0.3318065404891968,walking,2026-03-04_14-01-07
1772632868534833700,0.801833740234375,1.138797182734683,-0.8932213436335324,-0.1633066481500864,0.1433265656232834,-0.1658551096916198,-0.2943520843982696,walking,2026-03-04_14-01-07
1772632868544782600,0.811782470703125,1.2768293235704302,-0.8436592942155897,-0.0538730444848537,0.1511922031641006,-0.1620358675718307,-0.2486823350191116,walking,2026-03-04_14-01-07
1772632868554731500,0.8217314453125,1.3880784522250291,-0.80072616141811,0.0431605118125677,0.1494266241788864,-0.1804600358009338,-0.2063468247652053,walking,2026-03-04_14-01-07
1772632868564680700,0.8316806640625,1.4162325335636734,-0.7503095409974455,0.0713823976904153,0.1480969041585922,-0.2071486413478851,-0.1757921129465103,walking,2026-03-04_14-01-07
1772632868574629600,0.841629638671875,1.3659256571277976,-0.6712680068559944,0.005244330394268,0.1420305371284485,-0.2346935272216797,-0.1490898877382278,walking,2026-03-04_14-01-07
1772632868584579600,0.85157958984375,1.237239363721013,-0.5828926810495555,-0.1445347276628017,0.1402813643217086,-0.2427077740430832,-0.1328914761543274,walking,2026-03-04_14-01-07
1772632868594528800,0.86152880859375,1.1519117350474,-0.4951859021544456,-0.3247784820884466,0.1410518586635589,-0.2278837114572525,-0.1122888624668121,walking,2026-03-04_14-01-07
1772632868604477700,0.871477783203125,1.088662155734375,-0.3720641110070049,-0.5052566297918558,0.1420295089483261,-0.2023447901010513,-0.0887856632471084,walking,2026-03-04_14-01-07
1772632868614426600,0.881426513671875,1.0390794288545846,-0.2410281857341527,-0.6091214934140443,0.1474984735250473,-0.1790371239185333,-0.0625742375850677,walking,2026-03-04_14-01-07
1772632868624375600,0.89137548828125,1.0413173439744858,-0.1272835870020091,-0.6722369980186224,0.1532074958086013,-0.1734545975923538,-0.0267826877534389,walking,2026-03-04_14-01-07
1772632868634324500,0.901324462890625,1.0044722258538008,-0.0131185709007084,-0.676021777254343,0.1527322679758072,-0.1841585487127304,0.0120134092867374,walking,2026-03-04_14-01-07
1772632868644273700,0.911273681640625,0.8963212093450128,0.0949317617125809,-0.6637620151400566,0.1504510045051574,-0.1843324452638626,0.045055516064167,walking,2026-03-04_14-01-07
1772632868654222800,0.921222900390625,0.7751524519614875,0.146126965290308,-0.6867080064415931,0.1414495557546615,-0.1672047972679138,0.0698916241526603,walking,2026-03-04_14-01-07
1772632868664171800,0.931171875,0.6573177343714982,0.1697629846826195,-0.6564163285523653,0.1132368221879005,-0.1562935709953308,0.0902962312102317,walking,2026-03-04_14-01-07
1772632868674120700,0.94112060546875,0.5410311230063438,0.182916919157654,-0.5492611912131309,0.0671741813421249,-0.1620592176914215,0.101839542388916,walking,2026-03-04_14-01-07
1772632868684069600,0.951069580078125,0.3890142228946089,0.2572860775738954,-0.4712865556508302,0.0095303244888782,-0.1846180558204651,0.104703240096569,walking,2026-03-04_14-01-07
1772632868694018600,0.9610185546875,0.1976642603039741,0.3359393430501222,-0.5002560450255871,-0.045527160167694,-0.1836446523666381,0.1024482995271682,walking,2026-03-04_14-01-07
1772632868703967500,0.970967529296875,0.0071675900744274,0.4413977594740688,-0.6931693114101887,-0.0744163319468498,-0.1393770575523376,0.0971182510256767,walking,2026-03-04_14-01-07
1772632868713916400,0.98091650390625,-0.0813596748907119,0.5505205436244607,-0.935367709967494,-0.0698567777872085,-0.0487258397042751,0.1041307225823402,walking,2026-03-04_14-01-07
1772632868723865900,0.990865966796875,-0.0364723027529194,0.6561009789928793,-1.0862117669075726,-0.0261452496051788,0.0603489801287651,0.1253598481416702,walking,2026-03-04_14-01-07
1772632868733814800,1.000814697265625,0.1099627421058714,0.7671940403029323,-1.0096867456316947,0.039627730846405,0.1318702101707458,0.1624805033206939,walking,2026-03-04_14-01-07
1772632868743764700,1.0107646484375,0.287327762757428,0.7923005706392228,-0.7072767472177743,0.1063857227563858,0.1323772817850113,0.2053014636039734,walking,2026-03-04_14-01-07
1772632868753713700,1.020713623046875,0.4028277903221547,0.7468193607941269,-0.2792120781779289,0.158858060836792,0.0773340463638305,0.2465841025114059,walking,2026-03-04_14-01-07
1772632868763662600,1.03066259765625,0.3882665097998455,0.6369137557029724,0.0288601837813854,0.1979980170726776,0.0278549119830131,0.273528903722763,walking,2026-03-04_14-01-07
1772632868773611500,1.040611572265625,0.247031919660978,0.5520388392329215,0.263553321275115,0.2127858400344848,-0.0199024472385644,0.2784045338630676,walking,2026-03-04_14-01-07
1772632868783560700,1.050560791015625,0.1183725873263552,0.5137190454497933,0.4590478363245725,0.2071258276700973,-0.0693088769912719,0.2780855000019073,walking,2026-03-04_14-01-07
1772632868793509600,1.060509521484375,0.0183980822062119,0.4988607912749052,0.6116138947516679,0.1801609992980957,-0.1003641858696937,0.274760752916336,walking,2026-03-04_14-01-07
1772632868803458800,1.070458740234375,-0.1915288262888789,0.5001781574837864,0.662765405318141,0.1396724283695221,-0.1141404509544372,0.2593208253383636,walking,2026-03-04_14-01-07
1772632868813407700,1.08040771484375,-0.4795898352243006,0.506028198686242,0.6298427944034337,0.0871933847665786,-0.101994402706623,0.2252457439899444,walking,2026-03-04_14-01-07
1772632868823356700,1.090356689453125,-0.7865059128858148,0.4947166772074997,0.5417436551898718,0.0331349410116672,-0.0735268145799636,0.16464763879776,walking,2026-03-04_14-01-07
1772632868833305600,1.1003056640625,-1.0345458040129392,0.4985572782836854,0.3866974703848361,-0.0124572189524769,-0.0387255772948265,0.0951980575919151,walking,2026-03-04_14-01-07
1772632868843254500,1.110254638671875,-1.1921912845961748,0.5898831244587898,0.1444569862514734,-0.033698059618473,0.018870610743761,0.0282469876110553,walking,2026-03-04_14-01-07
1772632868853203500,1.120203369140625,-1.1977726649250835,0.7518319282591343,-0.0367430459856987,-0.0293113924562931,0.0776981264352798,-0.0151855014264583,walking,2026-03-04_14-01-07
1772632868863152400,1.13015234375,-1.1133685808371752,0.9147479696564376,-0.1406312904834747,-0.00755709502846,0.121255986392498,-0.0292222257703542,walking,2026-03-04_14-01-07
1772632868873101600,1.1401015625,-1.0157346474938094,1.027048653190583,-0.1298269878745079,0.0265798382461071,0.147955447435379,-0.0277917012572288,walking,2026-03-04_14-01-07
1772632868883050500,1.150050537109375,-0.9528754557378588,1.1212792808964849,-0.0144137252777814,0.0609300881624221,0.1592837274074554,-0.0187297612428665,walking,2026-03-04_14-01-07
1772632868892999700,1.159999755859375,-0.9526711653374136,1.1238884404815732,0.1673106230944395,0.0891215577721595,0.1510566771030426,-0.014385737478733,walking,2026-03-04_14-01-07
1772632868902948600,1.169948486328125,-1.0146551816940308,1.0879570031397043,0.3773188166648149,0.1004687547683715,0.1368159651756286,-0.0213347245007753,walking,2026-03-04_14-01-07
1772632868912898600,1.179898681640625,-1.0629564173959194,1.0095512826837598,0.5857073000788688,0.0926538035273552,0.118700124323368,-0.0313847623765468,walking,2026-03-04_14-01-07
1772632868922847500,1.189847412109375,-1.1260947183541954,0.877943987263739,0.7850029609769582,0.0693857595324516,0.1084882318973541,-0.0550573356449604,walking,2026-03-04_14-01-07
1772632868932796400,1.19979638671875,-1.230043753128499,0.7110153492242097,0.9697475339531898,0.0173182524740695,0.0948096439242363,-0.1012123376131057,walking,2026-03-04_14-01-07
1772632868942745300,1.209745361328125,-1.2867729176968334,0.5794567152515053,1.146174944961071,-0.0555498301982879,0.0529591329395771,-0.1621481329202652,walking,2026-03-04_14-01-07
1772632868952694500,1.219694580078125,-1.2095955699920653,0.5144811158634722,1.132312423825264,-0.1250199079513549,0.0092774713411927,-0.2137544453144073,walking,2026-03-04_14-01-07
1772632868962643700,1.229643798828125,-1.121706639463082,0.5356120205670595,0.9772884508520364,-0.1854486316442489,-0.0160997919738292,-0.2431221902370453,walking,2026-03-04_14-01-07
1772632868972592600,1.239592529296875,-1.044972943872586,0.6330224473528564,0.7393512168705463,-0.2335734516382217,-0.0265015140175819,-0.2541661262512207,walking,2026-03-04_14-01-07
1772632868982541600,1.24954150390625,-0.984104998999089,0.6366871073402464,0.4244488166302442,-0.259503036737442,-0.0045147240161895,-0.2547078132629394,walking,2026-03-04_14-01-07
1772632868992490500,1.259490478515625,-0.9220113117229192,0.5776682243995368,0.0867617531299591,-0.2600962519645691,0.0339123085141181,-0.2553795278072357,walking,2026-03-04_14-01-07
1772632869002439400,1.269439453125,-0.837143847906962,0.5138377033933997,-0.1245949324399232,-0.2449641674757003,0.0579502657055854,-0.2495075315237045,walking,2026-03-04_14-01-07
1772632869012388400,1.279388427734375,-0.6894754253283143,0.3966431103378534,-0.1868283935129642,-0.2259406894445419,0.036787986755371,-0.2348399013280868,walking,2026-03-04_14-01-07
1772632869022337500,1.289337646484375,-0.5808659244623035,0.255609230402857,-0.2149035643965005,-0.2091096937656402,-0.0121452715247869,-0.2193988561630249,walking,2026-03-04_14-01-07
1772632869032286700,1.29928662109375,-0.5271148989219219,0.1029514020390808,-0.2780085476070642,-0.1902906596660614,-0.0571218207478523,-0.2144205570220947,walking,2026-03-04_14-01-07
1772632869042235600,1.309235595703125,-0.5553285284280777,-0.0416952615655958,-0.3273100463926792,-0.1846540719270706,-0.0853452011942863,-0.2161886394023895,walking,2026-03-04_14-01-07
1772632869052184600,1.3191845703125,-0.6047369947195053,-0.1634210683099925,-0.4197551058560609,-0.1822798103094101,-0.0696491301059722,-0.2209607064723968,walking,2026-03-04_14-01-07
1772632869062133500,1.329133544921875,-0.6043735682345927,-0.2344740879155695,-0.5560960056692361,-0.1742690205574035,-0.0100180301815271,-0.2171848863363266,walking,2026-03-04_14-01-07
1772632869072083500,1.33908349609375,-0.5679593158118427,-0.2938334548570215,-0.6104068570494652,-0.1566391289234161,0.0716021731495857,-0.2060760408639907,walking,2026-03-04_14-01-07
1772632869082032400,1.349032470703125,-0.4710676522031426,-0.3724057640515267,-0.524876107019186,-0.1274807155132293,0.1179630160331726,-0.1896110475063324,walking,2026-03-04_14-01-07
1772632869091981600,1.358981689453125,-0.3036501346681267,-0.4542851519674062,-0.3509165474295616,-0.0808615162968635,0.1288582533597946,-0.1760490238666534,walking,2026-03-04_14-01-07
1772632869101930500,1.368930419921875,-0.2143015799153596,-0.5215251891560853,-0.1777250496029853,-0.0270049441605806,0.1152287349104881,-0.1627907454967498,walking,2026-03-04_14-01-07
1772632869111879700,1.378879638671875,-0.2162881506226956,-0.537858338189125,0.0688601857364177,0.0147749688476324,0.0700566843152046,-0.1572098284959793,walking,2026-03-04_14-01-07
1772632869121828600,1.38882861328125,-0.2523893915735185,-0.5912149575844406,0.410797307896614,0.0251674223691225,0.0059125809930264,-0.158313438296318,walking,2026-03-04_14-01-07
1772632869131777500,1.398777587890625,-0.3056559945978224,-0.6529765633620321,0.6087438922733068,0.0128746796399354,-0.0327227897942066,-0.1712656319141388,walking,2026-03-04_14-01-07
1772632869141726500,1.4087265625,-0.3900383783105761,-0.6703251730479299,0.6810480809837579,-0.0052055208943784,-0.0296665448695421,-0.1903053671121597,walking,2026-03-04_14-01-07
1772632869151675400,1.41867529296875,-0.4394597040835767,-0.6261812031559646,0.6934522200047969,-0.0357964560389518,-0.0129436291754245,-0.2025647163391113,walking,2026-03-04_14-01-07
1772632869161624300,1.428624267578125,-0.4344071699343621,-0.5777260920666157,0.7347475224673747,-0.079819306731224,-0.0112565159797668,-0.2091091722249984,walking,2026-03-04_14-01-07
1772632869171573800,1.43857373046875,-0.439174238205701,-0.5489446726098657,0.7831827598124742,-0.1311250925064087,-0.0213307868689298,-0.2199574112892151,walking,2026-03-04_14-01-07
1772632869181522700,1.448522705078125,-0.443572546229884,-0.4989624980837106,0.7601870841503143,-0.1796276569366455,-0.0472960770130157,-0.2308729141950607,walking,2026-03-04_14-01-07
1772632869191471600,1.4584716796875,-0.4252986383926123,-0.3961114876791834,0.5932569848060607,-0.2095707803964615,-0.0777111425995826,-0.2366485744714737,walking,2026-03-04_14-01-07
1772632869201420500,1.468420654296875,-0.413837771571055,-0.270671921108663,0.2242243504494428,-0.203145369887352,-0.0686292275786399,-0.2246182709932327,walking,2026-03-04_14-01-07
1772632869211369500,1.478369384765625,-0.3692013419870287,-0.1035436688438057,-0.1231453181535005,-0.1769331246614456,-0.0251981504261493,-0.19307841360569,walking,2026-03-04_14-01-07
1772632869221318400,1.488318359375,-0.2988132890962064,-0.0048144145444035,-0.3268126182645559,-0.1404009461402893,0.0328784696757793,-0.1401214599609375,walking,2026-03-04_14-01-07
1772632869231268600,1.4982685546875,-0.2057905758753418,-0.0012704583272337,-0.2953057193666696,-0.1107668504118919,0.0675585344433784,-0.087975300848484,walking,2026-03-04_14-01-07
1772632869241217500,1.508217529296875,-0.0960915262069553,-0.0812353909239173,-0.1426759480535984,-0.0875329002737999,0.0760175362229347,-0.0351752042770385,walking,2026-03-04_14-01-07
1772632869251166500,1.51816650390625,-0.020836232605949,-0.2290399340376257,0.0806692814737558,-0.0759791582822799,0.0625152066349983,0.0065076202154159,walking,2026-03-04_14-01-07
1772632869261115600,1.52811572265625,-0.0217289436619728,-0.3874119022645056,0.3196422882437705,-0.0780859887599945,0.0447671078145504,0.0363587252795696,walking,2026-03-04_14-01-07
1772632869271064600,1.538064697265625,-0.0682278791822493,-0.5321269549302756,0.4903840548306703,-0.0886905118823051,0.0396290905773639,0.0458685606718063,walking,2026-03-04_14-01-07
1772632869281013500,1.548013427734375,-0.0994436131138354,-0.6262636207424104,0.6148860482901335,-0.0960629433393478,0.0320225693285465,0.0445329844951629,walking,2026-03-04_14-01-07
1772632869290962400,1.55796240234375,-0.0906988733831793,-0.6454315548099577,0.7175754383921623,-0.1033531725406646,0.0133628882467746,0.0423041395843029,walking,2026-03-04_14-01-07
1772632869300911400,1.567911376953125,-0.0196291949037462,-0.6349979852095246,0.7151379821121692,-0.1089303642511367,-0.0053378278389573,0.0422045364975929,walking,2026-03-04_14-01-07
1772632869310860500,1.577860595703125,0.0670190148491412,-0.5741647463232279,0.6665934391736984,-0.110400378704071,-0.0154276881366968,0.0552242286503315,walking,2026-03-04_14-01-07
1772632869320809700,1.587809814453125,0.1650481580551713,-0.5424398207604885,0.5944599308550358,-0.1135775297880172,-0.0063870549201965,0.0801279842853546,walking,2026-03-04_14-01-07
1772632869330758700,1.597758544921875,0.2007046509131789,-0.527152381388098,0.4600982221603393,-0.114438310265541,0.0177325382828712,0.1035964041948318,walking,2026-03-04_14-01-07
1772632869340707600,1.60770751953125,0.2046390677526593,-0.5067344472594559,0.357728565531969,-0.1175970882177352,0.0386671163141727,0.1271728277206421,walking,2026-03-04_14-01-07
1772632869350656500,1.617656494140625,0.2187934845071285,-0.5275483949683606,0.3069657620221376,-0.1256300657987594,0.035593181848526,0.1489875316619873,walking,2026-03-04_14-01-07
1772632869360605400,1.62760546875,0.1370082776807248,-0.5613306914523244,0.2612105575412511,-0.1364944279193878,0.0109530808404088,0.1528051644563675,walking,2026-03-04_14-01-07
1772632869370554400,1.637554443359375,0.019445801160857,-0.5725464244063944,0.1138666176766157,-0.1475697159767151,-0.0162451770156621,0.138765662908554,walking,2026-03-04_14-01-07
1772632869380503300,1.64750341796875,-0.0696972210824489,-0.5480719083633273,-0.1257213061213493,-0.149550050497055,-0.0281915850937366,0.1226450204849243,walking,2026-03-04_14-01-07
1772632869390452700,1.65745263671875,-0.1167227377600967,-0.4675365554675459,-0.4185141658842563,-0.1433222591876983,-0.0078912451863288,0.1171682178974151,walking,2026-03-04_14-01-07
1772632869400401700,1.667401611328125,-0.1159308567300438,-0.3949561801642179,-0.6824871738761663,-0.1267155855894088,0.0248581804335117,0.134611114859581,walking,2026-03-04_14-01-07
1772632869410351600,1.6773515625,-0.0288251855332404,-0.325770854126662,-0.8964145867168902,-0.095579132437706,0.058286890387535,0.1684821844100952,walking,2026-03-04_14-01-07
1772632869420300500,1.687300537109375,0.0691633334014564,-0.3076598087009042,-1.064151910790801,-0.0529059767723083,0.0875033587217331,0.2280040979385376,walking,2026-03-04_14-01-07
1772632869430249500,1.69724951171875,0.0785290545746684,-0.3188423700377344,-1.211966390776634,0.0067198420874774,0.1325792819261551,0.2964196503162384,walking,2026-03-04_14-01-07
1772632869440198400,1.707198486328125,-0.0107183778911829,-0.4185770750526338,-1.312798170313239,0.0720213502645492,0.1742108911275863,0.3607227206230163,walking,2026-03-04_14-01-07
1772632869450147600,1.717147705078125,-0.1704280244626104,-0.5863727051850408,-1.2255799055874348,0.1262167692184448,0.1918286085128784,0.4013687670230865,walking,2026-03-04_14-01-07
1772632869460096500,1.727096435546875,-0.3249895675558596,-0.853521785929799,-1.042456211811304,0.1613119095563888,0.1841379404067993,0.41492959856987,walking,2026-03-04_14-01-07
1772632869470045400,1.73704541015625,-0.4416197316616773,-1.1174537312589583,-0.8151911784917115,0.1770232766866684,0.1395334899425506,0.404847115278244,walking,2026-03-04_14-01-07
1772632869479994600,1.74699462890625,-0.557730401938036,-1.2870477891154586,-0.6386281584054231,0.1795807033777237,0.0736466199159622,0.3812941014766693,walking,2026-03-04_14-01-07
1772632869489943600,1.756943603515625,-0.6306392054781317,-1.3655952561296525,-0.558733368435502,0.1772514581680297,0.0247386824339628,0.3556553423404693,walking,2026-03-04_14-01-07
1772632869499892500,1.766892578125,-0.7105920092456043,-1.3819659606941044,-0.6283692147195339,0.1720250099897384,0.0163579806685447,0.3187820017337799,walking,2026-03-04_14-01-07
1772632869509841400,1.77684130859375,-0.7595598921626806,-1.3341478323340414,-0.7230576691955327,0.1717469692230224,0.0356974527239799,0.277757316827774,walking,2026-03-04_14-01-07
1772632869519790600,1.78679052734375,-0.7263694240920245,-1.1899275774478912,-0.7399100197970867,0.1651218235492706,0.0420195311307907,0.2429050803184509,walking,2026-03-04_14-01-07
1772632869529739500,1.796739501953125,-0.611079495614022,-1.0024442271575331,-0.7118021156877279,0.1659291237592697,0.0321617573499679,0.2170065492391586,walking,2026-03-04_14-01-07
1772632869539688700,1.806688720703125,-0.5037815157379955,-0.7570033395476639,-0.7899415864229202,0.178417220711708,0.0112863006070256,0.2001138478517532,walking,2026-03-04_14-01-07
1772632869549637600,1.8166376953125,-0.395076153282076,-0.4238678018718957,-0.8408177871793509,0.1928791105747223,-0.0256041754037141,0.1865043640136718,walking,2026-03-04_14-01-07
1772632869559586600,1.826586669921875,-0.3067517539452761,-0.1282594462968409,-0.8598667710423469,0.1995849460363388,-0.0633169338107109,0.1814006865024566,walking,2026-03-04_14-01-07
1772632869569535500,1.836535400390625,-0.2432571868952363,0.1472080385252833,-0.8415829263329505,0.1918932497501373,-0.0919316783547401,0.17841836810112,walking,2026-03-04_14-01-07
1772632869579485400,1.8464853515625,-0.2865496545244008,0.448918071976304,-0.7723772881597281,0.1530281454324722,-0.1208370998501777,0.1634623259305954,walking,2026-03-04_14-01-07
1772632869589434600,1.8564345703125,-0.3753317345008254,0.7091274896509945,-0.7101058331638574,0.0945140123367309,-0.1420552283525467,0.1431922316551208,walking,2026-03-04_14-01-07
1772632869599383600,1.866383544921875,-0.4042080656994134,0.9164831228859722,-0.8054775937288999,0.0380555316805839,-0.1220375895500183,0.1288918554782867,walking,2026-03-04_14-01-07
1772632869609332500,1.87633251953125,-0.3786863056257367,1.1480831166699528,-1.005022260951996,0.0128886178135871,-0.0645635649561882,0.1356325596570968,walking,2026-03-04_14-01-07
1772632869619281400,1.886281494140625,-0.2781320278562605,1.3403338274925949,-1.270688044336438,0.0304146148264408,0.0118803437799215,0.1605829149484634,walking,2026-03-04_14-01-07
1772632869629230600,1.896230712890625,-0.0731080524392426,1.4758362306550143,-1.468793034145236,0.0987127497792244,0.1036693006753921,0.2207903563976287,walking,2026-03-04_14-01-07
1772632869639179500,1.906179443359375,0.113623091244325,1.5752819626607,-1.4077800547778605,0.1848154067993164,0.1620090454816818,0.3090768158435821,walking,2026-03-04_14-01-07
1772632869649128400,1.91612841796875,0.2283381424438208,1.497218479771167,-1.0470604907363652,0.2629167735576629,0.1725831478834152,0.3988873362541199,walking,2026-03-04_14-01-07
1772632869659077600,1.92607763671875,0.2131611777085811,1.2191435889296234,-0.5543249043434858,0.3131898045539856,0.1526632308959961,0.4615586996078491,walking,2026-03-04_14-01-07
1772632869669026600,1.936026611328125,0.0074337301973253,0.8535150639280676,-0.0088075758337974,0.3233760297298431,0.1154567003250122,0.4737576842308044,walking,2026-03-04_14-01-07
1772632869678975500,1.9459755859375,-0.2339206187512725,0.5330588289529085,0.3824801449507474,0.3079046607017517,0.091792918741703,0.4402111768722534,walking,2026-03-04_14-01-07
1772632869688924700,1.955924560546875,-0.3982940193500369,0.3378951532930135,0.654402650642395,0.2806874811649322,0.0848762840032577,0.3955482542514801,walking,2026-03-04_14-01-07
1772632869698873600,1.96587353515625,-0.4650785678561777,0.3040760319299995,0.8352414483517407,0.2636776268482208,0.081987015902996,0.3539712429046631,walking,2026-03-04_14-01-07
1772632869708822500,1.975822509765625,-0.3727591075338423,0.281157074765861,0.9089151718497276,0.268043577671051,0.0977298244833946,0.3130266070365906,walking,2026-03-04_14-01-07
1772632869718771500,1.985771484375,-0.2208792778052389,0.2958762127310037,1.0048188473343849,0.2874116897583008,0.0948823690414428,0.2773178815841675,walking,2026-03-04_14-01-07
1772632869728720400,1.995720458984375,-0.0307623641408979,0.4401274472773074,1.1566367177426815,0.310973048210144,0.0772748589515686,0.2526240348815918,walking,2026-03-04_14-01-07
1772632869738669600,2.005669677734375,0.1485441094346344,0.5487544107347726,1.3623966062188149,0.3178541362285614,0.0541226714849472,0.2392554879188537,walking,2026-03-04_14-01-07
1772632869748618500,2.015618408203125,0.2885136480737477,0.6812267985515296,1.6340508163630962,0.2993025779724121,0.022217258810997,0.2211870402097702,walking,2026-03-04_14-01-07
1772632869758568400,2.025568359375,0.3070451108686626,0.7578356987185776,1.828668548578024,0.2454121857881546,-0.0750850588083267,0.2124311029911041,walking,2026-03-04_14-01-07
1772632869768517400,2.035517333984375,0.542049433203414,0.8603532393850386,2.03261349658668,0.1648751646280288,-0.1997080594301223,0.2079452127218246,walking,2026-03-04_14-01-07
1772632869778466600,2.045466552734375,0.5704174495536833,0.9362897932484744,2.0013965205460784,0.0693731531500816,-0.3121640086174011,0.2082655876874923,walking,2026-03-04_14-01-07
1772632869788415500,2.05541552734375,0.435629478270933,0.9944291168756784,1.7045272051244973,-0.0293973200023174,-0.3674759864807129,0.1978060454130172,walking,2026-03-04_14-01-07
1772632869798364700,2.06536474609375,0.2154092488963156,1.0285996820248662,1.2527011367470025,-0.1172755137085914,-0.3483957648277282,0.1691208779811859,walking,2026-03-04_14-01-07
1772632869808313600,2.075313720703125,0.0007256108608096,1.0267819650784134,0.7406465173780917,-0.1848598420619964,-0.2745640873908996,0.1366721242666244,walking,2026-03-04_14-01-07
1772632869818262500,2.085262451171875,-0.1112780624881386,1.0252828125618398,0.286043385502696,-0.2196255475282669,-0.1744611859321594,0.1046923547983169,walking,2026-03-04_14-01-07
1772632869828211500,2.09521142578125,-0.2072161151664331,1.0076163690984248,-0.0670306322216987,-0.2336105108261108,-0.0789810195565223,0.0658486261963844,walking,2026-03-04_14-01-07
1772632869838160600,2.10516064453125,-0.2131838279318064,0.9662380645275116,-0.2269914770752191,-0.2257565855979919,-0.0165253635495901,0.0245011877268552,walking,2026-03-04_14-01-07
1772632869848109600,2.115109619140625,-0.1522467633448541,0.9164952517151832,-0.2661924376070499,-0.2147384285926818,-0.0076920902356505,-0.0163770653307437,walking,2026-03-04_14-01-07
1772632869858058800,2.125058837890625,-0.1007066553195938,0.8569234110668301,-0.2496761870920658,-0.2113133370876312,-0.0403821244835853,-0.0594196058809757,walking,2026-03-04_14-01-07
1772632869868007700,2.135007568359375,-0.0801177485382184,0.7996430423565208,-0.2531985159993171,-0.217765673995018,-0.0645436495542526,-0.0994976833462715,walking,2026-03-04_14-01-07
1772632869877956600,2.14495654296875,-0.099481607036665,0.7473416311025619,-0.2833779656857252,-0.2397199720144271,-0.0665167793631553,-0.1364706158638,walking,2026-03-04_14-01-07
1772632869887905500,2.154905517578125,-0.1211293021559715,0.7254585928574204,-0.3201426389813423,-0.2707173526287079,-0.0322409607470035,-0.1599920839071273,walking,2026-03-04_14-01-07
1772632869897854500,2.1648544921875,-0.0802149618349969,0.6934590881370007,-0.4431026636958122,-0.2851223945617676,0.0424103736877441,-0.1672776937484741,walking,2026-03-04_14-01-07
1772632869907803600,2.1748037109375,0.0222758734876289,0.6861769683048129,-0.5576800599902868,-0.2807417809963226,0.1273132860660553,-0.1493261307477951,walking,2026-03-04_14-01-07
1772632869917752600,2.184752685546875,0.0953536038538441,0.6618187721177935,-0.5622235486388206,-0.2583781480789184,0.2214166074991226,-0.1101893708109855,walking,2026-03-04_14-01-07
1772632869927702800,2.194702880859375,0.1447410638898611,0.5715846667021512,-0.4497720584571361,-0.2242292463779449,0.2949042916297912,-0.0610518120229244,walking,2026-03-04_14-01-07
1772632869937651700,2.204651611328125,0.1317646779388189,0.3905817644722759,-0.1947369746804237,-0.1854823976755142,0.3339861929416656,-0.0274792034178972,walking,2026-03-04_14-01-07
1772632869947600600,2.2146005859375,0.0920834596093744,0.1854492141142487,0.1199146656692028,-0.1481878012418747,0.3299378752708435,-0.0080394614487886,walking,2026-03-04_14-01-07
1772632869957549600,2.224549560546875,0.1267800944592803,-0.009656886139512,0.4998369428306817,-0.1216262355446815,0.2752045691013336,0.0068582617677748,walking,2026-03-04_14-01-07
1772632869967498500,2.23449853515625,0.1377604842875152,-0.197799723251909,0.8591992470443248,-0.1145273968577385,0.1757065653800964,0.0175709072500467,walking,2026-03-04_14-01-07
1772632869977447400,2.244447509765625,0.0833603471886366,-0.3266784704908728,1.0881307522714136,-0.1151084974408149,0.0821063071489334,0.0186433624476194,walking,2026-03-04_14-01-07
1772632869987396400,2.254396240234375,-0.0226643248159438,-0.4670293365977704,1.2060165424615144,-0.1319984942674636,0.0032410346902906,-0.0035291747190058,walking,2026-03-04_14-01-07
1772632869997345800,2.264345703125,-0.1129506718754768,-0.502584634103626,1.2683844435691831,-0.1680347919464111,-0.0876047164201736,-0.0395260602235794,walking,2026-03-04_14-01-07
1772632870007294700,2.274294677734375,-0.1020399132173508,-0.5222163862906396,1.163864330908656,-0.1996103525161743,-0.1368438899517059,-0.070231407880783,walking,2026-03-04_14-01-07
1772632870017243600,2.28424365234375,-0.0103114045254886,-0.4363312698647379,0.932760157817602,-0.227929875254631,-0.1569888442754745,-0.0780230239033699,walking,2026-03-04_14-01-07
1772632870027192600,2.294192626953125,0.0193948016259819,-0.2734593598701059,0.6911164705336094,-0.2533087134361267,-0.1542140841484069,-0.0743640810251236,walking,2026-03-04_14-01-07
1772632870037141500,2.3041416015625,0.0481929530218243,-0.2013520089060068,0.4732651622474193,-0.2739266455173492,-0.1321101188659668,-0.053821250796318,walking,2026-03-04_14-01-07
1772632870047090400,2.31409033203125,0.108061657724902,-0.191020438375324,0.2920236289560795,-0.2849802672863006,-0.1031752973794937,-0.0360608622431755,walking,2026-03-04_14-01-07
1772632870057039600,2.32403955078125,0.1160739184625446,-0.2128733737431466,0.127874100241065,-0.275017112493515,-0.0772483646869659,-0.0238987393677234,walking,2026-03-04_14-01-07
1772632870066988500,2.333988525390625,0.0623223084002733,-0.2760126976147294,-0.0330278248548507,-0.2507389187812805,-0.0533100664615631,-0.032279834151268,walking,2026-03-04_14-01-07
1772632870076937700,2.343937744140625,0.002741042336449,-0.3882540521770715,-0.1018897641569376,-0.2154017239809036,-0.0375279076397419,-0.0545318759977817,walking,2026-03-04_14-01-07
1772632870086886700,2.35388671875,-0.0407954631816595,-0.5238819814153015,-0.0947299555301666,-0.1762766987085342,-0.0309293940663337,-0.0906656458973884,walking,2026-03-04_14-01-07
1772632870096835600,2.363835693359375,-0.0240854436602443,-0.6348902870513499,-0.0372165087163448,-0.1393335908651352,-0.0311738718301057,-0.1363806575536728,walking,2026-03-04_14-01-07
1772632870106785500,2.37378564453125,0.0807215961828827,-0.6972348072834312,0.0426157374113798,-0.1056659966707229,-0.0412168242037296,-0.1728658676147461,walking,2026-03-04_14-01-07
1772632870116734500,2.383734375,0.2215676984608173,-0.7244311495058238,0.1689063678532838,-0.0844824165105819,-0.0682055652141571,-0.1907455325126648,walking,2026-03-04_14-01-07
1772632870126683400,2.393683349609375,0.3392548973388969,-0.7289652858041227,0.279704245609045,-0.0807103961706161,-0.107908084988594,-0.2011636048555374,walking,2026-03-04_14-01-07
1772632870136632600,2.403632568359375,0.2986626285791396,-0.7698574142932891,0.278130128160119,-0.0940144881606102,-0.1442820727825164,-0.2209354490041732,walking,2026-03-04_14-01-07
1772632870146581800,2.413581787109375,0.1724175177793949,-0.8258295499492436,0.1626835478156805,-0.1107405573129654,-0.1513498872518539,-0.2536158263683319,walking,2026-03-04_14-01-07
1772632870156530700,2.42353076171875,0.0591123333778232,-0.8245791845619678,-0.0472346293836832,-0.1162141487002372,-0.1372369974851608,-0.2866174280643463,walking,2026-03-04_14-01-07
1772632870166479600,2.433479736328125,0.0142119190953671,-0.7606590855762362,-0.3325403482615947,-0.0953493192791938,-0.1036000251770019,-0.3067464232444763,walking,2026-03-04_14-01-07
1772632870176428500,2.443428466796875,0.0284292450182139,-0.6803674783084541,-0.6277525441259145,-0.0551512986421585,-0.0557723119854927,-0.3142219185829162,walking,2026-03-04_14-01-07
1772632870186377500,2.45337744140625,0.0161851188644766,-0.6680824356224387,-0.8131342459619044,0.0036464680451899,0.0023541224654763,-0.3135059177875519,walking,2026-03-04_14-01-07
1772632870196326400,2.463326416015625,0.0038210926581174,-0.673859849980101,-0.8213385952055454,0.067987635731697,0.0450757555663585,-0.3157230019569397,walking,2026-03-04_14-01-07
1772632870206275600,2.473275634765625,0.0034456834744662,-0.7390903009120374,-0.6255488966017961,0.1088412031531333,0.031372494995594,-0.3258528113365173,walking,2026-03-04_14-01-07
1772632870216224800,2.483224853515625,0.0507236405432224,-0.8495007137201726,-0.327491248178482,0.121904008090496,-0.0217748805880546,-0.3418778479099273,walking,2026-03-04_14-01-07
1772632870226173700,2.493173583984375,0.0688464494720101,-0.9245297973498702,-0.1015291141510009,0.1126543134450912,-0.0795514285564422,-0.3563059270381927,walking,2026-03-04_14-01-07
1772632870236122600,2.50312255859375,0.0983503379844129,-0.9528023905016482,-0.0498860206753015,0.0947363004088401,-0.112619362771511,-0.3643025755882263,walking,2026-03-04_14-01-07
1772632870246071600,2.513071533203125,0.1156425413079559,-0.990251465864852,-0.1755874530524015,0.0907660201191902,-0.0756861716508865,-0.3737243413925171,walking,2026-03-04_14-01-07
1772632870256020500,2.5230205078125,0.1383046011015772,-0.9743201756309716,-0.299404386857152,0.0934270471334457,-0.0067190872505307,-0.3791534602642059,walking,2026-03-04_14-01-07
1772632870265969400,2.532969482421875,0.2188294326033443,-1.0112767182368785,-0.3269055572450161,0.1073650494217872,0.0531589463353157,-0.3769351243972778,walking,2026-03-04_14-01-07
1772632870275918600,2.542918701171875,0.3526107110615819,-1.0567256332475692,-0.2768810048818588,0.1323068886995315,0.0896847322583198,-0.3761478960514068,walking,2026-03-04_14-01-07
1772632870285868500,2.55286865234375,0.5658068139530718,-1.0366093854792415,-0.1374883162826299,0.1639551818370819,0.0730709731578826,-0.3578695058822632,walking,2026-03-04_14-01-07
1772632870295817700,2.562817626953125,0.8100985315278172,-1.0395447082787752,-0.0023269816428422,0.1954489350318908,0.0295559875667095,-0.3174312710762024,walking,2026-03-04_14-01-07
1772632870305766700,2.5727666015625,1.0191858108609917,-1.090495873967558,0.073143562144041,0.2273550629615783,-0.017813628539443,-0.2746496498584747,walking,2026-03-04_14-01-07
1772632870315715600,2.582715576171875,1.0690635751646012,-1.1449097473308445,0.1304559334278106,0.244267463684082,-0.05972246453166,-0.2446371763944625,walking,2026-03-04_14-01-07
1772632870325664500,2.59266455078125,1.0914191993575542,-1.214797084157914,0.1567044734060764,0.2460294067859649,-0.0946588739752769,-0.2272179722785949,walking,2026-03-04_14-01-07
1772632870335613400,2.602613525390625,1.112435903096944,-1.282865096603334,0.1715717876702547,0.2302206158638,-0.134765550494194,-0.211094930768013,walking,2026-03-04_14-01-07
1772632870345562400,2.612562255859375,1.1028533243026584,-1.2998098016634585,0.1196948854386806,0.2079361230134964,-0.1667882800102234,-0.1987216025590896,walking,2026-03-04_14-01-07
1772632870355511600,2.622511474609375,1.0580073436211794,-1.2303123409368095,-0.0235860427707433,0.1761805862188339,-0.1940209567546844,-0.1894426196813583,walking,2026-03-04_14-01-07
1772632870365460700,2.632460693359375,0.989724665511772,-1.153573530779779,-0.2249918276906013,0.1466581672430038,-0.2198550403118133,-0.1816994547843933,walking,2026-03-04_14-01-07
1772632870375409700,2.64240966796875,0.968140244887024,-1.051671491663158,-0.5443944619596004,0.1279872804880142,-0.2201591730117797,-0.1713794320821762,walking,2026-03-04_14-01-07
1772632870385358600,2.652358642578125,0.9535393264740704,-0.8911176493525504,-0.8775251773297786,0.1255365908145904,-0.2054789513349533,-0.1559198051691055,walking,2026-03-04_14-01-07
1772632870395307500,2.6623076171875,0.9162707953095436,-0.695001056881994,-1.1349684912919995,0.1315217763185501,-0.1923309117555618,-0.1355460882186889,walking,2026-03-04_14-01-07
1772632870405256400,2.67225634765625,0.8086594386354088,-0.51668593243137,-1.285259590524435,0.1195761710405349,-0.1543474346399307,-0.1311481148004531,walking,2026-03-04_14-01-07
1772632870415205400,2.682205322265625,0.6009434111228212,-0.3950254460081457,-1.3228911097824572,0.0823489055037498,-0.1526025384664535,-0.1382254660129547,walking,2026-03-04_14-01-07
1772632870425154600,2.692154541015625,0.4507786782164126,-0.145999101126939,-1.310118137449026,0.0317939966917037,-0.1740553975105285,-0.1502622216939926,walking,2026-03-04_14-01-07
1772632870435103700,2.702103759765625,0.2975472146831452,0.056116147236526,-1.4505015906512737,-0.0045251310802996,-0.1904452890157699,-0.1644390225410461,walking,2026-03-04_14-01-07
1772632870445052700,2.712052734375,0.169372560592927,0.3722670862331986,-1.6710019521415234,-0.0205377824604511,-0.1776309311389923,-0.1752202659845352,walking,2026-03-04_14-01-07
1772632870455001600,2.722001708984375,0.0898434255976229,0.6610496874414384,-1.9460247619360684,-0.0025372109375894,-0.1168551966547966,-0.1745592653751373,walking,2026-03-04_14-01-07
1772632870464950500,2.731950439453125,0.1558577569162473,0.9701328800089656,-2.149414414149523,0.0545818246901035,-0.0190500989556312,-0.1481747329235077,walking,2026-03-04_14-01-07
1772632870474900500,2.741900390625,0.3228318415326997,1.279764354109019,-2.2279840929955244,0.1543579548597335,0.1011229157447815,-0.0832737758755683,walking,2026-03-04_14-01-07
1772632870484849700,2.751849609375,0.5120950244445354,1.5233366713680323,-2.0473112995028493,0.2674250602722168,0.2086610496044159,0.0124942921102046,walking,2026-03-04_14-01-07
1772632870494798600,2.761798583984375,0.639144145103544,1.638213050609082,-1.5308072995096444,0.3622319996356964,0.2542234659194946,0.1129340827465057,walking,2026-03-04_14-01-07
1772632870504747500,2.77174755859375,0.6400210740685462,1.5871997794695198,-0.8331289862424135,0.4243196845054626,0.2313083410263061,0.1910712420940399,walking,2026-03-04_14-01-07
1772632870514696700,2.78169677734375,0.498511393315345,1.4540718503534793,-0.172775902763009,0.455191820859909,0.1683983653783798,0.2338716983795166,walking,2026-03-04_14-01-07
1772632870524645600,2.791645751953125,0.2951545839255675,1.3334554661557076,0.3076899846434593,0.4661796689033508,0.0972636863589286,0.2472632229328155,walking,2026-03-04_14-01-07
1772632870534594600,2.801594482421875,0.0031520342901349,1.2370156379677355,0.5948872163563966,0.4673961997032165,0.0422180071473121,0.2360529154539108,walking,2026-03-04_14-01-07
1772632870544543500,2.81154345703125,-0.2886201771881431,1.2386685197412968,0.723348176574707,0.4663645029067993,0.0148166734725236,0.2111793756484985,walking,2026-03-04_14-01-07
1772632870554492400,2.821492431640625,-0.4509782924417406,1.2576840397261082,0.782823278850317,0.4675293564796448,0.0170201733708381,0.1861057132482528,walking,2026-03-04_14-01-07
1772632870564441600,2.831441650390625,-0.5745682125575841,1.2747072168499232,0.8880500784754752,0.4581021666526794,0.029681472107768,0.1657148897647857,walking,2026-03-04_14-01-07
1772632870574390500,2.841390625,-0.7103175762183964,1.30780299237445,1.0189993483781814,0.4359784722328186,0.0598609447479248,0.1392593085765838,walking,2026-03-04_14-01-07
1772632870584339700,2.851339599609375,-0.861913985895738,1.2813297037295996,1.1928168691486118,0.3952482640743255,0.0875554606318473,0.1106687560677528,walking,2026-03-04_14-01-07
1772632870594288600,2.86128857421875,-1.0091279427051545,1.272259823697805,1.4024503841876983,0.3352496325969696,0.1141095757484436,0.0637278780341148,walking,2026-03-04_14-01-07
1772632870604237600,2.871237548828125,-1.1640741742670535,1.2028826283499598,1.5851596519440412,0.2568517625331878,0.1294915974140167,0.0044451248832046,walking,2026-03-04_14-01-07
1772632870614186500,2.8811865234375,-1.2709756291061638,1.1623247002512216,1.733146565887332,0.1712484210729599,0.1302316933870315,-0.0583125315606594,walking,2026-03-04_14-01-07
1772632870624135400,2.891135498046875,-1.3055557979695498,1.1442720339491963,1.798563333171606,0.0808188319206237,0.1280806809663772,-0.1163689866662025,walking,2026-03-04_14-01-07
1772632870634084400,2.90108447265625,-1.304572632151097,1.1207836063340306,1.8324924907803533,-0.0147295240312814,0.1107325702905654,-0.1811019033193588,walking,2026-03-04_14-01-07
1772632870644034600,2.91103466796875,-1.2157063079573214,1.0770867956876755,1.804452975732088,-0.103902980685234,0.0933120176196098,-0.2402397245168686,walking,2026-03-04_14-01-07
1772632870653983500,2.9209833984375,-1.1032036721102894,1.0763326163195073,1.6514689841538668,-0.1809037625789642,0.0916190519928932,-0.2839885354042053,walking,2026-03-04_14-01-07
1772632870663932700,2.9309326171875,-0.959143868482858,1.1150675667747854,1.53521693264544,-0.2513485848903656,0.0853894352912902,-0.3050834238529205,walking,2026-03-04_14-01-07
1772632870673881600,2.940881591796875,-0.7342316818997263,1.1594551361642778,1.415177763813734,-0.3092113435268402,0.0561202280223369,-0.3039113879203796,walking,2026-03-04_14-01-07
1772632870683830500,2.95083056640625,-0.5138988589961081,1.1531272483170032,1.152177984768152,-0.3441438674926758,0.021548893302679,-0.2769214808940887,walking,2026-03-04_14-01-07
1772632870693779500,2.960779541015625,-0.409938864436373,1.1152338632524013,0.8938684093654156,-0.3706444501876831,-0.009429263882339,-0.2436796277761459,walking,2026-03-04_14-01-07
1772632870703728600,2.970728759765625,-0.3834253899116069,0.9890991540245712,0.7039081475675105,-0.3986948430538177,-0.0401200279593467,-0.2139967679977417,walking,2026-03-04_14-01-07
1772632870713677600,2.980677490234375,-0.3567565056294202,0.7791955898724496,0.4988187056988477,-0.4246284365653991,-0.0778431743383407,-0.1924491375684738,walking,2026-03-04_14-01-07
1772632870723626500,2.99062646484375,-0.3922283626355231,0.5742547626942396,0.2490624391078948,-0.4372825920581817,-0.0925867334008216,-0.1812652498483657,walking,2026-03-04_14-01-07
1772632870733575700,3.00057568359375,-0.4712386979211121,0.4281356884494424,-0.0127039987504482,-0.4409660100936889,-0.0836627483367919,-0.1804303526878357,walking,2026-03-04_14-01-07
1772632870743524600,3.010524658203125,-0.4742200518194586,0.2550691321767867,-0.2269447153240442,-0.4353314340114593,-0.0614056810736656,-0.1784426569938659,walking,2026-03-04_14-01-07
1772632870753473500,3.0204736328125,-0.402632779206708,0.0824513425849378,-0.4015951797872781,-0.4192070364952087,-0.0308578927069902,-0.1733141988515854,walking,2026-03-04_14-01-07
1772632870763422500,3.03042236328125,-0.3016732085719704,-0.0297372588768601,-0.5235100793629884,-0.3797737658023834,0.0072897304780781,-0.155934453010559,walking,2026-03-04_14-01-07
1772632870773371400,3.040371337890625,-0.1604992625791579,-0.1062055815294384,-0.5833908398300409,-0.3210835456848144,0.0256604831665754,-0.1260495334863662,walking,2026-03-04_14-01-07
1772632870783320600,3.050320556640625,0.0087978581573814,-0.1737931169815361,-0.5357686724334955,-0.2468400746583938,0.0207204837352037,-0.0807254016399383,walking,2026-03-04_14-01-07
1772632870793269800,3.060269775390625,0.1632725266847759,-0.2438935120373964,-0.4306476712703704,-0.1659148633480072,0.0042895786464214,-0.0289410278201103,walking,2026-03-04_14-01-07
1772632870803218700,3.07021875,0.1594599826592952,-0.364989204184711,-0.2275216384291648,-0.105001576244831,-0.0279657281935215,0.0063457931391894,walking,2026-03-04_14-01-07
1772632870813167600,3.080167724609375,0.0337815658316016,-0.5198987569980323,0.0771592275261879,-0.0852260142564773,-0.0683802664279937,0.0128146111965179,walking,2026-03-04_14-01-07
1772632870823117600,3.09011767578125,-0.1073411614306271,-0.6910429669059812,0.3666875325351953,-0.1075356677174568,-0.0970357879996299,0.0001862475182861,walking,2026-03-04_14-01-07
1772632870833067000,3.10006689453125,-0.2111871742218732,-0.7903947370178998,0.5590051711142063,-0.1575309187173843,-0.1163916438817977,-0.0234735421836376,walking,2026-03-04_14-01-07
1772632870843016200,3.11001611328125,-0.3317328312709927,-0.79462302223742,0.5866583171933889,-0.2155918329954147,-0.1191553324460983,-0.0568876788020134,walking,2026-03-04_14-01-07
1772632870852965000,3.119965087890625,-0.3908140388581901,-0.7171274023637175,0.4556991104185581,-0.2577451467514038,-0.1055503115057945,-0.0880692973732948,walking,2026-03-04_14-01-07
1772632870862914000,3.1299140625,-0.3022210517130791,-0.5733819253824651,0.2326385430514812,-0.2710982263088226,-0.0898614898324012,-0.0971698388457298,walking,2026-03-04_14-01-07
1772632870872863000,3.139863037109375,-0.1605325072616338,-0.4002957876265048,-0.0286602772951126,-0.2519213557243347,-0.0687857717275619,-0.0803812742233276,walking,2026-03-04_14-01-07
1772632870882812000,3.14981201171875,-0.0211698484744876,-0.2197226551160216,-0.242404150262475,-0.2087288498878479,-0.0421893186867237,-0.0473253466188907,walking,2026-03-04_14-01-07
1772632870892761000,3.159760986328125,0.0708789782129228,-0.0711697778530418,-0.3402659740775823,-0.1583149582147598,-0.0175667963922023,-0.0016912809805944,walking,2026-03-04_14-01-07
1772632870902710000,3.1697099609375,0.0913248963270336,0.0250704361096024,-0.2477320672869682,-0.1243470013141632,-0.0066625121980905,0.0415608026087284,walking,2026-03-04_14-01-07
1772632870912659000,3.179658935546875,0.1081955132376402,-0.0108024029128253,-0.0635410365402698,-0.1077778786420822,-0.0045125419273972,0.0742364600300788,walking,2026-03-04_14-01-07
1772632870922608000,3.189608154296875,0.1278700816530734,-0.086772128393501,0.0881686973184347,-0.106068842113018,0.0064675770699977,0.103954829275608,walking,2026-03-04_14-01-07
1772632870932557000,3.19955712890625,0.0584681902553886,-0.1132271507292985,0.2525871061027049,-0.1224997416138649,0.0260292924940586,0.1295435428619384,walking,2026-03-04_14-01-07
1772632870942506000,3.209506103515625,0.0290559986144304,-0.1734792287267744,0.3913602014988661,-0.1439945101737976,0.0462926626205444,0.1525336354970932,walking,2026-03-04_14-01-07
1772632870952455200,3.219455078125,0.0563219720069319,-0.266415651903674,0.4964437932610511,-0.1621215939521789,0.0595160536468029,0.1737281382083892,walking,2026-03-04_14-01-07
1772632870962404000,3.229404052734375,0.0728567810919135,-0.3383273341652005,0.562899840465188,-0.1776858121156692,0.0640145093202591,0.1863166689872741,walking,2026-03-04_14-01-07
1772632870972353000,3.23935302734375,0.0644585897766053,-0.3844465496528893,0.5734697497963905,-0.1822645813226699,0.0688012689352035,0.1932504773139953,walking,2026-03-04_14-01-07
1772632870982302000,3.249302001953125,0.066639440947026,-0.4131337149549275,0.543110267367959,-0.176995038986206,0.0684689879417419,0.2068629413843155,walking,2026-03-04_14-01-07
1772632870992251000,3.2592509765625,0.1068402992364019,-0.4236152153503149,0.5388771598428488,-0.1683179289102554,0.0463170856237411,0.2197310775518417,walking,2026-03-04_14-01-07
1772632871002200000,3.269199951171875,0.1404109257310628,-0.4316566291172057,0.5221726932793855,-0.1568618863821029,0.0037796264514327,0.227047249674797,walking,2026-03-04_14-01-07
1772632871012150000,3.27914990234375,0.2046253314882516,-0.4606740492869168,0.4219944092154503,-0.1348327547311782,-0.0259971767663955,0.241303950548172,walking,2026-03-04_14-01-07
1772632871022099000,3.289098876953125,0.2620064571592956,-0.428624567944929,0.2609007609397172,-0.1077250614762306,-0.038033440709114,0.2608246207237243,walking,2026-03-04_14-01-07
1772632871032047900,3.2990478515625,0.2723086554650217,-0.3840356307644397,0.1115343753367662,-0.0932065695524215,-0.0288745649158954,0.2894485294818878,walking,2026-03-04_14-01-07
1772632871041997000,3.3089970703125,0.2294383587706834,-0.3702354342751204,0.011661796221137,-0.091510497033596,-0.0113518144935369,0.3125984072685241,walking,2026-03-04_14-01-07
1772632871051946000,3.318946044921875,0.1546349005904048,-0.396078754453361,-0.0375426719307899,-0.1096175983548164,0.0142177287489175,0.3318615853786468,walking,2026-03-04_14-01-07
1772632871061895200,3.328895263671875,0.050896111033298,-0.4532460181780159,-0.0886170256078243,-0.1378044039011001,0.0493698343634605,0.340952068567276,walking,2026-03-04_14-01-07
1772632871071844000,3.338843994140625,-0.0342320130128413,-0.526366710903123,-0.1933990040749311,-0.1602500528097152,0.0946827232837677,0.3469268679618835,walking,2026-03-04_14-01-07
1772632871081793000,3.34879296875,-0.045884676079452,-0.5967339402016252,-0.328196181577444,-0.1628983467817306,0.1121257096529007,0.3549171090126037,walking,2026-03-04_14-01-07
1772632871091742000,3.358741943359375,-0.0058660424891859,-0.6188032947991043,-0.5206085127025842,-0.1374792754650116,0.1031734943389892,0.3746418356895447,walking,2026-03-04_14-01-07
1772632871101691000,3.36869091796875,0.0131143331170082,-0.6228283125314861,-0.7115572010159492,-0.0866981148719787,0.0830224901437759,0.3996091187000274,walking,2026-03-04_14-01-07
1772632871111640000,3.37864013671875,-0.0431890803199261,-0.6512688095960766,-0.8803636156260967,-0.0254046693444252,0.0586063601076602,0.4276314377784729,walking,2026-03-04_14-01-07
1772632871121589000,3.388589111328125,-0.1523668095279484,-0.7075001076448708,-0.963775473806262,0.033290110528469,0.045362789183855,0.4504675269126892,walking,2026-03-04_14-01-07
1772632871131538000,3.398537841796875,-0.2726642639696598,-0.8118556773934513,-1.0209306087017058,0.083252876996994,0.0471175462007522,0.4667985737323761,walking,2026-03-04_14-01-07
1772632871141487000,3.408487060546875,-0.4390491505213081,-0.8731747270353138,-1.065932948988676,0.1253009587526321,0.0740954354405403,0.4769843220710754,walking,2026-03-04_14-01-07
1772632871151436000,3.41843603515625,-0.5982250555422157,-0.9650856796219944,-1.073760281613469,0.1590810269117355,0.1263266801834106,0.4833969473838806,walking,2026-03-04_14-01-07
1772632871161385000,3.428385009765625,-0.6973847371481359,-1.049902947620675,-0.999609588253498,0.1914442479610443,0.1915076971054077,0.4841651022434234,walking,2026-03-04_14-01-07
1772632871171334100,3.438334228515625,-0.6958277169644832,-1.1282920822679996,-0.8952537262439727,0.2198242247104644,0.2294817119836807,0.4830103814601898,walking,2026-03-04_14-01-07
1772632871181283000,3.448282958984375,-0.6603317484304309,-1.1921239184483885,-0.667851330280304,0.2373297959566116,0.2098073214292526,0.4837302565574646,walking,2026-03-04_14-01-07
1772632871191232000,3.45823193359375,-0.6376194928195327,-1.267237903882563,-0.4225818537145853,0.2492778003215789,0.1391171663999557,0.4734989106655121,walking,2026-03-04_14-01-07
1772632871201182200,3.46818212890625,-0.668209715263918,-1.2976539388038215,-0.2960731966078281,0.2430714964866638,0.0382648110389709,0.4485548138618469,walking,2026-03-04_14-01-07
1772632871211131100,3.478131103515625,-0.768580599290505,-1.34143360542804,-0.2858604301512241,0.2282057255506515,-0.0439648143947124,0.3999750018119812,walking,2026-03-04_14-01-07
1772632871221080000,3.488080078125,-0.8944707591727376,-1.3369145205684003,-0.4095797488003969,0.203250303864479,-0.0745096653699874,0.339422196149826,walking,2026-03-04_14-01-07
1772632871231029000,3.498029052734375,-1.0352930421836677,-1.2529903289519249,-0.6267898365736008,0.1729166358709335,-0.0628945603966713,0.2750067114830017,walking,2026-03-04_14-01-07
1772632871240978000,3.50797802734375,-1.0516640390090644,-1.086683183811605,-0.8467109368711709,0.1506330668926239,-0.0278418753296136,0.2228696942329406,walking,2026-03-04_14-01-07
1772632871250926800,3.5179267578125,-0.9518950663983822,-0.8844128910169005,-1.0256161361694336,0.1352341473102569,-0.0019855110440403,0.181564062833786,walking,2026-03-04_14-01-07
1772632871260876000,3.5278759765625,-0.8562017457287758,-0.6496592555075883,-1.1481465372949835,0.1297693401575088,0.0180462542921304,0.1438483744859695,walking,2026-03-04_14-01-07
1772632871270825200,3.5378251953125,-0.7948067813064903,-0.4196072218179703,-1.2402671871095896,0.1306439191102981,0.0375355333089828,0.1050658375024795,walking,2026-03-04_14-01-07
1772632871280774100,3.547774169921875,-0.7116629994779825,-0.1526258257903158,-1.2799100461900232,0.1418433189392089,0.0451070927083492,0.0702254101634025,walking,2026-03-04_14-01-07
1772632871290723000,3.55772314453125,-0.6063602850724011,0.1672650303870439,-1.2689274644047022,0.1584848761558532,0.0495601631700992,0.0529044792056083,walking,2026-03-04_14-01-07
1772632871300672000,3.567672119140625,-0.4632247566830366,0.4630415821358561,-1.197809855130315,0.1779097914695739,0.0595175102353096,0.0591455288231372,walking,2026-03-04_14-01-07
1772632871310621000,3.577620849609375,-0.331235257012397,0.6527338406473397,-1.0900257722377775,0.1875195503234863,0.063341811299324,0.0733116790652275,walking,2026-03-04_14-01-07
1772632871320570000,3.587570068359375,-0.2278604419294744,0.779648009815067,-0.936859409829974,0.1968189030885696,0.0443617552518844,0.098736934363842,walking,2026-03-04_14-01-07
1772632871330519000,3.59751904296875,-0.1766213992100209,0.8931674214892089,-0.8023872264981269,0.205958604812622,0.0101507864892482,0.1243546828627586,walking,2026-03-04_14-01-07
1772632871340468000,3.607468017578125,-0.2387137713119387,0.9596781214900314,-0.7660702969700097,0.2223739326000213,-0.0169465094804763,0.1440785080194473,walking,2026-03-04_14-01-07
1772632871350417200,3.617417236328125,-0.3294835179742425,0.9665202424697578,-0.7422142050862311,0.2413540184497833,-0.0247833933681249,0.1588840931653976,walking,2026-03-04_14-01-07
1772632871360366000,3.627365966796875,-0.4298482645209878,0.9180540254645048,-0.7410901694923638,0.2642832696437835,0.0024035649839788,0.1714382171630859,walking,2026-03-04_14-01-07
1772632871370315000,3.63731494140625,-0.5633932500053197,0.8233284538485109,-0.659618923985958,0.2793535590171814,0.0563277825713157,0.1686999499797821,walking,2026-03-04_14-01-07
1772632871380265000,3.647264892578125,-0.6182787594683468,0.6750913645364344,-0.4789958148539066,0.2885735630989074,0.1133713796734809,0.153102844953537,walking,2026-03-04_14-01-07
1772632871390214000,3.6572138671875,-0.5755065893862397,0.5724304698765278,-0.2151443874150514,0.295928418636322,0.1539518237113952,0.1384495943784713,walking,2026-03-04_14-01-07
1772632871400162800,3.667162841796875,-0.4690617922734469,0.5358228868387639,0.0885240866273641,0.306526631116867,0.1717221438884735,0.118645466864109,walking,2026-03-04_14-01-07
1772632871410112300,3.6771123046875,-0.3212435128953307,0.5357701337382197,0.3982341789215803,0.3206006288528442,0.1859884262084961,0.1063461899757385,walking,2026-03-04_14-01-07
1772632871420061200,3.687061279296875,-0.1367046916242688,0.5888203175328671,0.6838052707374096,0.3408741950988769,0.1863311827182769,0.0916684418916702,walking,2026-03-04_14-01-07
1772632871430010000,3.697010009765625,0.0646512628044933,0.6858632261805236,0.9505196863919496,0.3669681251049042,0.1637723445892334,0.0757853537797927,walking,2026-03-04_14-01-07
1772632871439959000,3.706958984375,0.2413262188326567,0.8332870994135737,1.2422165676116943,0.3879126012325287,0.1134118065237999,0.0628912523388862,walking,2026-03-04_14-01-07
1772632871449908000,3.716907958984375,0.396362247569859,1.014527463661134,1.5851397781997918,0.3850358426570892,0.0207756161689758,0.0572394914925098,walking,2026-03-04_14-01-07
1772632871459857000,3.72685693359375,0.5302197330694646,1.1361790361255406,1.8742068954378368,0.3465678989887237,-0.0980445146560669,0.0550801083445549,walking,2026-03-04_14-01-07
1772632871469806000,3.73680615234375,0.6193834327746183,1.2436553682431577,2.0356208617091176,0.276203453540802,-0.2155341207981109,0.0524523667991161,walking,2026-03-04_14-01-07
1772632871479755000,3.746755126953125,0.6440686689589172,1.3373628488577902,1.9581512530595064,0.1939994096755981,-0.2922178506851196,0.0577918924391269,walking,2026-03-04_14-01-07
1772632871489704200,3.7567041015625,0.6096867991466075,1.4547491650931537,1.724032700583339,0.1052903234958648,-0.3083030879497528,0.0703697353601455,walking,2026-03-04_14-01-07
1772632871499653000,3.766653076171875,0.5390422872766852,1.5332238591320813,1.4543845695644615,0.0120948608964681,-0.2922089993953705,0.0936421602964401,walking,2026-03-04_14-01-07
1772632871509602000,3.77660205078125,0.4387599583163857,1.4664844649419189,1.1652601691812277,-0.0759564340114593,-0.2596651911735534,0.1057915017008781,walking,2026-03-04_14-01-07
1772632871519551000,3.786551025390625,0.2520958154544234,1.3640655623443425,0.8595207340836525,-0.1461225152015686,-0.2170460671186447,0.0905152037739753,walking,2026-03-04_14-01-07
1772632871529500000,3.7965,0.0074385525029152,1.2556702156856656,0.5854653080165386,-0.1999559253454208,-0.1939002722501754,0.0497267581522464,walking,2026-03-04_14-01-07
1772632871539449000,3.806448974609375,-0.1933205685438588,1.1546079883940517,0.3213040839761495,-0.2411298602819442,-0.1929801106452942,-0.0082768127322196,walking,2026-03-04_14-01-07
1772632871549398000,3.81639794921875,-0.315496749404259,1.059785093883425,0.0170914200544357,-0.2633896172046661,-0.1878295540809631,-0.0686932876706123,walking,2026-03-04_14-01-07
1772632871559348200,3.82634814453125,-0.4074635968966409,1.0309674340695143,-0.2840209397643804,-0.2699546217918396,-0.1757740080356598,-0.1311462968587875,walking,2026-03-04_14-01-07
1772632871569297200,3.836297119140625,-0.4187532718697562,1.0433955384880305,-0.5702455270528793,-0.2633121609687805,-0.1313274502754211,-0.1865624189376831,walking,2026-03-04_14-01-07
1772632871579246000,3.84624609375,-0.380935326661542,1.0396198193416,-0.7964718649744987,-0.2520060241222381,-0.040717527270317,-0.2254093438386917,walking,2026-03-04_14-01-07
1772632871589195000,3.856195068359375,-0.2668661356175318,1.040277698728442,-0.8943553160995245,-0.2396835833787918,0.0702590569853782,-0.2353679686784744,walking,2026-03-04_14-01-07
1772632871599144000,3.86614404296875,-0.0645008945483714,1.021306310146302,-0.810253722089529,-0.2268417179584503,0.1891178637742996,-0.2104142010211944,walking,2026-03-04_14-01-07
1772632871609092900,3.8760927734375,0.1483170957457274,0.912622940326482,-0.6294084946393966,-0.2087495326995849,0.291661262512207,-0.1683154851198196,walking,2026-03-04_14-01-07
1772632871619041800,3.886041748046875,0.2424683015398681,0.7781601093448698,-0.2885831331133842,-0.191955879330635,0.3506885468959808,-0.1235410794615745,walking,2026-03-04_14-01-07
1772632871628991200,3.8959912109375,0.2911466999910772,0.5290463784411549,0.1559691448688507,-0.1816092282533645,0.3581800162792206,-0.0881319567561149,walking,2026-03-04_14-01-07
1772632871638940200,3.905940185546875,0.300828136049956,0.2460305240660905,0.5886912843257188,-0.1766487956047058,0.316902220249176,-0.0608796514570713,walking,2026-03-04_14-01-07
1772632871648889000,3.91588916015625,0.315001842026785,-0.0226041921265423,0.9307605084329844,-0.1720806658267974,0.2436493188142776,-0.0434974655508995,walking,2026-03-04_14-01-07
1772632871658838000,3.925838134765625,0.3302827785931527,-0.2280618827857077,1.175358369347453,-0.1680637151002884,0.1630245596170425,-0.0285974647849798,walking,2026-03-04_14-01-07
1772632871668787000,3.935786865234375,0.2664412247363478,-0.3771462365768849,1.3098019111067056,-0.1644135862588882,0.0859100595116615,-0.0198279414325952,walking,2026-03-04_14-01-07
1772632871678736000,3.94573583984375,0.1842569355897605,-0.517953029757738,1.3536042279541491,-0.1664747595787048,0.0141602121293544,-0.0256760250777006,walking,2026-03-04_14-01-07
1772632871688685000,3.95568505859375,0.0916188377723097,-0.6359003408767283,1.3182079204022883,-0.1719217151403427,-0.0572860091924667,-0.0464790426194667,walking,2026-03-04_14-01-07
1772632871698634200,3.96563427734375,0.0231534965723752,-0.6948955506809056,1.2724796039283277,-0.1917880922555923,-0.1117654293775558,-0.0797473937273025,walking,2026-03-04_14-01-07
1772632871708583200,3.975583251953125,-0.017108517319709,-0.6859868525601923,1.1875158401310444,-0.2197699248790741,-0.1646635234355926,-0.1100336611270904,walking,2026-03-04_14-01-07
1772632871718532000,3.985531982421875,0.0051422582592815,-0.6250701731741428,0.9502589896291492,-0.2399068474769592,-0.2018301486968994,-0.1332689225673675,walking,2026-03-04_14-01-07
1772632871728481000,3.99548095703125,0.0355434609375894,-0.4811835341565311,0.5650450358003377,-0.2406242936849594,-0.1987060010433197,-0.1405643820762634,walking,2026-03-04_14-01-07
1772632871738431000,4.005430908203125,0.0822656107544898,-0.3479940841116011,0.2139320890158414,-0.2279587984085083,-0.1663155704736709,-0.1335204243659973,walking,2026-03-04_14-01-07
1772632871748380000,4.0153798828125,0.1234314416185021,-0.2814772466309368,-0.0384141940683126,-0.2047778517007827,-0.1150063201785087,-0.120533250272274,walking,2026-03-04_14-01-07
1772632871758328800,4.025328857421875,0.1463127701859921,-0.2777010890930891,-0.2074357127338647,-0.1752223372459411,-0.0613736510276794,-0.1141338124871254,walking,2026-03-04_14-01-07
1772632871768278000,4.035278076171875,0.1308756932098418,-0.3211547386333346,-0.258124281963706,-0.1448628455400467,-0.0197116918861866,-0.1162784546613693,walking,2026-03-04_14-01-07
1772632871778227200,4.045227294921875,0.1068595153935253,-0.4217196839272976,-0.1484241363167762,-0.1181681156158447,0.0026645921170711,-0.1335746049880981,walking,2026-03-04_14-01-07
1772632871788176100,4.055176025390625,0.0759862382240593,-0.5243281177476048,-0.0076420391857624,-0.1037084907293319,0.0025079981423914,-0.1633303761482238,walking,2026-03-04_14-01-07
1772632871798125000,4.065125,0.0660122489593923,-0.6279531812645495,0.0984492683142423,-0.098482072353363,-0.0015165011864155,-0.1987150460481643,walking,2026-03-04_14-01-07
1772632871808074000,4.075073974609375,0.0564739476982504,-0.7117876487709581,0.1515191797226667,-0.0951230302453041,-0.0047738132998347,-0.2407003045082092,walking,2026-03-04_14-01-07
1772632871818023000,4.08502294921875,0.1140821601234376,-0.7681785212956368,0.1776011309623718,-0.0944731310009956,0.004839249420911,-0.2732499539852142,walking,2026-03-04_14-01-07
1772632871827971600,4.0949716796875,0.2284142764199525,-0.8127557680383324,0.1952513539433479,-0.1008564606308937,0.015601348131895,-0.292353868484497,walking,2026-03-04_14-01-07
1772632871837920500,4.10492041015625,0.3505567742064595,-0.8613564250782132,0.2084066035926342,-0.1178484931588172,0.0066271582618355,-0.3099405765533447,walking,2026-03-04_14-01-07
1772632871847869400,4.114869384765625,0.446320529763773,-0.97350513292104,0.163033091905713,-0.1344932466745376,-0.0085792252793908,-0.3226853907108307,walking,2026-03-04_14-01-07
1772632871857818400,4.124818359375,0.4778970598317682,-1.0435916455820202,0.0323304902404546,-0.1435992270708084,-0.031081574037671,-0.338228166103363,walking,2026-03-04_14-01-07
1772632871867767300,4.134767333984375,0.4568849592022597,-1.0706083934538069,-0.2072936739146709,-0.138736292719841,-0.0460504032671451,-0.3495926558971405,walking,2026-03-04_14-01-07
1772632871877716200,4.14471630859375,0.4681221002705395,-1.091992980657518,-0.4952455233871936,-0.1179193258285522,-0.0446720458567142,-0.3520668447017669,walking,2026-03-04_14-01-07
1772632871887665400,4.15466552734375,0.4935754712831228,-1.0538519044421613,-0.7537053209155797,-0.0790965631604194,-0.0328630581498146,-0.3377379775047302,walking,2026-03-04_14-01-07
1772632871897614600,4.164614501953125,0.5313694145612419,-1.022388333229348,-1.018128995284438,-0.0213244371116161,0.0003249465953558,-0.3141723871231079,walking,2026-03-04_14-01-07
1772632871907563500,4.1745634765625,0.5438821285232901,-0.980117755993828,-1.1436679305762052,0.0489867404103279,0.0376744456589221,-0.280019462108612,walking,2026-03-04_14-01-07
1772632871917513500,4.184513427734375,0.5632188432864844,-0.931255306212604,-1.117787639388442,0.1216166540980339,0.056641899049282,-0.2466208189725875,walking,2026-03-04_14-01-07
1772632871927462400,4.19446240234375,0.6063525401573627,-0.9103932815782724,-0.95292499396801,0.1898138225078582,0.0544154942035675,-0.2108021080493927,walking,2026-03-04_14-01-07
1772632871937411300,4.204411376953125,0.6459609124463052,-0.8676924962319433,-0.7028922485232353,0.2451265454292297,0.0373171530663967,-0.1790809482336044,walking,2026-03-04_14-01-07
1772632871947360500,4.214360595703125,0.7282112525664269,-0.817822842169553,-0.4617874904215335,0.2891816198825836,0.0195123236626386,-0.1461863815784454,walking,2026-03-04_14-01-07
1772632871957309400,4.224309326171875,0.839888689635694,-0.7772446019351482,-0.2215501628041267,0.3157134354114532,0.0036168373189866,-0.1088489592075347,walking,2026-03-04_14-01-07
1772632871967258400,4.23425830078125,0.9219667419288308,-0.7124962354317307,0.0505319173634052,0.3189409077167511,-0.0145459212362766,-0.0683063268661499,walking,2026-03-04_14-01-07
1772632871977207300,4.244207275390625,0.9998225734170526,-0.6583933277137577,0.2636164496392011,0.307124525308609,-0.0387042723596096,-0.0309260543435812,walking,2026-03-04_14-01-07
1772632871987156500,4.254156494140625,1.050351495105773,-0.6464025917991996,0.4057914624333381,0.2851342558860779,-0.0592747926712036,0.0020718423184007,walking,2026-03-04_14-01-07
1772632871997105400,4.26410546875,1.0777733166471124,-0.612226327561587,0.4279419194430112,0.260304182767868,-0.0908229723572731,0.0261941887438297,walking,2026-03-04_14-01-07
1772632872007054300,4.274054443359375,1.0468011091478169,-0.5337057485543191,0.3690180213093757,0.2369655668735504,-0.1231803819537162,0.0437374971807003,walking,2026-03-04_14-01-07
1772632872017003300,4.284003173828125,0.9997555725954472,-0.4299094201236963,0.2830839511752128,0.2076737731695175,-0.152866244316101,0.0610772296786308,walking,2026-03-04_14-01-07
1772632872026952400,4.293952392578125,0.8835599274493754,-0.3065158262975513,0.1387555597394704,0.1700236052274704,-0.1640512645244598,0.0807092487812042,walking,2026-03-04_14-01-07
1772632872036901400,4.3039013671875,0.6975078520711511,-0.2281502917215228,-0.0805184748262167,0.1319514662027359,-0.1411514282226562,0.0891619622707367,walking,2026-03-04_14-01-07
1772632872046850600,4.3138505859375,0.5338054826017469,-0.1777306025609374,-0.3102490214765072,0.0955031886696815,-0.1045452207326889,0.0810539722442627,walking,2026-03-04_14-01-07
1772632872056799500,4.323799560546875,0.4577648838419467,-0.1273820789404213,-0.4752133737057447,0.0648986399173736,-0.0827274024486541,0.0705297738313674,walking,2026-03-04_14-01-07
1772632872066748400,4.33374853515625,0.4563476374551654,-0.0375980553798377,-0.5764040496826172,0.0294833946973085,-0.1060724109411239,0.0596315898001194,walking,2026-03-04_14-01-07
1772632872076697300,4.343697265625,0.4120437277611344,0.0575586011298,-0.6234247440546751,-0.0200302731245756,-0.1669820696115493,0.0526854395866394,walking,2026-03-04_14-01-07
1772632872086646300,4.353646240234375,0.2180740841913968,0.1822517332471907,-0.7626350618243217,-0.0815759226679802,-0.2272326201200485,0.0321647189557552,walking,2026-03-04_14-01-07
1772632872096595500,4.363595458984375,-0.0275839533004909,0.3335033480748534,-1.0511147345632317,-0.1418328285217285,-0.2399225234985351,0.0001522188540548,walking,2026-03-04_14-01-07
1772632872106545400,4.37354541015625,-0.2626815434092656,0.4877440617159008,-1.494640007585287,-0.1809301674365997,-0.1825263351202011,-0.03845189884305,walking,2026-03-04_14-01-07
1772632872116494300,4.383494384765625,-0.371075026904419,0.7521069458082318,-1.9519085592776533,-0.1768514811992645,-0.0607521757483482,-0.0556391105055809,walking,2026-03-04_14-01-07
1772632872126443300,4.393443359375,-0.3103982206888496,1.0597020917750894,-2.262342289671302,-0.1263470351696014,0.092948704957962,-0.0353349037468433,walking,2026-03-04_14-01-07
1772632872136392400,4.403392333984375,-0.1602854371653869,1.319983259511739,-2.3390993661373853,-0.0277339536696672,0.2289124131202697,0.0180384032428264,walking,2026-03-04_14-01-07
1772632872146341400,4.41334130859375,0.0480994660520926,1.494922477788478,-2.171758347904682,0.1043228805065155,0.321730762720108,0.0939542055130004,walking,2026-03-04_14-01-07
1772632872156290300,4.423290283203125,0.1910505047200247,1.589139661490917,-1.7119968103528025,0.2366314232349395,0.3437467515468597,0.174922302365303,walking,2026-03-04_14-01-07
1772632872166239500,4.433239501953125,0.1618167749185115,1.5535174362286923,-1.0429232448011636,0.3369543254375458,0.3050110638141632,0.2362945824861526,walking,2026-03-04_14-01-07
1772632872176188400,4.4431884765625,-0.0078216335363686,1.4006743144258855,-0.3711982879579067,0.4005374014377594,0.2452800869941711,0.2677163779735565,walking,2026-03-04_14-01-07
1772632872186137300,4.453137451171875,-0.2717942762020975,1.2254146320231258,0.1622773051023483,0.4322383403778076,0.1999581456184387,0.2665941119194031,walking,2026-03-04_14-01-07
1772632872196086500,4.46308642578125,-0.5178017116535455,1.0826058513700962,0.5425397740036249,0.4382066130638122,0.1816690415143966,0.2414129376411438,walking,2026-03-04_14-01-07
1772632872206035500,4.473035400390625,-0.7822740474697202,1.0127125231936571,0.8309563183784484,0.4208369553089142,0.1918569654226303,0.199256420135498,walking,2026-03-04_14-01-07
1772632872215984400,4.482984375,-0.9868559782076628,0.990848920301348,1.0860440091252326,0.3819935321807861,0.2075984925031662,0.15227110683918,walking,2026-03-04_14-01-07
1772632872225933300,4.492933349609375,-1.1098132995083927,0.9272779270142316,1.2994178797364233,0.3319119811058044,0.2192713916301727,0.1037283316254615,walking,2026-03-04_14-01-07
1772632872235882500,4.502882568359375,-1.1904534279529004,0.8601058404952288,1.4957564443945883,0.2726243734359741,0.2083524465560913,0.0476177856326103,walking,2026-03-04_14-01-07
1772632872245831400,4.51283154296875,-1.2976413715831934,0.8341032381020486,1.6632675584971903,0.2009088993072509,0.1699723005294799,-0.0183087661862373,walking,2026-03-04_14-01-07
1772632872255780400,4.5227802734375,-1.405695649719238,0.7795182459555566,1.727830923822522,0.1192663162946701,0.1234204322099685,-0.0929758921265602,walking,2026-03-04_14-01-07
1772632872265729500,4.5327294921875,-1.5311059901952742,0.7605480264171958,1.746067422258854,0.0264620780944824,0.0800409913063049,-0.176106721162796,walking,2026-03-04_14-01-07
1772632872275678500,4.542678466796875,-1.6376017868429422,0.7835936787009239,1.686918483197689,-0.0759991332888603,0.0462932996451854,-0.2613596320152282,walking,2026-03-04_14-01-07
1772632872285627400,4.55262744140625,-1.6164068769924342,0.8156912369683385,1.4690274274230002,-0.1634749174118042,0.0575219877064228,-0.3249157071113586,walking,2026-03-04_14-01-07
1772632872295577300,4.562577392578125,-1.552476841134578,0.9304396059155464,1.1939759760558604,-0.2328492850065231,0.0854618325829505,-0.3665855824947357,walking,2026-03-04_14-01-07
1772632872305526500,4.572526611328125,-1.4108992097117006,1.070707323783636,0.9707371295124292,-0.2789350152015686,0.1012317389249801,-0.37896928191185,walking,2026-03-04_14-01-07
1772632872315475500,4.582475341796875,-1.137536661279574,1.131363306406885,0.7062316220790147,-0.2933272123336792,0.1059801429510116,-0.355598896741867,walking,2026-03-04_14-01-07
1772632872325424400,4.59242431640625,-0.8843181984707713,1.125789597927779,0.5064537306219339,-0.2855691611766815,0.099855937063694,-0.3067645132541656,walking,2026-03-04_14-01-07
1772632872335373300,4.602373291015625,-0.7747472321614622,1.014581824196875,0.4232949704200029,-0.2754212617874145,0.0639301016926765,-0.2538807392120361,walking,2026-03-04_14-01-07
1772632872345322500,4.612322509765625,-0.7770961333751678,0.7697235587805509,0.4460989229023456,-0.2795275747776031,-0.0007194599602371,-0.224415510892868,walking,2026-03-04_14-01-07
1772632872355271400,4.622271484375,-0.8427192368865013,0.4586342870876193,0.4554939432352781,-0.2924732565879822,-0.0715537965297699,-0.2231844663619995,walking,2026-03-04_14-01-07
1772632872365220400,4.632220458984375,-0.9539461537092924,0.1689915619187056,0.3884679871886968,-0.3187077939510345,-0.1308956742286682,-0.2473033815622329,walking,2026-03-04_14-01-07
1772632872375169500,4.64216943359375,-1.0833070584420117,-0.056875148910284,0.2485240944474935,-0.3520627021789551,-0.1471332013607025,-0.2863113582134247,walking,2026-03-04_14-01-07
1772632872385118500,4.652118408203125,-1.0584132210083306,-0.2455054772786796,0.0606166735261678,-0.3851223886013031,-0.132986232638359,-0.3223492503166199,walking,2026-03-04_14-01-07
1772632872395067400,4.6620673828125,-0.8555435740809887,-0.3420424822308123,-0.1789297492176294,-0.3919174373149872,-0.1072925850749015,-0.329405814409256,walking,2026-03-04_14-01-07
1772632872405016300,4.672016357421875,-0.5717390535462648,-0.3488626836396754,-0.4204816665649414,-0.3673010468482971,-0.0787035524845123,-0.3075593709945678,walking,2026-03-04_14-01-07
1772632872414965500,4.681965576171875,-0.3401384021751582,-0.3376972926333546,-0.6566653348773718,-0.3032726645469665,-0.039776898920536,-0.2689033448696136,walking,2026-03-04_14-01-07
1772632872424914400,4.69191455078125,-0.1616084659300744,-0.3434476728536188,-0.7551280471950769,-0.2135177254676818,-0.0160997956991195,-0.2280962765216827,walking,2026-03-04_14-01-07
1772632872434863400,4.70186328125,-0.0778830848213285,-0.4029376804374158,-0.6719090812385082,-0.1219226792454719,-0.0290101114660501,-0.1962813138961792,walking,2026-03-04_14-01-07
1772632872444812300,4.711812255859375,-0.0411433998364955,-0.5102946239590644,-0.4601572588711977,-0.0511363931000232,-0.0622679330408573,-0.1796144545078277,walking,2026-03-04_14-01-07
1772632872454761500,4.721761474609375,-0.111295525079593,-0.5969365501016378,-0.1657832673966884,-0.0145373288542032,-0.0974731296300888,-0.1856267750263214,walking,2026-03-04_14-01-07
1772632872464710400,4.73171044921875,-0.2017760064717382,-0.6446123473815619,0.1038449898779392,-0.0127767119556665,-0.1088919639587402,-0.2019814997911453,walking,2026-03-04_14-01-07
1772632872474659300,4.741659423828125,-0.2685937265951186,-0.6705714028939604,0.3027098581433296,-0.0471424125134944,-0.0902570933103561,-0.2251204997301101,walking,2026-03-04_14-01-07
1772632872484609300,4.751609375,-0.2693429375272244,-0.6899649624109268,0.473851437702775,-0.1068124026060104,-0.0598898641765117,-0.2406789511442184,walking,2026-03-04_14-01-07
1772632872494558200,4.76155810546875,-0.1745023612294346,-0.6530994590893388,0.5392845715999603,-0.1681112200021743,-0.0280861891806125,-0.2412744611501693,walking,2026-03-04_14-01-07
1772632872504507400,4.77150732421875,-0.0720925187211483,-0.5672597892403602,0.5056085119694471,-0.2127316892147064,0.0043154275044798,-0.2275083214044571,walking,2026-03-04_14-01-07
1772632872514456600,4.78145654296875,0.0306678177252411,-0.4551262789666652,0.4347089293599128,-0.2347207367420196,0.0130030894652009,-0.2011512219905853,walking,2026-03-04_14-01-07
1772632872524405500,4.791405517578125,0.1098798861280083,-0.3582744359117001,0.3298527166128158,-0.2313542366027832,-0.013065262697637,-0.1737792491912841,walking,2026-03-04_14-01-07
1772632872534354400,4.8013544921875,0.1564195920500904,-0.2751498702403158,0.1713514229178428,-0.1984462589025497,-0.0386975482106208,-0.1436927020549774,walking,2026-03-04_14-01-07
1772632872544303400,4.811303466796875,0.1983678785286843,-0.1760882421813905,0.0436865815132856,-0.1546907871961593,-0.0638204738497734,-0.1026435270905494,walking,2026-03-04_14-01-07
1772632872554252300,4.821252197265625,0.2367468551531434,-0.1193007715545594,-0.0344862069696187,-0.1162177473306655,-0.0799258649349212,-0.0494104139506816,walking,2026-03-04_14-01-07
1772632872564201500,4.831201416015625,0.2221863418158143,-0.1288013711538165,-0.0971066215336322,-0.0782005935907363,-0.065840408205986,0.0072778998874127,walking,2026-03-04_14-01-07
1772632872574150400,4.841150390625,0.1896923315767198,-0.1763269463080912,-0.1091840128183364,-0.045305673032999,-0.0273019522428512,0.0624498687684536,walking,2026-03-04_14-01-07
1772632872584099300,4.851099365234375,0.1418777103479951,-0.2433117666266858,-0.0069943889319896,-0.0278169624507427,0.0232515018433332,0.1156837940216064,walking,2026-03-04_14-01-07
1772632872594048500,4.861048583984375,0.1083798568286001,-0.340158056723699,0.2038420721560716,-0.0271301716566085,0.050797913223505,0.1567418426275253,walking,2026-03-04_14-01-07
1772632872603997400,4.87099755859375,0.0848812731456011,-0.4457780934501439,0.4478489814400672,-0.0362983681261539,0.0538483001291751,0.1878331899642944,walking,2026-03-04_14-01-07
1772632872613946400,4.8809462890625,0.0472048918325454,-0.5428990357700735,0.6106096861451864,-0.0488987192511558,0.0429783798754215,0.2077081650495529,walking,2026-03-04_14-01-07
1772632872623895300,4.890895263671875,0.0485803449042141,-0.5973909428056329,0.7275228319108485,-0.064566358923912,0.0344562642276287,0.2207491397857666,walking,2026-03-04_14-01-07
1772632872633844500,4.900844482421875,0.0394151878044009,-0.6514909279141575,0.7726449991852045,-0.0730565190315246,0.0311438888311386,0.2301653921604156,walking,2026-03-04_14-01-07
1772632872643793400,4.91079345703125,0.0400658337328583,-0.6725846424125135,0.7683318121612072,-0.0802537128329277,0.0281028263270854,0.2361210286617279,walking,2026-03-04_14-01-07
1772632872653742300,4.920742431640625,0.1014623325251042,-0.6758927440471947,0.7738882772445679,-0.0869209393858909,0.0122912321239709,0.2442575097084045,walking,2026-03-04_14-01-07
1772632872663691500,4.93069140625,0.1948125971999019,-0.6434994177035988,0.736613900861144,-0.0887854173779487,-0.0300250649452209,0.2577674686908722,walking,2026-03-04_14-01-07
1772632872673641500,4.940641357421875,0.2336534922476857,-0.5918543514665215,0.6423287664890289,-0.0942485779523849,-0.0875829681754112,0.2717230021953583,walking,2026-03-04_14-01-07
1772632872683590400,4.95059033203125,0.2172927976205945,-0.5163056278768926,0.4389420368850231,-0.1024694964289665,-0.1240898519754409,0.2869243323802948,walking,2026-03-04_14-01-07
1772632872693539300,4.960539306640625,0.1379256847865879,-0.4640818849690258,0.1651958228975534,-0.1162303239107132,-0.1282932460308075,0.3042609691619873,walking,2026-03-04_14-01-07
1772632872703488300,4.97048828125,-0.0442706650115549,-0.4686565724734217,-0.1941056910395622,-0.132024735212326,-0.0913200452923774,0.3118158280849457,walking,2026-03-04_14-01-07
1772632872713437400,4.9804375,-0.216321906761825,-0.5005334006622434,-0.5657295109331607,-0.136959820985794,-0.0197655726224184,0.3107199370861053,walking,2026-03-04_14-01-07
1772632872723386400,4.990386474609375,-0.2674905876588076,-0.5347593492604792,-0.8777999026179313,-0.1228408142924308,0.0520447008311748,0.3244993984699249,walking,2026-03-04_14-01-07
1772632872733335600,5.00033544921875,-0.2109060922581702,-0.601444455980137,-1.1265823557406662,-0.0796105191111564,0.0994234010577201,0.3617570102214813,walking,2026-03-04_14-01-07
1772632872743284500,5.010284423828125,-0.1312690033763647,-0.6631129035815596,-1.3407809867382048,-0.0083435270935297,0.1254011988639831,0.4171513020992279,walking,2026-03-04_14-01-07
1772632872753233400,5.0202333984375,-0.17923633094877,-0.7221432577643543,-1.454102245491743,0.0813265070319175,0.1434372663497924,0.4707084596157074,walking,2026-03-04_14-01-07
1772632872763182300,5.030182373046875,-0.3354424263786524,-0.8721688379283994,-1.440946411320567,0.1627097725868225,0.140821486711502,0.5027947425842285,walking,2026-03-04_14-01-07
1772632872773131300,5.04013134765625,-0.4983570795364677,-1.0721703820735216,-1.2668471509993076,0.217607095837593,0.1143551990389823,0.5180343389511108,walking,2026-03-04_14-01-07
1772632872783080400,5.05008056640625,-0.687348423236981,-1.3329913557752966,-1.0886737731069325,0.2500164210796356,0.0740226879715919,0.5054314732551575,walking,2026-03-04_14-01-07
1772632872793029400,5.060029296875,-0.9004448651462793,-1.5078373428106306,-1.003622915548086,0.2625457644462585,0.0437651239335536,0.465345561504364,walking,2026-03-04_14-01-07
1772632872802978600,5.069978515625,-1.011367026868835,-1.5878412922434508,-0.9639595982015132,0.2666675150394439,0.0050036148168146,0.4164464771747589,walking,2026-03-04_14-01-07
1772632872812927500,5.079927490234375,-0.9895568346641958,-1.5944629023402928,-0.9764151751488448,0.2613758444786072,-0.0365277118980884,0.3629829883575439,walking,2026-03-04_14-01-07
1772632872822876400,5.08987646484375,-0.9527463494654744,-1.4941709287688136,-0.9644996964275836,0.2377293556928634,-0.0895488560199737,0.2974343597888946,walking,2026-03-04_14-01-07
1772632872832825300,5.099825439453125,-0.9622906420759856,-1.2904746948242187,-0.918006240800023,0.1789545565843582,-0.1636573821306228,0.2195562273263931,walking,2026-03-04_14-01-07
1772632872842774300,5.109774169921875,-1.0088217263001948,-0.9775259128697216,-0.9577765256524086,0.0972279980778694,-0.2404842525720596,0.1313613802194595,walking,2026-03-04_14-01-07
1772632872852723500,5.119723388671875,-1.059040997517854,-0.5167261183112859,-1.18929570928514,0.0204796008765697,-0.2904694378376007,0.0478756427764892,walking,2026-03-04_14-01-07
1772632872862673400,5.12967333984375,-1.0751287204224615,0.0701052173614501,-1.611557245004177,-0.0149050205945968,-0.267691433429718,-0.0164181254804134,walking,2026-03-04_14-01-07
1772632872872622600,5.13962255859375,-0.9646736647550016,0.6505212791644036,-2.120238588547706,-0.0007923976518213,-0.1642321348190307,-0.0502991266548633,walking,2026-03-04_14-01-07
1772632872882571500,5.149571533203125,-0.6435591850668192,1.1767504082277416,-2.4258909298837183,0.0516281984746456,-0.0427075773477554,-0.0316636562347412,walking,2026-03-04_14-01-07
1772632872892520400,5.1595205078125,-0.2078175516583025,1.5717086342185735,-2.4963649805575607,0.1433357894420623,0.0776844695210456,0.0537539273500442,walking,2026-03-04_14-01-07
1772632872902469400,5.169469482421875,0.1722643730442971,1.8562192571960388,-2.287082763174176,0.2452461719512939,0.1741260588169098,0.1740337312221527,walking,2026-03-04_14-01-07
1772632872912418300,5.179418212890625,0.2947822800144553,1.9134619242444637,-1.772570813781023,0.3269148468971252,0.235649824142456,0.2882008552551269,walking,2026-03-04_14-01-07
1772632872922367200,5.1893671875,0.2513418552819639,1.684564905808866,-1.0333388393759726,0.362119197845459,0.268046110868454,0.3672583997249603,walking,2026-03-04_14-01-07
1772632872932316400,5.19931640625,0.110968338951841,1.2665583971858023,-0.2514204004108906,0.3453350365161896,0.266911506652832,0.3895876705646515,walking,2026-03-04_14-01-07
1772632872942265600,5.209265625,-0.0878114083133637,0.8019574567787349,0.418438178038597,0.2939085960388183,0.2326446026563644,0.3591091334819793,walking,2026-03-04_14-01-07
1772632872952214500,5.219214599609375,-0.2254736929234117,0.467441278399527,0.843708247923851,0.2369142919778823,0.19054014980793,0.2990446984767914,walking,2026-03-04_14-01-07
1772632872962163500,5.22916357421875,-0.2902582267187535,0.338277576739341,1.0538350994378327,0.1936584413051605,0.1605441719293594,0.2312946766614914,walking,2026-03-04_14-01-07
1772632872972112400,5.2391123046875,-0.2326276563312858,0.3214455382734537,1.1153010832697152,0.172842189669609,0.161493569612503,0.1722665578126907,walking,2026-03-04_14-01-07
1772632872982061300,5.249061279296875,-0.0775576522592455,0.4046677191004156,1.1240957996219396,0.173258975148201,0.1786760240793228,0.1356467604637146,walking,2026-03-04_14-01-07
1772632872992010200,5.25901025390625,0.1528346462354063,0.5995274433776736,1.2019137833178042,0.183972880244255,0.1864818036556244,0.1187533885240554,walking,2026-03-04_14-01-07
1772632873001959400,5.26895947265625,0.4365910898447036,0.7984833509273827,1.313305535313487,0.2004144340753555,0.1656779944896698,0.1283990889787674,walking,2026-03-04_14-01-07
1772632873011908400,5.278908447265625,0.6478130431190132,0.936108006940782,1.43070208068192,0.2139815986156463,0.115127757191658,0.1505066454410553,walking,2026-03-04_14-01-07
1772632873021857500,5.288857421875,0.7509788185611367,1.051572415202856,1.57165894985795,0.2197308242321014,0.0567635148763656,0.1662382036447525,walking,2026-03-04_14-01-07
1772632873031806500,5.298806396484375,0.7135672987293452,1.195627834916115,1.6656635137230156,0.2077686637639999,-0.0579909533262252,0.1685644537210464,walking,2026-03-04_14-01-07
1772632873041755400,5.30875537109375,0.7115300207480788,1.2894395065575837,1.7651608297854662,0.1714897453784942,-0.1938899308443069,0.1847295761108398,walking,2026-03-04_14-01-07
1772632873052327400,5.319327392578125,0.7940233758438379,1.3345986448414624,1.7453151425868272,0.1169951781630516,-0.3134681582450866,0.2098357677459716,walking,2026-03-04_14-01-07
1772632873062276400,5.3292763671875,0.6741296798974276,1.4160839188732206,1.514175898182392,0.0506321303546428,-0.3840128779411316,0.2294677942991256,walking,2026-03-04_14-01-07
1772632873072225300,5.339225341796875,0.4253236997686326,1.4384915655143558,1.1425368807196616,-0.0132647389546036,-0.3674086332321167,0.2412379384040832,walking,2026-03-04_14-01-07
1772632873082174200,5.34917431640625,0.1681950047135353,1.3861884006947278,0.7222808396041392,-0.0667881518602371,-0.2808356583118438,0.236996591091156,walking,2026-03-04_14-01-07
1772632873092123400,5.359123291015625,-0.0099596684783697,1.2892751097761097,0.3861649709433317,-0.0995407700538635,-0.1916900128126144,0.2190653830766677,walking,2026-03-04_14-01-07
1772632873102072600,5.369072509765625,-0.1285055300123989,1.2025086804710328,0.1795107639759779,-0.1150723248720169,-0.142704889178276,0.1828269511461258,walking,2026-03-04_14-01-07
1772632873112021500,5.379021484375,-0.2382808597873896,1.0746182136170566,0.0740185914129018,-0.121960774064064,-0.1486321836709976,0.1277392357587814,walking,2026-03-04_14-01-07
1772632873121970400,5.388970458984375,-0.33574520871751,0.9686797585912048,0.0595686257779598,-0.1452208161354065,-0.2020266950130462,0.0560842268168926,walking,2026-03-04_14-01-07
1772632873131919400,5.39891943359375,-0.4689117162782699,0.8839255458913743,-0.0121633160024881,-0.1810741126537323,-0.25801682472229,-0.0278702862560749,walking,2026-03-04_14-01-07
1772632873141868300,5.408868408203125,-0.5373216009639203,0.8546795776627958,-0.223517078962922,-0.2247909605503082,-0.2590892612934112,-0.1085462197661399,walking,2026-03-04_14-01-07
1772632873151817200,5.418817138671875,-0.5571254583148285,0.8799119263358414,-0.4705769460767507,-0.2750626504421234,-0.2174219787120819,-0.1800332069396972,walking,2026-03-04_14-01-07
1772632873161766400,5.428766357421875,-0.4412812204223126,0.9157020555108784,-0.6305518194556236,-0.3008322119712829,-0.0705680921673774,-0.2257828563451767,walking,2026-03-04_14-01-07
1772632873171715600,5.438715576171875,-0.1605112087452784,0.9814306652233004,-0.99749829518795,-0.2782784700393677,0.140137568116188,-0.2097876667976379,walking,2026-03-04_14-01-07
1772632873181664500,5.44866455078125,0.0618238938914611,1.1725276759661734,-1.047142908322811,-0.2182710617780685,0.3145615458488464,-0.1606843024492263,walking,2026-03-04_14-01-07
1772632873191613400,5.458613525390625,0.3838960396306589,1.1566355486989022,-0.7195218962848186,-0.1443072259426117,0.4021976590156555,-0.0938030555844307,walking,2026-03-04_14-01-07
1772632873201562400,5.468562255859375,0.6258094472341239,0.955110521313548,-0.1231225217998027,-0.0836952701210975,0.3650715947151184,-0.0358353592455387,walking,2026-03-04_14-01-07
1772632873211511300,5.47851123046875,0.6841739579193293,0.7136275775492191,0.4930518127351999,-0.0462506115436553,0.2760313749313354,0.0028642851393669,walking,2026-03-04_14-01-07
1772632873221460200,5.488460205078125,0.6429116809435188,0.4591868064038455,0.97183603066504,-0.0332509241998195,0.1817144602537155,0.0217375755310058,walking,2026-03-04_14-01-07
1772632873231409400,5.498409423828125,0.5202949167087674,0.2226410267807543,1.2836053935766218,-0.047273613512516,0.1012573167681694,0.0231079794466495,walking,2026-03-04_14-01-07
1772632873241358600,5.508358642578125,0.3665885291401297,0.0205015207588672,1.4664584537178278,-0.0874873474240303,0.0581644438207149,0.0122758373618125,walking,2026-03-04_14-01-07
1772632873251308500,5.51830859375,0.2395726531635969,-0.148657652811706,1.5656956575393677,-0.1466543078422546,0.0282564237713813,-0.0088156163692474,walking,2026-03-04_14-01-07
1772632873261257500,5.528257568359375,0.154129654482007,-0.269786078184843,1.601120606663823,-0.217547133564949,-0.0044178985990583,-0.0376477986574173,walking,2026-03-04_14-01-07
1772632873271206400,5.538206298828125,0.1021939347352832,-0.3542975681699812,1.5118454094082117,-0.2752302885055542,-0.0419830717146396,-0.070073202252388,walking,2026-03-04_14-01-07
1772632873281155300,5.5481552734375,0.0806187203302979,-0.3697856446810066,1.2790595668405291,-0.3128317296504974,-0.0864213779568672,-0.0980142951011657,walking,2026-03-04_14-01-07
1772632873291104300,5.558104248046875,0.0792997466862201,-0.308792685188353,0.9421510864973068,-0.3147658705711365,-0.128880113363266,-0.1112993955612182,walking,2026-03-04_14-01-07
1772632873301053400,5.568053466796875,0.1200146919775754,-0.2147676630571484,0.5631523539215326,-0.2866157293319702,-0.1617480516433715,-0.112538568675518,walking,2026-03-04_14-01-07
1772632873311002400,5.57800244140625,0.1320119306981563,-0.1450786252811551,0.2502104400992393,-0.2445670515298843,-0.1852291524410247,-0.0998425036668777,walking,2026-03-04_14-01-07
1772632873320951600,5.58795166015625,0.1026837640788406,-0.1338704180464148,-0.0134434189409017,-0.2037911266088485,-0.1898193806409835,-0.0916138663887977,walking,2026-03-04_14-01-07
1772632873330900500,5.597900390625,-0.0216058287389576,-0.1864993076890707,-0.1638999378681182,-0.1747530996799469,-0.1797052174806594,-0.094634935259819,walking,2026-03-04_14-01-07
1772632873340849400,5.607849365234375,-0.1387404352355748,-0.2662223943538964,-0.2644096458435058,-0.1557269394397735,-0.1487845778465271,-0.1146595105528831,walking,2026-03-04_14-01-07
1772632873350798300,5.61779833984375,-0.2512460302246734,-0.3868981805887073,-0.3418804235368967,-0.1438180357217788,-0.1095176190137863,-0.1423511803150177,walking,2026-03-04_14-01-07
1772632873360747300,5.627747314453125,-0.316301855242066,-0.4623959046434611,-0.325534853413701,-0.1413871049880981,-0.0823027789592742,-0.1767190098762512,walking,2026-03-04_14-01-07
1772632873370696200,5.6376962890625,-0.3124865347376093,-0.5494529874581844,-0.3287286810189485,-0.1343359500169754,-0.0556947104632854,-0.2080436795949936,walking,2026-03-04_14-01-07
1772632873381266400,5.648266357421875,-0.2540390584766864,-0.6266563463870436,-0.3210843037456274,-0.1133616939187049,-0.029397327452898,-0.2415481060743332,walking,2026-03-04_14-01-07
1772632873391215400,5.65821533203125,-0.1592175522055476,-0.6625641105923801,-0.2525537883549928,-0.0910949036478996,-0.0275756176561117,-0.263042151927948,walking,2026-03-04_14-01-07
1772632873401164300,5.668164306640625,-0.0754082922056317,-0.7354498255178332,-0.15660452016294,-0.06132822483778,-0.0382138825953006,-0.2824944257736206,walking,2026-03-04_14-01-07
1772632873411113500,5.678113525390625,-0.0535804547464475,-0.8176276118583977,-0.1386690504997968,-0.022280378267169,-0.0405636057257652,-0.3015643954277038,walking,2026-03-04_14-01-07
1772632873421062400,5.6880625,-0.070155084385164,-0.8904140311278402,-0.1451736100882291,0.0185525380074977,-0.0307330768555402,-0.3314879536628723,walking,2026-03-04_14-01-07
1772632873431011300,5.69801123046875,-0.062003707437776,-0.9683687198806552,-0.0707218879550695,0.0486219301819801,-0.0333647802472114,-0.3611443936824798,walking,2026-03-04_14-01-07
1772632873440960500,5.70796044921875,0.0093257179563865,-1.0326499072637407,0.1201607493847608,0.0510824248194694,-0.0511182099580764,-0.380492240190506,walking,2026-03-04_14-01-07
1772632873450909400,5.717909423828125,0.1087424065306782,-1.0842045918036252,0.301411050504446,0.0352024435997009,-0.0869767963886261,-0.3867266476154327,walking,2026-03-04_14-01-07
1772632873460859400,5.727859375,0.1980921303272247,-1.1181374026741833,0.3469704401522874,0.0086720334365963,-0.124721772968769,-0.3959092199802398,walking,2026-03-04_14-01-07
1772632873470808600,5.73780859375,0.1994473077958449,-1.169436139691621,0.2241395947754383,-0.0121421236544847,-0.131325364112854,-0.4084504246711731,walking,2026-03-04_14-01-07
1772632873480757500,5.747757568359375,0.1303393578434362,-1.1709716786958275,0.0217921450912952,-0.0156066287308931,-0.1135772615671157,-0.4238506853580475,walking,2026-03-04_14-01-07
1772632873490706400,5.75770654296875,0.1538444077998399,-1.1067287044312804,-0.1326245096385478,-0.007974412292242,-0.1151054054498672,-0.4315917491912842,walking,2026-03-04_14-01-07
1772632873500655400,5.7676552734375,0.2863601963669061,-1.062237090145424,-0.2478378657490015,0.0153455575928092,-0.1228831708431243,-0.4329033493995666,walking,2026-03-04_14-01-07
1772632873510604300,5.777604248046875,0.4273591876516118,-0.9808099029764532,-0.3564385257214307,0.0503767803311347,-0.1354706138372421,-0.4252148270606994,walking,2026-03-04_14-01-07
1772632873520553500,5.787553466796875,0.6045811831032857,-0.8712716698929667,-0.3910299466311931,0.0884285569190979,-0.1522679626941681,-0.4066286385059356,walking,2026-03-04_14-01-07
1772632873530502400,5.79750244140625,0.7923021050091832,-0.768054529589787,-0.4176268616557121,0.1259853839874267,-0.1588824242353439,-0.3706793487071991,walking,2026-03-04_14-01-07
1772632873540451300,5.807451416015625,0.9633819444440304,-0.6661833970680833,-0.4622176985323429,0.1639668643474578,-0.1412104815244674,-0.3225187361240387,walking,2026-03-04_14-01-07
1772632873550400500,5.817400390625,1.1400598230816423,-0.6318518692035228,-0.4660702823072671,0.1931445002555847,-0.115125298500061,-0.2614236772060394,walking,2026-03-04_14-01-07
1772632873560349400,5.827349365234375,1.243647184936702,-0.6529582970529795,-0.387747856220603,0.2071154415607452,-0.0917099863290786,-0.2040109783411026,walking,2026-03-04_14-01-07
1772632873570298400,5.83729833984375,1.3013783661544325,-0.7507819808147848,-0.2725187180191278,0.2057024985551834,-0.0805724114179611,-0.1606121659278869,walking,2026-03-04_14-01-07
1772632873580247300,5.847247314453125,1.3389477799616754,-0.8779438411332666,-0.1528565658062696,0.1877466738224029,-0.0976829603314399,-0.133130207657814,walking,2026-03-04_14-01-07
1772632873590196500,5.857196533203125,1.3228043082818388,-0.9626365329042076,-0.0690285280406475,0.1609492748975753,-0.1389196962118148,-0.1200452148914337,walking,2026-03-04_14-01-07
1772632873600145400,5.8671455078125,1.2860925342172385,-1.016887909182161,-0.1245651218235492,0.1319194883108139,-0.1894441246986389,-0.1162938922643661,walking,2026-03-04_14-01-07
1772632873610094300,5.87709423828125,1.214121669114381,-1.0033391301706434,-0.3125175509303808,0.1101928874850273,-0.2240669578313827,-0.1139870733022689,walking,2026-03-04_14-01-07
1772632873620043500,5.88704345703125,1.1057290989346802,-0.9472659452930092,-0.604806552824378,0.0927571728825569,-0.2251950800418853,-0.1159929633140564,walking,2026-03-04_14-01-07
1772632873629992400,5.896992431640625,1.019803942759335,-0.8462363050967454,-0.8778571857631206,0.0812031328678131,-0.1970255076885223,-0.1106998920440673,walking,2026-03-04_14-01-07
1772632873639942400,5.9069423828125,0.992760599141568,-0.7016283660672604,-1.1090823548853397,0.0758818760514259,-0.1583159267902374,-0.0969699621200561,walking,2026-03-04_14-01-07
1772632873649891300,5.916891357421875,0.9501166585490108,-0.5644366946436464,-1.2465467057704924,0.0622627325356006,-0.1149791106581687,-0.0705263689160347,walking,2026-03-04_14-01-07
1772632873659840300,5.92684033203125,0.8839663162931799,-0.40562019751966,-1.2697545628786089,0.0418546646833419,-0.0914362370967865,-0.0374187491834163,walking,2026-03-04_14-01-07
1772632873669789400,5.93678955078125,0.7966017749644816,-0.2798791637845337,-1.2527566663265228,0.0113521441817283,-0.0815133079886436,-0.0112870400771498,walking,2026-03-04_14-01-07
1772632873679738600,5.946738525390625,0.4758651521453633,-0.0914914120003581,-1.2505880901157855,-0.021731773391366,-0.1030934303998947,-0.0033385693095624,walking,2026-03-04_14-01-07
1772632873689687600,5.9566875,0.0882546220362186,0.2000781895779073,-1.301263215342164,-0.0427667014300823,-0.1149172782897949,-0.0140511039644479,walking,2026-03-04_14-01-07
1772632873699636500,5.966636474609375,-0.2069432530418038,0.3887405205197632,-1.448857915097475,-0.0505718924105167,-0.1182169318199157,-0.0483946986496448,walking,2026-03-04_14-01-07
1772632873709585400,5.97658544921875,-0.3998874990865588,0.6039454059503973,-1.6197043111026286,-0.0432647578418254,-0.0861015319824218,-0.0941813811659812,walking,2026-03-04_14-01-07
1772632873719534300,5.986534423828125,-0.4003367041587829,0.8537127784572541,-1.7575830880075691,-0.0164946615695953,-0.0166787765920162,-0.1191061735153198,walking,2026-03-04_14-01-07
1772632873729483300,5.996483154296875,-0.2042061927607283,1.1262393875218928,-1.7918559444874524,0.0343614183366298,0.0623602271080017,-0.1016940921545028,walking,2026-03-04_14-01-07
1772632873739432400,6.006432373046875,0.115355248799175,1.3802875060878694,-1.8077099317014216,0.121829479932785,0.1625819057226181,-0.0413378104567527,walking,2026-03-04_14-01-07
1772632873749381400,6.01638134765625,0.3327764220397919,1.6827230773344637,-1.6259078419178723,0.2329625189304351,0.2388387024402618,0.0415183939039707,walking,2026-03-04_14-01-07
1772632873759330600,6.02633056640625,0.4449424098109826,1.8764950063750148,-1.211630875211954,0.3393638134002685,0.2563260793685913,0.1337247490882873,walking,2026-03-04_14-01-07
1772632873769279500,6.036279541015625,0.4693596061762422,1.8910152607671915,-0.655704380890727,0.4211762249469757,0.2255984246730804,0.2177209109067917,walking,2026-03-04_14-01-07
1772632873779228400,6.046228515625,0.3299624971302226,1.836934711011499,-0.1231061551868915,0.4799511432647705,0.1791896373033523,0.2746845781803131,walking,2026-03-04_14-01-07
1772632873789177300,6.05617724609375,0.0458662271073088,1.7116992887109517,0.3209229757040739,0.5105116367340088,0.1547313928604126,0.2964823544025421,walking,2026-03-04_14-01-07
1772632873799126300,6.066126220703125,-0.2792986970154568,1.5339181250065563,0.6627338411360979,0.5146828889846802,0.1521542519330978,0.2853492796421051,walking,2026-03-04_14-01-07
1772632873809076200,6.076076171875,-0.5383511266747489,1.386402189575881,0.9882312851488588,0.4933867752552032,0.167822003364563,0.256275862455368,walking,2026-03-04_14-01-07
1772632873819025400,6.086025390625,-0.7490054726615548,1.2715363317288455,1.3022060491502283,0.4506438374519348,0.1812094449996948,0.2097091674804687,walking,2026-03-04_14-01-07
1772632873828974600,6.095974609375,-0.955773515266925,1.192799187361449,1.614071273651719,0.3780034184455871,0.1682654917240142,0.144765555858612,walking,2026-03-04_14-01-07
1772632873838923500,6.105923583984375,-1.0988220960251986,1.128150481840223,1.83925014834702,0.2893324196338653,0.1321365237236023,0.0709022656083107,walking,2026-03-04_14-01-07
1772632873848872400,6.11587255859375,-1.2127663820479064,1.110682921949774,1.9187953942269085,0.1982443481683731,0.0980828031897544,-0.0011342243524268,walking,2026-03-04_14-01-07
1772632873858821400,6.1258212890625,-1.3264255675189196,1.143931257687509,1.890616178447008,0.1037367582321167,0.0745055675506591,-0.078209564089775,walking,2026-03-04_14-01-07
1772632873868770300,6.135770263671875,-1.398697607525438,1.1746797394335269,1.727185611656308,0.0181699749082326,0.0633435174822807,-0.1513253003358841,walking,2026-03-04_14-01-07
1772632873878719200,6.14571923828125,-1.3974325560256835,1.257011255031079,1.5265601634591817,-0.0470084957778453,0.0884448811411857,-0.2122451066970825,walking,2026-03-04_14-01-07
1772632873888668400,6.15566845703125,-1.3266791038885712,1.3479133228361606,1.3424147254198788,-0.1097304224967956,0.1238999366760253,-0.2562427520751953,walking,2026-03-04_14-01-07
1772632873898617600,6.16561767578125,-1.1754117069698868,1.4268231934219595,1.233534663984179,-0.1701996326446533,0.1442888379096985,-0.2757783532142639,walking,2026-03-04_14-01-07
1772632873908566500,6.17556640625,-0.982954075398296,1.451169845301658,1.1060299815773964,-0.2211071848869323,0.1531744450330734,-0.2696589231491089,walking,2026-03-04_14-01-07
1772632873918515500,6.185515380859375,-0.8344947947029024,1.414584181834757,1.0065350036025047,-0.2721253931522369,0.1296107918024063,-0.2572949230670929,walking,2026-03-04_14-01-07
1772632873928464400,6.19546435546875,-0.7053964133638888,1.2687854255855082,0.9314093277305364,-0.3260861933231354,0.0826212763786315,-0.2505870163440704,walking,2026-03-04_14-01-07
1772632873938413300,6.205413330078125,-0.6349372679982334,1.0609883321933449,0.7508645445317029,-0.3722513020038605,0.0421633347868919,-0.2395365089178085,walking,2026-03-04_14-01-07
1772632873948362200,6.2153623046875,-0.598222753987275,0.9097012076608836,0.5037251824408769,-0.4094537496566772,0.0104428771883249,-0.2275173813104629,walking,2026-03-04_14-01-07
1772632873958311400,6.2253115234375,-0.6235531196746975,0.7740444907195866,0.2288841589540243,-0.4293137490749359,-0.003468943759799,-0.2163640558719635,walking,2026-03-04_14-01-07
1772632873968260400,6.23526025390625,-0.6036603784639388,0.5855864501781761,-0.0957031844764947,-0.4211823046207428,0.0081962989643216,-0.2020798027515411,walking,2026-03-04_14-01-07
1772632873978210600,6.24521044921875,-0.5587504657007754,0.4015567474730313,-0.4125421057373285,-0.3852147161960602,0.0377099849283695,-0.1840872168540954,walking,2026-03-04_14-01-07
1772632873988159500,6.255159423828125,-0.5060598359335213,0.2482325641550123,-0.5919511629045009,-0.3310826420783996,0.0618876665830612,-0.1648633778095245,walking,2026-03-04_14-01-07
1772632873998108400,6.2651083984375,-0.384345573496446,0.0758970986358821,-0.646364305615425,-0.2584084272384643,0.0808160826563835,-0.1369502544403076,walking,2026-03-04_14-01-07
1772632874008057300,6.275057373046875,-0.2324195665385574,-0.0927238764047622,-0.6135334646373987,-0.1821236163377761,0.0881853327155113,-0.104446142911911,walking,2026-03-04_14-01-07
1772632874018006300,6.28500634765625,-0.1357433723114431,-0.2266732049062848,-0.457791698783636,-0.1175747141242027,0.0797644183039665,-0.0714583620429039,walking,2026-03-04_14-01-07
1772632874027955200,6.294955078125,-0.0971734762247651,-0.3982787487156689,-0.2467863108694553,-0.0690210238099098,0.0597625486552715,-0.0423935651779174,walking,2026-03-04_14-01-07
1772632874037904400,6.304904296875,-0.1039958695907145,-0.5692778510645031,0.0036573534637689,-0.0388982817530632,0.0242152065038681,-0.0228049475699663,walking,2026-03-04_14-01-07
1772632874047853600,6.314853515625,-0.1511648133270442,-0.7148382685132324,0.2387736848056316,-0.0331763438880443,-0.0275104697793722,-0.0211834125220775,walking,2026-03-04_14-01-07
1772632874057802500,6.324802490234375,-0.246128431482613,-0.8195202937372028,0.3757692491352558,-0.0459989346563816,-0.0619941465556621,-0.0356006994843483,walking,2026-03-04_14-01-07
1772632874067751400,6.33475146484375,-0.2871328612398356,-0.8237680143095553,0.3978887264847755,-0.0660779327154159,-0.0697091668844223,-0.0457774735987186,walking,2026-03-04_14-01-07
1772632874077700400,6.344700439453125,-0.3179793965328484,-0.7368244748719036,0.3287555690258741,-0.0796017274260521,-0.0478384867310524,-0.0454347245395183,walking,2026-03-04_14-01-07
1772632874087649300,6.354649169921875,-0.3861304841518402,-0.658311640779674,0.2727747386068105,-0.0911415964365005,-0.0186183843761682,-0.0470551960170269,walking,2026-03-04_14-01-07
1772632874097598200,6.36459814453125,-0.4123352580536156,-0.6216324538104235,0.2312842058330774,-0.0971464961767196,-0.005886610597372,-0.0591584630310535,walking,2026-03-04_14-01-07
1772632874107547600,6.374547607421875,-0.3575599309667944,-0.5493560298897325,0.243746797043085,-0.1033631116151809,-0.0275237280875444,-0.0645934417843818,walking,2026-03-04_14-01-07
1772632874117496600,6.38449658203125,-0.2858857837881893,-0.4431988175466656,0.2073480344504117,-0.1037529110908508,-0.0607005469501018,-0.0573236383497715,walking,2026-03-04_14-01-07
1772632874127445500,6.394445556640625,-0.3013364508982747,-0.306498729032278,0.076440850123763,-0.0953068807721138,-0.0666709169745445,-0.0463219583034515,walking,2026-03-04_14-01-07
1772632874137394400,6.40439453125,-0.3445835450157523,-0.1852393707558512,-0.0677770666748285,-0.0897427350282669,-0.0449773408472538,-0.0321906916797161,walking,2026-03-04_14-01-07
1772632874147344400,6.414344482421875,-0.3054772770300507,-0.1052116020560264,-0.1470522634416818,-0.0837636291980743,0.0022104806266725,-0.0076802344992756,walking,2026-03-04_14-01-07
1772632874157293300,6.424293212890625,-0.2298259698487818,-0.0448060870625078,-0.1430430278003215,-0.0837782770395279,0.0471529215574264,0.0291046798229217,walking,2026-03-04_14-01-07
1772632874167242200,6.4342421875,-0.0871735488012433,-0.0099332188628613,-0.0695838238358497,-0.0765457898378372,0.0768987983465194,0.0804266482591629,walking,2026-03-04_14-01-07
1772632874177191400,6.44419140625,0.0280890532784163,-0.0274020939275622,0.0478039537042379,-0.0720881968736648,0.0828917101025581,0.1317473649978637,walking,2026-03-04_14-01-07
1772632874187140400,6.454140380859375,0.0327886092714965,-0.0939736572701483,0.1654413220912218,-0.0664140209555625,0.0841725394129753,0.1699348092079162,walking,2026-03-04_14-01-07
1772632874197089500,6.464089599609375,-0.0387814930107444,-0.1981263979230076,0.2414858663737773,-0.0579861775040626,0.0955072194337844,0.1865990161895752,walking,2026-03-04_14-01-07
1772632874207038500,6.47403857421875,-0.0905162102926522,-0.2733064343307167,0.3287473857194185,-0.051472395658493,0.0921087637543678,0.1961953043937683,walking,2026-03-04_14-01-07
1772632874216987400,6.4839873046875,-0.1029587816279381,-0.3340636853713542,0.4352911131620406,-0.0466922894120216,0.0855818912386894,0.2010656893253326,walking,2026-03-04_14-01-07
1772632874226936300,6.493936279296875,-0.0198406456973403,-0.3818948193434626,0.4567237772911787,-0.0330031625926494,0.0922487378120422,0.2165942043066024,walking,2026-03-04_14-01-07
1772632874236885200,6.50388525390625,0.0884386003009975,-0.3660729808334261,0.4837690206050872,-0.0152694415301084,0.0899043530225753,0.2360328733921051,walking,2026-03-04_14-01-07
1772632874246834400,6.51383447265625,0.1447054080545902,-0.3598383972927927,0.5474065032571553,-0.0090699028223752,0.0719844102859497,0.2548259496688843,walking,2026-03-04_14-01-07
1772632874256783400,6.523783447265625,0.170290296492353,-0.381089567375183,0.5575666627436876,-0.0121905952692031,0.0523979291319847,0.2707178294658661,walking,2026-03-04_14-01-07
1772632874266732500,6.533732666015625,0.0965962608586996,-0.4006258963637054,0.5407593203276395,-0.0302113145589828,0.0320781245827674,0.2690888345241546,walking,2026-03-04_14-01-07
1772632874276681500,6.543681396484375,-0.0379470149479806,-0.3801557936564088,0.4836392567455768,-0.0597947761416435,0.0198395680636167,0.2495880872011184,walking,2026-03-04_14-01-07
1772632874286630400,6.55363037109375,-0.1140760957088321,-0.3637849429614841,0.338534035718441,-0.0900066047906875,0.0160762183368206,0.2338063865900039,walking,2026-03-04_14-01-07
1772632874296579300,6.563579345703125,-0.1435735544804483,-0.3199658211097121,0.0470014051496982,-0.1114370599389076,0.0444865524768829,0.2234986275434494,walking,2026-03-04_14-01-07
1772632874306528300,6.5735283203125,-0.1875884181000292,-0.2110653744731098,-0.2083715322792529,-0.1227966025471687,0.0800836533308029,0.2225980460643768,walking,2026-03-04_14-01-07
1772632874316477200,6.583477294921875,-0.1693814380191266,-0.1598364878214895,-0.4530436274737119,-0.1123442202806472,0.1112184077501297,0.2354525923728943,walking,2026-03-04_14-01-07
1772632874326427400,6.593427490234375,-0.0730034960862249,-0.1599636213324964,-0.73164195766747,-0.0732305124402046,0.1457903981208801,0.2661783397197723,walking,2026-03-04_14-01-07
1772632874336376300,6.603376220703125,-0.0420929556462913,-0.1372043847747147,-0.9101286392927168,-0.0222038123756647,0.1655417382717132,0.3118739128112793,walking,2026-03-04_14-01-07
1772632874346325500,6.613325439453125,-0.0645332624480128,-0.1963752434067428,-0.9458037637859582,0.0275992937386035,0.1734997630119323,0.3582778573036194,walking,2026-03-04_14-01-07
1772632874356274400,6.6232744140625,-0.1390326961804181,-0.3583461859736591,-0.9026175330102444,0.0709278583526611,0.1743975132703781,0.3972974419593811,walking,2026-03-04_14-01-07
1772632874366223400,6.633223388671875,-0.2679886733740568,-0.5632474117938429,-0.8281196336477994,0.1005886867642402,0.1563431769609451,0.4208424985408783,walking,2026-03-04_14-01-07
