time,seconds_elapsed,acc_x,acc_y,acc_z,gyr_x,gyr_y,gyr_z,activity,session
1772632957400990000,0.067989990234375,-0.7378291949350386,-0.6339752180330455,0.6306237156480551,-0.2442622631788253,0.0129931569099426,0.0789981558918953,walking,2026-03-04_14-02-37
1772632957410939000,0.07793896484375,-0.6913537864208221,-0.6314923151761292,0.3747533500909805,-0.1932402700185775,-0.0008330049458891,0.0912981256842613,walking,2026-03-04_14-02-37
1772632957420888000,0.08788818359375,-0.6837415578514338,-0.6532488044321537,0.182860074403882,-0.1269810944795608,-0.0027643293142318,0.1062999814748764,walking,2026-03-04_14-02-37
1772632957430837200,0.097837158203125,-0.6443911789115518,-0.7245343176193535,0.1225502748697996,-0.0749595686793327,-0.0019847857765853,0.1250939816236496,walking,2026-03-04_14-02-37
1772632957440786200,0.1077861328125,-0.6578713496662676,-0.8390477087669074,0.2455424482882022,-0.0570476837456226,-0.0176167413592338,0.1282386481761932,walking,2026-03-04_14-02-37
1772632957450735000,0.117735107421875,-0.7455085704565048,-0.9783264155976472,0.4705144022345542,-0.0715542733669281,-0.0420198626816272,0.1157149523496627,walking,2026-03-04_14-02-37
1772632957460684000,0.12768408203125,-0.8377397679734975,-1.1021136849164963,0.6138514445453882,-0.0994309037923812,-0.0565753690898418,0.0951196625828743,walking,2026-03-04_14-02-37
1772632957470633000,0.137633056640625,-0.8776019688930362,-1.1850664011523129,0.6076420685112476,-0.121585227549076,-0.0624102242290973,0.0779451951384544,walking,2026-03-04_14-02-37
1772632957480583000,0.1475830078125,-0.8403213819645344,-1.225690526355058,0.4630465505719184,-0.1299528628587722,-0.0554468557238578,0.0777976512908935,walking,2026-03-04_14-02-37
1772632957490532000,0.157531982421875,-0.8005097421884536,-1.2082492699496448,0.229826408240199,-0.1242259666323661,-0.0427672229707241,0.0819711238145828,walking,2026-03-04_14-02-37
1772632957500481000,0.16748095703125,-0.7969340756587684,-1.213407675626129,0.0111994394063949,-0.1063987612724304,-0.0348818711936473,0.0835453197360038,walking,2026-03-04_14-02-37
1772632957510430200,0.17743017578125,-0.8067567468192428,-1.240356472828239,-0.1523158830583095,-0.0893763229250907,-0.0334172770380973,0.0727394297719001,walking,2026-03-04_14-02-37
1772632957520379100,0.187379150390625,-0.8631164204880595,-1.2932067501366138,-0.2108633490949869,-0.0738745927810669,-0.0274392794817686,0.0528986193239688,walking,2026-03-04_14-02-37
1772632957530328000,0.197328125,-0.934000513267517,-1.327879565719515,-0.2969236759573221,-0.0566525571048259,-0.0035014990717172,0.0279081407934427,walking,2026-03-04_14-02-37
1772632957540277000,0.207277099609375,-1.0066448937177657,-1.327228700595349,-0.4108662814795971,-0.0385065749287605,0.041203387081623,0.0032914767507463,walking,2026-03-04_14-02-37
1772632957550226000,0.217225830078125,-1.0348653182908891,-1.337779759095609,-0.4599643666476011,-0.0218469481915235,0.0775905027985572,-0.0145631711930036,walking,2026-03-04_14-02-37
1772632957560174800,0.2271748046875,-0.9694430711138992,-1.3356275494977832,-0.475956885549426,0.0114241894334554,0.0891377031803131,-0.0207374431192874,walking,2026-03-04_14-02-37
1772632957570124000,0.2371240234375,-0.8637583716534077,-1.280398268098384,-0.4901227735459804,0.063449926674366,0.1036523655056953,-0.0120423287153244,walking,2026-03-04_14-02-37
1772632957580073200,0.2470732421875,-0.8108283071070909,-1.223651714003831,-0.5770926164686679,0.1267127841711044,0.1261446326971054,0.0051888562738895,walking,2026-03-04_14-02-37
1772632957590022100,0.257022216796875,-0.8127079833738505,-1.2440312158182265,-0.6696756230980158,0.1743171960115432,0.1296121031045913,0.0177904795855283,walking,2026-03-04_14-02-37
1772632957599971000,0.26697119140625,-0.8362715951170772,-1.3358426535531878,-0.5648714327991008,0.1965623050928115,0.1091574281454086,0.0193633418530225,walking,2026-03-04_14-02-37
1772632957609920000,0.276919921875,-0.8311988949626684,-1.5197906693242489,-0.4314022890299558,0.1928573548793792,0.0830905959010124,0.0086268242448568,walking,2026-03-04_14-02-37
1772632957619869000,0.286868896484375,-0.843130521101132,-1.7013786779657003,-0.3347171077787876,0.1668784916400909,0.0411790944635868,-0.0222738347947597,walking,2026-03-04_14-02-37
1772632957629817900,0.29681787109375,-0.9045892714746296,-1.8023475278854368,-0.3215332165569067,0.1278222650289535,0.0055424524471163,-0.0720321461558342,walking,2026-03-04_14-02-37
1772632957639767300,0.306767333984375,-0.9257079012185334,-1.795267944888025,-0.4799690438002347,0.0871898829936981,0.0065760249271988,-0.1429350823163986,walking,2026-03-04_14-02-37
1772632957649716200,0.31671630859375,-0.9802596486825496,-1.705190052947402,-0.784499687629938,0.0515132844448089,0.0521464608609676,-0.2091085612773895,walking,2026-03-04_14-02-37
1772632957659665200,0.3266650390625,-0.9249564983293412,-1.4483752461470665,-1.1017232242941857,0.0267861001193523,0.0920528620481491,-0.2496818155050277,walking,2026-03-04_14-02-37
1772632957669615000,0.336614990234375,-0.722203463518992,-1.069692155391723,-1.3481208281069994,0.0062588104046881,0.0797556340694427,-0.2551014125347137,walking,2026-03-04_14-02-37
1772632957679564000,0.34656396484375,-0.3779374965524301,-0.7148746550008654,-1.4844254875630138,0.0059184585697948,0.0084622781723737,-0.2301891595125198,walking,2026-03-04_14-02-37
1772632957689513000,0.356512939453125,-0.1043246631536632,-0.4055488858491182,-1.7093641237616537,0.0218378156423568,-0.0766127482056617,-0.2081325650215149,walking,2026-03-04_14-02-37
1772632957699462000,0.3664619140625,-0.085155377379246,-0.0719967301964759,-1.934360043105483,0.0392676703631877,-0.1683661043643951,-0.2065746188163757,walking,2026-03-04_14-02-37
1772632957709411000,0.3764111328125,-0.2423813904413953,0.2083836611084639,-2.135062063670158,0.0551534257829189,-0.1890721172094345,-0.2235550880432129,walking,2026-03-04_14-02-37
1772632957719360000,0.386360107421875,-0.3931960386238992,0.3766610834084451,-2.3963830958485604,0.065722182393074,-0.1347803771495819,-0.2596097588539123,walking,2026-03-04_14-02-37
1772632957729309200,0.39630908203125,-0.5180813688451424,0.5824876073800027,-2.526241063383221,0.0703971832990646,-0.0199164040386676,-0.293685644865036,walking,2026-03-04_14-02-37
1772632957739258000,0.406258056640625,-0.4538942164210602,0.7876808018840848,-2.478715342098474,0.0715050548315048,0.1235361024737358,-0.2972660064697265,walking,2026-03-04_14-02-37
1772632957749207000,0.41620703125,-0.1427786777757108,0.9201695563137532,-2.322127773070336,0.067870020866394,0.232686847448349,-0.2626681327819824,walking,2026-03-04_14-02-37
1772632957759156000,0.426156005859375,0.2391418605308979,1.0325180245123804,-2.033447609323263,0.0824550911784172,0.311888724565506,-0.1942877471446991,walking,2026-03-04_14-02-37
1772632957769105000,0.43610498046875,0.6623441842313855,1.016861167305708,-1.7523305743068456,0.1343212574720382,0.3436024188995361,-0.0801631510257721,walking,2026-03-04_14-02-37
1772632957779054000,0.44605419921875,1.0770158493433146,0.9173046684019268,-1.5353870285153388,0.2144523113965988,0.3614139258861542,0.0203045979142189,walking,2026-03-04_14-02-37
1772632957789003000,0.4560029296875,1.01518585450463,0.9010393239080904,-1.2344874346643686,0.3002626299858093,0.3893004655838012,0.0683343783020973,walking,2026-03-04_14-02-37
1772632957798952200,0.4659521484375,0.7587423652347177,0.736334207136929,-0.809627114623785,0.3781552910804748,0.4198495745658874,0.0792647898197174,walking,2026-03-04_14-02-37
1772632957808901000,0.475901123046875,0.5792581239394843,0.5346367457941175,-0.3598445347726345,0.444312036037445,0.4486779272556305,0.0677604749798774,walking,2026-03-04_14-02-37
1772632957818850000,0.48585009765625,0.5034546949364245,0.4907943891972303,0.1109130285680294,0.5071370601654053,0.4586144685745239,0.0613763518631458,walking,2026-03-04_14-02-37
1772632957828799000,0.495799072265625,0.5335200167238712,0.5198197004124522,0.5896662668377161,0.5564565062522888,0.4699297547340393,0.0679956898093223,walking,2026-03-04_14-02-37
1772632957838748000,0.505747802734375,0.6846406986482441,0.5649437673829496,1.0064695371508598,0.5894309878349304,0.4644068777561188,0.0756719857454299,walking,2026-03-04_14-02-37
1772632957848698000,0.515697998046875,0.7432163678660988,0.6299558993890881,1.4420909051805737,0.5796992778778076,0.433345228433609,0.0680067613720893,walking,2026-03-04_14-02-37
1772632957858647000,0.52564697265625,0.7352033764760941,0.7891554044812917,1.8612451225340363,0.5401118993759155,0.3247250020503998,0.063687652349472,walking,2026-03-04_14-02-37
1772632957868596000,0.535595947265625,0.7238637979466468,0.9530174945570528,2.2593933767378327,0.4728088974952698,0.2098211646080017,0.057891871780157,walking,2026-03-04_14-02-37
1772632957878545200,0.545545166015625,0.7290516489133239,1.0543551777891813,2.528347680273652,0.3684958219528198,0.074600763618946,0.0647058337926864,walking,2026-03-04_14-02-37
1772632957888494000,0.555494140625,0.7099594104304909,1.0856685999415814,2.712671982011199,0.2408991456031799,-0.0561684817075729,0.0776009485125541,walking,2026-03-04_14-02-37
1772632957898443000,0.565443115234375,0.6407720385663211,1.0742857667922974,2.6981460285305974,0.1086407080292701,-0.1764509528875351,0.078040637075901,walking,2026-03-04_14-02-37
1772632957908392000,0.575391845703125,0.5264831038244069,1.0433283184707165,2.491284316292405,-0.0073138615116477,-0.2722393870353699,0.0704751461744308,walking,2026-03-04_14-02-37
1772632957918341000,0.585341064453125,0.3713740829162299,0.973414678158611,2.0560136613965034,-0.0973785072565078,-0.3378911018371582,0.0539515651762485,walking,2026-03-04_14-02-37
1772632957928290000,0.5952900390625,0.1697721909023821,0.920269655687362,1.5259101751178503,-0.162551462650299,-0.3762640357017517,0.023023696616292,walking,2026-03-04_14-02-37
1772632957938239000,0.605239013671875,-0.0649978842850774,0.8749873294152319,0.9893938991874456,-0.2071583569049835,-0.3845025300979614,-0.0244831033051013,walking,2026-03-04_14-02-37
1772632957948188200,0.615188232421875,-0.3292780585300177,0.8592226279199123,0.5265040004819631,-0.2493864148855209,-0.3648771345615387,-0.0905229598283767,walking,2026-03-04_14-02-37
1772632957958137000,0.62513720703125,-0.5722773982066661,0.8024522545583546,0.1937012018918991,-0.27786386013031,-0.3148869276046753,-0.159390702843666,walking,2026-03-04_14-02-37
1772632957968086000,0.6350859375,-0.6226253373052925,0.7144380171492696,-0.1824801351755857,-0.2841619849205017,-0.2360181361436844,-0.2193109095096588,walking,2026-03-04_14-02-37
1772632957978035000,0.645034912109375,-0.5251391418695449,0.670890113454312,-0.5066892929434776,-0.260306179523468,-0.1132970228791236,-0.2533759474754333,walking,2026-03-04_14-02-37
1772632957987984000,0.65498388671875,-0.3571611409075558,0.6815013777092099,-0.7981278154879808,-0.2132066041231155,0.025642704218626,-0.2601006925106048,walking,2026-03-04_14-02-37
1772632957997933000,0.66493310546875,-0.0954036170080304,0.7254344813294709,-0.854607243078947,-0.1444933265447616,0.1118817180395126,-0.2222462445497512,walking,2026-03-04_14-02-37
1772632958007882200,0.67488232421875,0.285062923097983,0.7163147708065808,-0.7336766783654689,-0.056496363133192,0.1605140268802642,-0.1565089225769043,walking,2026-03-04_14-02-37
1772632958017832000,0.68483203125,0.5671916924402117,0.6880921542763709,-0.5281336475104094,0.0172404423356056,0.174801617860794,-0.097053050994873,walking,2026-03-04_14-02-37
1772632958027781000,0.694781005859375,0.6116239046890288,0.6173731889307499,-0.1113438212007284,0.0504026487469673,0.1467096656560897,-0.0606923885643482,walking,2026-03-04_14-02-37
1772632958037730000,0.70472998046875,0.559293413471058,0.3718238725103437,0.411011827430129,0.0417234040796756,0.1087636202573776,-0.0514783859252929,walking,2026-03-04_14-02-37
1772632958047679000,0.714678955078125,0.4960650230765342,0.0692808953665196,0.7980775466054677,0.0121369399130344,0.087481789290905,-0.0580340437591075,walking,2026-03-04_14-02-37
1772632958057628200,0.724628173828125,0.4302227238565683,-0.1342977035477757,1.034084104785323,-0.0212204828858375,0.0812683701515197,-0.0641886070370674,walking,2026-03-04_14-02-37
1772632958067577000,0.7345771484375,0.3869678848240524,-0.2410061200328171,1.157692948797345,-0.0546812899410724,0.0822486355900764,-0.0690773725509643,walking,2026-03-04_14-02-37
1772632958077526000,0.744526123046875,0.4178961801163852,-0.3252477070353925,1.2271113529384134,-0.0861023217439651,0.0762139111757278,-0.0720758289098739,walking,2026-03-04_14-02-37
1772632958087475000,0.754474853515625,0.4467782104033976,-0.3794173963792622,1.2668699473530054,-0.1103761047124862,0.0549065805971622,-0.0789511352777481,walking,2026-03-04_14-02-37
1772632958097424100,0.764424072265625,0.428716410946846,-0.4215381898805498,1.2884791370928286,-0.1258988678455352,0.0219571553170681,-0.0919244512915611,walking,2026-03-04_14-02-37
1772632958107373000,0.774373046875,0.3807607007469982,-0.4049456592589616,1.2898147696107625,-0.135686919093132,-0.0233247373253107,-0.100055418908596,walking,2026-03-04_14-02-37
1772632958117322000,0.784322021484375,0.3476221089940517,-0.3633433366738259,1.2568097411096095,-0.1435376554727554,-0.0715623050928115,-0.1036083474755287,walking,2026-03-04_14-02-37
1772632958127271000,0.79427099609375,0.2828137559317052,-0.328568375890702,1.1899234857946634,-0.1466869264841079,-0.1008595824241638,-0.1095410957932472,walking,2026-03-04_14-02-37
1772632958137220000,0.80422021484375,0.2383868043798953,-0.2961221503160893,1.0748843172073363,-0.1442778408527374,-0.1203448697924614,-0.1107464432716369,walking,2026-03-04_14-02-37
1772632958147169000,0.8141689453125,0.2674895647455007,-0.2827760542698204,0.9518635022163392,-0.1334539949893951,-0.1194142177700996,-0.0959730073809623,walking,2026-03-04_14-02-37
1772632958157118200,0.8241181640625,0.2973920971866697,-0.2760726111084222,0.8134715150922537,-0.1259643882513046,-0.1119248792529106,-0.0797586143016815,walking,2026-03-04_14-02-37
1772632958167067100,0.834067138671875,0.3085485742341727,-0.30843466553092,0.7245406012296676,-0.1217955201864242,-0.1278337240219116,-0.0642305389046669,walking,2026-03-04_14-02-37
1772632958177016000,0.84401611328125,0.3219343447037041,-0.3927249139808118,0.6627227352201939,-0.1158827692270279,-0.1441578418016433,-0.0633437111973762,walking,2026-03-04_14-02-37
1772632958186965000,0.853965087890625,0.1971954737484455,-0.5129135742858052,0.5234212320357561,-0.10791627317667,-0.1310787051916122,-0.0807409659028053,walking,2026-03-04_14-02-37
1772632958196915200,0.863915283203125,0.0233268803779035,-0.6327449455857277,0.386623236104846,-0.1025358885526657,-0.0970586836338043,-0.1147050634026527,walking,2026-03-04_14-02-37
1772632958206864100,0.873864013671875,-0.0613416998650878,-0.7793452274762094,0.2935889785766601,-0.1042274460196495,-0.0837559476494789,-0.156457245349884,walking,2026-03-04_14-02-37
1772632958216813000,0.88381298828125,-0.0228899502653628,-0.9293399741105736,0.2588900056391954,-0.1011485606431961,-0.0880612134933471,-0.1946227401494979,walking,2026-03-04_14-02-37
1772632958226762000,0.893761962890625,0.0682194036148488,-0.996107863742858,0.2192716964781284,-0.0875312909483909,-0.088564284145832,-0.2209928333759308,walking,2026-03-04_14-02-37
1772632958236711000,0.9037109375,0.1763113834127783,-1.0017864939011634,0.1510042159378528,-0.0739355832338333,-0.0972006469964981,-0.2297157496213913,walking,2026-03-04_14-02-37
1772632958246660000,0.91366015625,0.299666764120385,-0.9853057530909776,0.120372930830717,-0.0456582270562648,-0.1096899881958961,-0.2247435450553894,walking,2026-03-04_14-02-37
1772632958256609000,0.923609130859375,0.444112863651663,-1.0047557189702987,0.0089934537947177,-0.0054716588929295,-0.0982770100235939,-0.2095741778612136,walking,2026-03-04_14-02-37
1772632958266558200,0.93355810546875,0.5557759799346328,-0.9945223481170832,-0.086407532864809,0.0395725145936012,-0.0849665328860282,-0.1905360370874405,walking,2026-03-04_14-02-37
1772632958276507100,0.943507080078125,0.6123875094726682,-0.9993509373173116,-0.07659574842453,0.0674720555543899,-0.0988565161824226,-0.1817199140787124,walking,2026-03-04_14-02-37
1772632958286456000,0.9534560546875,0.6967451971355825,-1.0639160562083123,0.0529307951986789,0.0699415504932403,-0.1506848633289337,-0.1812578737735748,walking,2026-03-04_14-02-37
1772632958296405000,0.963405029296875,0.7586669619109481,-1.1474636695973577,0.1689344249039888,0.0491497255861759,-0.21734219789505,-0.1832885295152664,walking,2026-03-04_14-02-37
1772632958306354000,0.97335400390625,0.816733220301941,-1.1564398799963296,0.1319300976336002,0.0270304847508668,-0.25136798620224,-0.1825374662876129,walking,2026-03-04_14-02-37
1772632958316303000,0.98330322265625,0.8327130989179015,-1.0513703167594968,-0.0825239694297313,0.0091870399191975,-0.2393012046813964,-0.163740873336792,walking,2026-03-04_14-02-37
1772632958326252000,0.993251953125,0.8370594575591385,-0.8799152873367071,-0.3693219726920128,0.0086292447522282,-0.1930649727582931,-0.1308313161134719,walking,2026-03-04_14-02-37
1772632958336201000,1.003200927734375,0.9058071228317915,-0.7305195295087993,-0.6254191327422857,0.0338975824415683,-0.1290953010320663,-0.0861061885952949,walking,2026-03-04_14-02-37
1772632958346150100,1.013150146484375,1.0140282819673418,-0.6216168178498744,-0.851054519033432,0.0828688144683837,-0.0771789699792862,-0.0332180932164192,walking,2026-03-04_14-02-37
1772632958356099000,1.02309912109375,1.162877073436975,-0.4968054661802947,-0.9545219077706336,0.1465492397546768,-0.0543644689023494,0.0372376963496208,walking,2026-03-04_14-02-37
1772632958366048000,1.033048095703125,1.3150244680605827,-0.4518260683774948,-0.9229308377206324,0.195640280842781,-0.068190649151802,0.1083664298057556,walking,2026-03-04_14-02-37
1772632958375997200,1.0429970703125,1.429404295956343,-0.525770279379934,-0.7351689627498388,0.2099771499633789,-0.115037515759468,0.1567049473524093,walking,2026-03-04_14-02-37
1772632958385947000,1.05294677734375,1.3922817491337656,-0.6483603017382323,-0.5199982718497514,0.1858219504356384,-0.1694698482751846,0.1804143488407135,walking,2026-03-04_14-02-37
1772632958395896000,1.06289599609375,1.1999926059968768,-0.7554068641364574,-0.3845195418238639,0.1330775171518325,-0.2083874195814132,0.1719638705253601,walking,2026-03-04_14-02-37
1772632958405845200,1.07284521484375,0.8721724181249737,-0.832537596220523,-0.3497188620775938,0.0641933903098106,-0.2135905474424362,0.1406912505626678,walking,2026-03-04_14-02-37
1772632958415794200,1.082794189453125,0.5541875051667914,-0.838505856975168,-0.4774380640178918,-0.0041553070768713,-0.1859956681728363,0.0985389947891235,walking,2026-03-04_14-02-37
1772632958425743000,1.0927431640625,0.372803348534368,-0.772007139673084,-0.7097054356694221,-0.0557159222662448,-0.1467529386281967,0.0575001202523708,walking,2026-03-04_14-02-37
1772632958435692000,1.102692138671875,0.3033413975125179,-0.6106799749024212,-0.9832400527328252,-0.0841227918863296,-0.1273994743824005,0.0387141816318035,walking,2026-03-04_14-02-37
1772632958445641000,1.112640869140625,0.2779431907532737,-0.3571436052508652,-1.2232318811565637,-0.1064847782254219,-0.1278198659420013,0.0420611314475536,walking,2026-03-04_14-02-37
1772632958455590000,1.12258984375,0.2769238941755145,-0.0949738472886383,-1.391708625420928,-0.1171241104602813,-0.144357293844223,0.0577839016914367,walking,2026-03-04_14-02-37
1772632958465539000,1.1325390625,0.211848706870526,0.1367415895685553,-1.55114398509562,-0.1153197288513183,-0.1332695037126541,0.0731671676039695,walking,2026-03-04_14-02-37
1772632958475488000,1.142488037109375,0.0914714286582544,0.2938555205583572,-1.7718758172541855,-0.1058596521615982,-0.080336794257164,0.0830283164978027,walking,2026-03-04_14-02-37
1772632958485437200,1.152437255859375,-0.0846749003859236,0.4516621099874377,-1.9243162034749983,-0.0784895420074462,-0.0226647052913904,0.0915032997727394,walking,2026-03-04_14-02-37
1772632958495386000,1.16238623046875,-0.1118088448965922,0.5959327798865736,-2.004379920271039,-0.0298216063529253,0.0147633589804172,0.1128269582986831,walking,2026-03-04_14-02-37
1772632958505335000,1.1723349609375,-0.1720750610172748,0.7690238860785961,-2.031734375664592,0.0469005145132541,0.0548920929431915,0.1318662613630294,walking,2026-03-04_14-02-37
1772632958515284000,1.182283935546875,-0.312422675721161,0.97236765332371,-1.9494938993513584,0.1442843228578567,0.1041549816727638,0.1423663049936294,walking,2026-03-04_14-02-37
1772632958525233200,1.192233154296875,-0.4977131921423599,1.1053626037098467,-1.8028052085250612,0.2439882010221481,0.1512238979339599,0.1372688263654709,walking,2026-03-04_14-02-37
1772632958535182000,1.20218212890625,-0.6503193268515169,1.1955674830310046,-1.486747793030739,0.3434835970401764,0.1732825934886932,0.1239615306258201,walking,2026-03-04_14-02-37
1772632958545131000,1.212131103515625,-0.7233629357524216,1.288146544137597,-1.1403548605054616,0.4379563629627228,0.1787280291318893,0.1205045133829116,walking,2026-03-04_14-02-37
1772632958555080000,1.222079833984375,-0.670418769615516,1.4140741864860058,-0.7409276724070311,0.515000581741333,0.18704853951931,0.1342629343271255,walking,2026-03-04_14-02-37
1772632958565030100,1.232030029296875,-0.646250616107881,1.490977831815928,-0.2806915030807256,0.5482707023620605,0.1906300783157348,0.143687903881073,walking,2026-03-04_14-02-37
1772632958574979000,1.24197900390625,-0.7238662090994418,1.4504869776040314,0.239323135381937,0.5384801626205444,0.1988547146320343,0.1349721699953079,walking,2026-03-04_14-02-37
1772632958584928000,1.251927978515625,-0.8365131487879902,1.2993304937139152,0.6643471215516329,0.4812268912792206,0.182491660118103,0.1021027266979217,walking,2026-03-04_14-02-37
1772632958594877000,1.261876953125,-0.978224416527897,1.120238831932843,1.0796364801704883,0.4047249257564544,0.1682474762201309,0.0582370050251483,walking,2026-03-04_14-02-37
1772632958604825900,1.271825927734375,-1.0548816858813166,0.9247707664988934,1.2894494434297084,0.3117675483226776,0.1633173823356628,-0.0162762384861707,walking,2026-03-04_14-02-37
1772632958614775000,1.281775146484375,-1.2082188748113811,0.8609240250103175,1.4512731595456598,0.2010527551174163,0.1398815661668777,-0.1120304614305496,walking,2026-03-04_14-02-37
1772632958624724200,1.29172412109375,-1.2561483545914292,0.7886660135291517,1.6080536207973957,0.083983339369297,0.0897432342171669,-0.1860088407993316,walking,2026-03-04_14-02-37
1772632958634673200,1.301673095703125,-1.059545001517236,0.6702528384640812,1.5895511649012564,-0.0044874036684632,0.0460271798074245,-0.2266358882188797,walking,2026-03-04_14-02-37
1772632958644622000,1.3116220703125,-0.8671263137165457,0.7317395728230476,1.3727455662757158,-0.0488129220902919,0.0439841002225875,-0.2365991175174713,walking,2026-03-04_14-02-37
1772632958654571000,1.321571044921875,-0.7065716676883399,0.8806102838635445,1.095087147280574,-0.0714484602212905,0.0419033728539943,-0.2176512628793716,walking,2026-03-04_14-02-37
1772632958664520000,1.33152001953125,-0.5240208418967202,0.9305489115089176,0.893432940557599,-0.0900058522820472,0.0207929499447345,-0.1803712546825409,walking,2026-03-04_14-02-37
1772632958674469000,1.34146923828125,-0.3402501919865608,0.8505057991094886,0.8224088547855615,-0.1130344718694686,-0.0251907873898744,-0.1466124802827835,walking,2026-03-04_14-02-37
1772632958684418000,1.35141796875,-0.2981273161260411,0.7149848373770713,0.7969312991797923,-0.1378618776798248,-0.0864563733339309,-0.1356732845306396,walking,2026-03-04_14-02-37
1772632958694367200,1.3613671875,-0.3702710901103913,0.5619805336631835,0.6917652898311615,-0.152769461274147,-0.1203216612339019,-0.1482559144496917,walking,2026-03-04_14-02-37
1772632958704316200,1.371316162109375,-0.4456840584911405,0.4278324677191674,0.4865197806179523,-0.1532636433839798,-0.1106115356087684,-0.1664841771125793,walking,2026-03-04_14-02-37
1772632958714265000,1.38126513671875,-0.4972836050860583,0.3776423495307564,0.2746832025766372,-0.1392482370138168,-0.0628783702850341,-0.1786359101533889,walking,2026-03-04_14-02-37
1772632958724214000,1.391214111328125,-0.5279500711044296,0.3722968968495726,0.0725245534628629,-0.1132047399878501,0.0184349529445171,-0.1799444854259491,walking,2026-03-04_14-02-37
1772632958734163000,1.401162841796875,-0.5064246871905401,0.3707487906247377,-0.0177191965639591,-0.0830116793513298,0.1038830131292343,-0.1780049055814743,walking,2026-03-04_14-02-37
1772632958744112000,1.411112060546875,-0.4117778433665633,0.3544013208054006,0.0490425555884838,-0.0530888475477695,0.1635609567165374,-0.1537442952394485,walking,2026-03-04_14-02-37
1772632958754061800,1.421061767578125,-0.2267857253700494,0.3208240453742444,0.2440776364326476,-0.0279557984322309,0.1952496469020843,-0.1107121333479881,walking,2026-03-04_14-02-37
1772632958764011300,1.43101123046875,-0.0228885620258748,0.247548673544079,0.5506693044453859,-0.0228405818343162,0.1757442206144333,-0.0631632208824157,walking,2026-03-04_14-02-37
1772632958773960200,1.440960205078125,0.0841655260916799,0.0943960474006831,0.9001917671680449,-0.0413482189178466,0.092983566224575,-0.0268286522477865,walking,2026-03-04_14-02-37
1772632958783909000,1.4509091796875,0.0879503783926367,-0.1296339495204389,1.1953583703249693,-0.0622195787727832,-0.0009247036650776,-0.0134382182732224,walking,2026-03-04_14-02-37
1772632958793858000,1.460858154296875,0.0345811917766928,-0.3496868595041334,1.2128501878738402,-0.0744637325406074,-0.054138921201229,-0.0141594018787145,walking,2026-03-04_14-02-37
1772632958803807000,1.470806884765625,-0.1115548336029052,-0.4629948203846812,1.0398685334056614,-0.087754413485527,-0.0803829357028007,-0.0314970798790454,walking,2026-03-04_14-02-37
1772632958813756000,1.480755859375,-0.2870771124646067,-0.4703367075800895,0.9126169489771128,-0.1057509928941726,-0.0887303426861763,-0.0522092841565609,walking,2026-03-04_14-02-37
1772632958823704800,1.490704833984375,-0.4218034166879951,-0.4687878707028925,0.7833113546282052,-0.1280947774648666,-0.0796225666999816,-0.067226767539978,walking,2026-03-04_14-02-37
1772632958833654300,1.500654296875,-0.4476762552216649,-0.4214480273790657,0.6512509086132049,-0.1556901782751083,-0.0684876292943954,-0.0676747113466262,walking,2026-03-04_14-02-37
1772632958843603200,1.510603271484375,-0.4465194133367389,-0.3164478761166334,0.544188125732541,-0.1692798137664795,-0.0584556832909584,-0.0556068830192089,walking,2026-03-04_14-02-37
1772632958853552000,1.52055224609375,-0.3604899200040847,-0.2170626421265304,0.41239013004601,-0.1645092964172363,-0.0422820411622524,-0.015761200338602,walking,2026-03-04_14-02-37
1772632958863501000,1.5305009765625,-0.2338942422010004,-0.1123150043204426,0.2407470307052135,-0.1451501846313476,-0.03211310505867,0.0329656116664409,walking,2026-03-04_14-02-37
1772632958873450000,1.540449951171875,-0.1916364513818174,-0.0147815356768667,0.1165074875742196,-0.1181995347142219,-0.0310116223990917,0.087887980043888,walking,2026-03-04_14-02-37
1772632958883399000,1.55039892578125,-0.1498300575919449,-0.0011417173810303,0.1251812078952789,-0.0964979752898216,-0.0406317561864852,0.1372573971748352,walking,2026-03-04_14-02-37
1772632958893348000,1.56034814453125,-0.1306058632925152,-0.0707860392324626,0.1806821458429098,-0.0792585313320159,-0.0430877245962619,0.1772799044847488,walking,2026-03-04_14-02-37
1772632958903297000,1.570297119140625,-0.1450926903391257,-0.1905240331605076,0.2549415602743625,-0.070902906358242,-0.0320903249084949,0.2019054740667343,walking,2026-03-04_14-02-37
1772632958913246700,1.580246826171875,-0.2189719098139554,-0.3206879979044199,0.3530155655354261,-0.0797920078039169,-0.0020306927617639,0.213325634598732,walking,2026-03-04_14-02-37
1772632958923195600,1.590195556640625,-0.2862318938121199,-0.4639699490271508,0.4956435827940702,-0.0908257067203521,0.0303928181529045,0.2130985110998153,walking,2026-03-04_14-02-37
1772632958933145600,1.6001455078125,-0.3197548452401533,-0.5937725331127643,0.6042939271271228,-0.0961696058511734,0.0514951758086681,0.2098963260650634,walking,2026-03-04_14-02-37
1772632958943094800,1.6100947265625,-0.3120371104696765,-0.6539128212988377,0.6906032603144645,-0.0938572660088539,0.0515101738274097,0.2062436044216156,walking,2026-03-04_14-02-37
1772632958953043700,1.620043701171875,-0.2585799898419529,-0.6791317259684204,0.7328665310263633,-0.0835862532258033,0.0418367721140384,0.2038949728012085,walking,2026-03-04_14-02-37
1772632958962992600,1.62999267578125,-0.2124771044345572,-0.71271221626997,0.7158101822853088,-0.0689790472388267,0.0464572794735431,0.1978067308664322,walking,2026-03-04_14-02-37
1772632958972941600,1.639941650390625,-0.2448319619312882,-0.6962886124745011,0.6608452509105205,-0.0528016723692417,0.0642980560660362,0.1878079026937484,walking,2026-03-04_14-02-37
1772632958982890500,1.649890380859375,-0.2688166486307978,-0.6541856468908488,0.628863135716319,-0.0440279729664325,0.0829149782657623,0.183964267373085,walking,2026-03-04_14-02-37
1772632958992839700,1.659839599609375,-0.2179359178297221,-0.6476581448182464,0.6574228752464055,-0.0481188558042049,0.0703083723783493,0.1786842793226242,walking,2026-03-04_14-02-37
1772632959002788600,1.66978857421875,-0.1613963575493544,-0.6420557947665453,0.6973457203119993,-0.0611400231719017,0.0404946655035018,0.1788020133972168,walking,2026-03-04_14-02-37
1772632959012737800,1.67973779296875,-0.1423053977081552,-0.6528127511024475,0.6965858418554067,-0.0779842510819435,-0.0014818152412772,0.1766443252563476,walking,2026-03-04_14-02-37
1772632959022686700,1.689686767578125,-0.1510590879302471,-0.6702605833791196,0.5730892260462045,-0.0954077616333961,-0.0486537106335163,0.1694967746734619,walking,2026-03-04_14-02-37
1772632959032635600,1.6996357421875,-0.2220481389215216,-0.673809946423769,0.3297510098040104,-0.1075784042477607,-0.0747170075774192,0.1553940176963806,walking,2026-03-04_14-02-37
1772632959042584600,1.70958447265625,-0.3024554815234616,-0.6922774771369993,-0.0203244106262922,-0.1209397539496421,-0.0670582205057144,0.1430343985557556,walking,2026-03-04_14-02-37
1772632959052533500,1.719533447265625,-0.3911444763889536,-0.7190244681566953,-0.3803635911881923,-0.1308619081974029,-0.0344960168004035,0.1335410326719284,walking,2026-03-04_14-02-37
1772632959062482700,1.729482666015625,-0.5028256032526492,-0.6928479705013334,-0.7100403667122125,-0.1301279813051223,0.0012144551146775,0.1240432485938072,walking,2026-03-04_14-02-37
1772632959072431600,1.739431640625,-0.5201802408205345,-0.6760612324818969,-1.0105015691459178,-0.1161594241857528,0.0167111232876777,0.1318095475435257,walking,2026-03-04_14-02-37
1772632959082380500,1.749380615234375,-0.4387338009618222,-0.6758756467819214,-1.2941811481267214,-0.0713026076555252,0.0941582173109054,0.2388076037168502,walking,2026-03-04_14-02-37
1772632959092329700,1.759329833984375,-0.3402675815127789,-0.5934221122398973,-1.62121237757802,0.0020661517046391,0.172380045056343,0.1913537979125976,walking,2026-03-04_14-02-37
1772632959102278700,1.769278564453125,-0.2841104446787387,-0.5286594249501824,-1.736931929644942,0.0879239290952682,0.197006270289421,0.3029894530773163,walking,2026-03-04_14-02-37
1772632959112228600,1.779228515625,-0.1217426117487251,-0.6285495397225022,-1.6460849530279635,0.1537213176488876,0.1720425933599472,0.3716388046741485,walking,2026-03-04_14-02-37
1772632959122177500,1.789177490234375,-0.0882909354586154,-0.7476590264886617,-1.3840660017132758,0.1894170045852661,0.1184347569942474,0.4147319495677948,walking,2026-03-04_14-02-37
1772632959132126500,1.79912646484375,-0.1662470124509185,-0.9240876065403224,-1.096888643744588,0.1886862218379974,0.0657981783151626,0.3864310681819916,walking,2026-03-04_14-02-37
1772632959142075600,1.80907568359375,-0.2395395546115934,-1.0953099962510169,-0.8620674959570169,0.1663175821304321,0.0251539982855319,0.4997395575046539,walking,2026-03-04_14-02-37
1772632959152024800,1.81902490234375,-0.3652840954780578,-1.1583632492743432,-0.764963797032833,0.1192795038223266,0.0182588081806898,0.3343857228755951,walking,2026-03-04_14-02-37
1772632959161973800,1.828973876953125,-0.4205990093342959,-1.1793486080273985,-0.7133785712242126,0.0712619125843048,-0.0591572821140289,0.4105484187602997,walking,2026-03-04_14-02-37
1772632959171922700,1.838922607421875,-0.4364620201049372,-1.1194846525646744,-0.6384264983534813,0.0149469748139381,-0.1356339454650879,0.1960499584674835,walking,2026-03-04_14-02-37
1772632959181871600,1.84887158203125,-0.404199626664631,-0.9367039270073176,-0.6415986986488104,-0.0170561969280242,-0.2675165832042694,0.257879227399826,walking,2026-03-04_14-02-37
1772632959191820500,1.858820556640625,-0.3709005836529657,-0.5798764019683003,-0.7993950589448213,-0.0393793433904647,-0.3255420625209808,0.0473680794239044,walking,2026-03-04_14-02-37
1772632959201769500,1.86876953125,-0.328790530741401,-0.1783839519031345,-1.1334037261933088,-0.011762848123908,-0.3500500023365021,0.1317993700504303,walking,2026-03-04_14-02-37
1772632959211718700,1.87871875,-0.2581491972092539,0.3143492964021861,-1.489198108792305,0.0012040827423334,-0.325095385313034,-0.0412666834890842,walking,2026-03-04_14-02-37
1772632959221667600,1.88866748046875,-0.2174016282899305,0.7536012760192156,-1.635505691346526,0.0100421858951449,-0.3324257135391235,0.078356996178627,walking,2026-03-04_14-02-37
1772632959231616800,1.89861669921875,-0.0657674073528498,1.009088925869018,-1.7060352715998888,-0.0014147334732115,-0.2646852731704712,-0.0111925937235355,walking,2026-03-04_14-02-37
1772632959241565700,1.908565673828125,0.1837519452096894,1.1531481449745595,-1.8107558752685784,-0.0011534788645803,-0.1760426759719848,0.0701119750738143,walking,2026-03-04_14-02-37
1772632959251514600,1.9185146484375,0.3769627697687596,1.339591630823165,-1.954455905672908,0.0330865159630775,0.0031723463907837,0.1519698202610016,walking,2026-03-04_14-02-37
1772632959261463600,1.928463623046875,0.5360665959341451,1.4393848610922693,-2.072258693754673,0.1139883697032928,0.2327772974967956,0.2770633697509765,walking,2026-03-04_14-02-37
1772632959271412700,1.938412841796875,0.6715646517150103,1.4409825055472552,-1.9761223785579205,0.2232640087604522,0.4376782476902008,0.3991059362888336,walking,2026-03-04_14-02-37
1772632959281361700,1.948361572265625,0.68730582620427,1.366146168010682,-1.5158745187938212,0.3337677717208862,0.5495705604553223,0.4680529534816742,walking,2026-03-04_14-02-37
1772632959291310600,1.958310546875,0.6099672235231847,1.1321709695279598,-0.7504302447676658,0.4333998262882232,0.5467684268951416,0.4856290221214294,walking,2026-03-04_14-02-37
1772632959301260800,1.9682607421875,0.591254924268648,0.8882542227454483,0.0638262832224369,0.5114469528198242,0.4493028819561004,0.4755701124668121,walking,2026-03-04_14-02-37
1772632959311209700,1.978209716796875,0.5702559023164212,0.7154903026811779,0.7145902851015329,0.5462038516998291,0.296009212732315,0.4339755475521087,walking,2026-03-04_14-02-37
1772632959321158700,1.98815869140625,0.5005434105996042,0.6351620897300541,1.3729998332977291,0.5203537940979004,0.0884293541312217,0.3756061792373657,walking,2026-03-04_14-02-37
1772632959331107600,1.998107666015625,0.4892855920694768,0.6084333650194108,1.8599340399354696,0.4621248245239258,-0.1266224980354309,0.3074939846992492,walking,2026-03-04_14-02-37
1772632959341056500,2.008056396484375,0.4773049756901338,0.6282695537373423,2.029497410392761,0.3585645258426666,-0.2669849097728729,0.2207459807395935,walking,2026-03-04_14-02-37
1772632959351005400,2.01800537109375,0.2924070387830957,0.7843360215008258,2.023117938488722,0.2177101969718933,-0.324430376291275,0.1504776775836944,walking,2026-03-04_14-02-37
1772632959360954600,2.02795458984375,0.1759435730136931,0.9786362121991812,1.8806804753661155,0.0570799149572849,-0.3148152530193329,0.1218580901622772,walking,2026-03-04_14-02-37
1772632959370903800,2.03790380859375,0.2078469604158773,1.1007622703075408,1.5921557944417,-0.0966721028089523,-0.2720539271831512,0.1068237423896789,walking,2026-03-04_14-02-37
1772632959380852700,2.047852783203125,0.1503115209659561,1.2353617332808673,1.2215326760232448,-0.2173844426870346,-0.2197074443101883,0.0903430059552192,walking,2026-03-04_14-02-37
1772632959390801700,2.0578017578125,0.0429976494010537,1.3049088783681393,0.7556821739464998,-0.2953487634658813,-0.1623261719942093,0.0767385140061378,walking,2026-03-04_14-02-37
1772632959400750600,2.06775048828125,-0.0634680078366771,1.3365072549417614,0.3047416562318801,-0.3298356235027313,-0.1105201542377471,0.0622926205396652,walking,2026-03-04_14-02-37
1772632959410699500,2.077699462890625,-0.2014309193611144,1.35220853581205,-0.0895206964492797,-0.3242046236991882,-0.0580734610557556,0.0421577915549278,walking,2026-03-04_14-02-37
1772632959420648400,2.0876484375,-0.2794985669691116,1.3448432677410542,-0.39517596039474,-0.2835314869880676,-0.0128947347402572,0.0294181518256664,walking,2026-03-04_14-02-37
1772632959430597600,2.09759765625,-0.251171357553266,1.3049582704678178,-0.6393547191143035,-0.2143300771713256,0.0454324893653392,0.0326815918087959,walking,2026-03-04_14-02-37
1772632959440546800,2.107546875,-0.2308751501081511,1.2788121679507196,-0.7306634680241346,-0.1342974156141281,0.0987176448106765,0.0455070436000824,walking,2026-03-04_14-02-37
1772632959450495700,2.117495849609375,-0.1696245625926181,1.2453124878004194,-0.664960285013914,-0.0552976727485656,0.1441093683242797,0.0774689689278602,walking,2026-03-04_14-02-37
1772632959460444700,2.127444580078125,-0.0347789063058793,1.1442498221173882,-0.4714408694297075,0.013779442757368,0.1918100267648697,0.1215023472905159,walking,2026-03-04_14-02-37
1772632959470393600,2.1373935546875,0.0537481394635513,0.9957836002245544,-0.1629126803964376,0.0671673044562339,0.2307084202766418,0.1633171886205673,walking,2026-03-04_14-02-37
1772632959480342500,2.147342529296875,0.0774936471123248,0.7820270139060914,0.2911088521987199,0.0860956683754921,0.2382779270410537,0.190998688340187,walking,2026-03-04_14-02-37
1772632959490292500,2.15729248046875,0.1077717348676174,0.5133240547828376,0.8310942655444145,0.0738003849983215,0.2155561000108719,0.2043991833925247,walking,2026-03-04_14-02-37
1772632959500241700,2.16724169921875,0.173406309621036,0.2132426454469561,1.285927699044347,0.0412408970296382,0.162098616361618,0.2029831111431121,walking,2026-03-04_14-02-37
1772632959510190800,2.17719091796875,0.2107431202488019,0.0098009707853198,1.6354314570665358,-0.0053649554029107,0.0809976309537887,0.1960583627223968,walking,2026-03-04_14-02-37
1772632959520139800,2.187139892578125,0.2195013039829209,-0.1306768827021122,1.8152561092972757,-0.0562998205423355,0.0048055984079837,0.1764955520629882,walking,2026-03-04_14-02-37
1772632959530088700,2.197088623046875,0.187088615351729,-0.262782190772146,1.881039371806383,-0.1132246181368827,-0.0438005551695823,0.1460202038288116,walking,2026-03-04_14-02-37
1772632959540037600,2.20703759765625,0.108278953737393,-0.4181479629203677,1.8298948755025863,-0.1817826926708221,-0.0954743847250938,0.0883149430155754,walking,2026-03-04_14-02-37
1772632959549986600,2.216986572265625,-0.0724283996120095,-0.5090858326911926,1.694122715488076,-0.2307904511690139,-0.0939457342028617,0.0090997517108917,walking,2026-03-04_14-02-37
1772632959559935500,2.226935546875,-0.1871280340466648,-0.573768294351548,1.32674661616683,-0.2530268132686615,-0.0470243506133556,-0.067935936152935,walking,2026-03-04_14-02-37
1772632959569884400,2.236884521484375,-0.2047051917914301,-0.5146326531633735,0.9545482112556696,-0.254478245973587,-0.0135425589978694,-0.125849574804306,walking,2026-03-04_14-02-37
1772632959579833900,2.246833740234375,-0.0821421305052936,-0.3639361880004406,0.6942594447344541,-0.2359838783740997,0.002447513397783,-0.1468304693698883,walking,2026-03-04_14-02-37
1772632959589782800,2.25678271484375,0.1597334658384323,-0.2441742286749184,0.5026613526016473,-0.2009148299694061,0.0045010768808424,-0.1375184655189514,walking,2026-03-04_14-02-37
1772632959599731700,2.266731689453125,0.3176414698153734,-0.1181755669169127,0.3648527183234691,-0.170331671833992,0.0043881661258637,-0.1161747276782989,walking,2026-03-04_14-02-37
1772632959609680600,2.2766806640625,0.3126331036014482,-0.045540538816899,0.3554419158995151,-0.1518791615962982,0.000608607660979,-0.1099109724164009,walking,2026-03-04_14-02-37
1772632959619629600,2.286629638671875,0.2152698404256254,-0.1103957266956567,0.3429880925178528,-0.1338108628988266,0.0160607136785984,-0.1261086612939834,walking,2026-03-04_14-02-37
1772632959629578500,2.29657861328125,0.083583671083115,-0.2050938257828354,0.2699357157886028,-0.1211078464984893,0.057609487324953,-0.1601095050573349,walking,2026-03-04_14-02-37
1772632959639527700,2.306527587890625,-0.0481311763646081,-0.2865219627998769,0.2097685395956039,-0.1137653812766075,0.1119528487324714,-0.193383127450943,walking,2026-03-04_14-02-37
1772632959649476600,2.3164765625,-0.0619913594128564,-0.3837769067630172,0.2323129643589258,-0.1141651198267936,0.159947007894516,-0.2204056829214096,walking,2026-03-04_14-02-37
1772632959659425800,2.32642578125,-0.0055453226348385,-0.5243323555313051,0.2988134352266788,-0.1154425889253616,0.1828007251024246,-0.2451069951057434,walking,2026-03-04_14-02-37
1772632959669375700,2.336375732421875,0.1417137154253199,-0.6740406864397227,0.3649111705124378,-0.1141160726547241,0.1845584064722061,-0.2532285749912262,walking,2026-03-04_14-02-37
1772632959679324700,2.34632470703125,0.2895049606660381,-0.7934450644992291,0.4046761946678161,-0.1017975360155105,0.1691165715456009,-0.2454851269721985,walking,2026-03-04_14-02-37
1772632959689273600,2.356273681640625,0.4281481095395982,-0.902041048296541,0.4016775973737239,-0.0714958235621452,0.1515935063362121,-0.22998046875,walking,2026-03-04_14-02-37
1772632959699222500,2.366222412109375,0.5334016145085916,-1.0048236696399748,0.2338712997168302,-0.0135471615940332,0.1258599460124969,-0.2080194354057312,walking,2026-03-04_14-02-37
1772632959709171500,2.37617138671875,0.5898205806165934,-0.9850558699831364,-0.0036129298001527,0.0565344542264938,0.1006637886166572,-0.1612127721309662,walking,2026-03-04_14-02-37
1772632959719120600,2.38612060546875,0.6159580614358187,-0.986691508360952,-0.1046802716583013,0.1037151515483856,0.0432246252894401,-0.1080874428153038,walking,2026-03-04_14-02-37
1772632959729069800,2.39606982421875,0.6617207916360348,-1.0788970599800347,-0.0278507144778966,0.115152895450592,-0.0530718155205249,-0.0672705098986625,walking,2026-03-04_14-02-37
1772632959739018800,2.406018798828125,0.6493006513282656,-1.2614973144039512,0.0894897167891263,0.090128444135189,-0.1426333785057068,-0.0597999803721904,walking,2026-03-04_14-02-37
1772632959748967700,2.4159677734375,0.4527270358052104,-1.475008109267801,0.1118622921168804,0.0323935151100158,-0.1824718713760376,-0.0950850024819374,walking,2026-03-04_14-02-37
1772632959758916600,2.42591650390625,0.1002662546083331,-1.6645026532500982,-0.0124953244358301,-0.0249919220805168,-0.1889987587928772,-0.166965514421463,walking,2026-03-04_14-02-37
1772632959768865500,2.435865478515625,-0.1578959482129663,-1.718296641149372,-0.2467722823441028,-0.0578721053898334,-0.2009736746549606,-0.2378612458705902,walking,2026-03-04_14-02-37
1772632959778814500,2.445814453125,-0.1045262501403689,-1.6563266533181071,-0.5620622205972671,-0.0423563942313194,-0.1671802550554275,-0.26953125,walking,2026-03-04_14-02-37
1772632959788763600,2.455763671875,0.1730193195974454,-1.4743606051445006,-0.9629483753323554,0.0291284397244453,-0.1101800873875618,-0.2443084418773651,walking,2026-03-04_14-02-37
1772632959798712800,2.465712890625,0.5253764577567577,-1.1603653828769922,-1.259015142199397,0.1251323372125625,-0.0780665874481201,-0.1810604333877563,walking,2026-03-04_14-02-37
1772632959808661800,2.475661865234375,0.8548546419687568,-0.9496382273823022,-1.2465806080400943,0.1981349140405655,-0.0813579857349395,-0.1058991029858589,walking,2026-03-04_14-02-37
1772632959818610700,2.485610595703125,1.1115026408348232,-0.9480996196381748,-0.9874304901599884,0.2467569857835769,-0.139459028840065,-0.0159210227429866,walking,2026-03-04_14-02-37
1772632959828559600,2.4955595703125,1.32173930939883,-1.074856114026159,-0.7885492552816867,0.262570321559906,-0.2190396040678024,0.0311974864453077,walking,2026-03-04_14-02-37
1772632959838508500,2.505508544921875,1.0777366378985345,-0.9993030065223574,-0.6472153694868087,0.2542294561862945,-0.2909404039382934,0.0358187966048717,walking,2026-03-04_14-02-37
1772632959848457500,2.51545751953125,0.7916200410291552,-1.002099651503563,-0.6491974832147359,0.2213958799839019,-0.3204772472381592,0.0261232927441597,walking,2026-03-04_14-02-37
1772632959858407700,2.52540771484375,0.5677559021942317,-1.0441140620209275,-0.855929431593418,0.1821846514940261,-0.2933583855628967,-0.0052807824686169,walking,2026-03-04_14-02-37
1772632959868356600,2.535356689453125,0.3277822670143097,-0.9833438053682446,-1.0936913090080025,0.1442053169012069,-0.238884761929512,-0.0379359312355518,walking,2026-03-04_14-02-37
1772632959878305800,2.545305908203125,0.1604678810602054,-0.8439141457594931,-1.2785130388736723,0.0907254964113235,-0.2034634947776794,-0.0676307380199432,walking,2026-03-04_14-02-37
1772632959888254700,2.555254638671875,0.0755876673605293,-0.6643322162434458,-1.3184195173263549,0.0064713307656347,-0.1796830594539642,-0.1017791256308555,walking,2026-03-04_14-02-37
1772632959898203600,2.56520361328125,-0.0777010062526911,-0.5237237221136689,-1.2935633084893223,-0.0778778195381164,-0.2334080934524536,-0.1336973309516906,walking,2026-03-04_14-02-37
1772632959908152600,2.575152587890625,-0.1913937651997432,-0.2269292254939675,-1.3680810815960167,-0.1346944868564605,-0.2781827449798584,-0.1704097986221313,walking,2026-03-04_14-02-37
1772632959918101000,2.58510107421875,-0.2774967073610984,0.0164981303364038,-1.732193795207143,-0.1545009166002273,-0.2980135381221771,-0.2202979922294616,walking,2026-03-04_14-02-37
1772632959928050000,2.5950498046875,-0.505088287487626,0.422430316414684,-2.091234612381458,-0.1375932991504669,-0.3003888130187988,-0.2755567133426666,walking,2026-03-04_14-02-37
1772632959937999400,2.604999267578125,-0.6568161415249109,0.9081969405777752,-2.3454151251554487,-0.0816109105944633,-0.2587088942527771,-0.3226698637008667,walking,2026-03-04_14-02-37
1772632959947948300,2.6149482421875,-0.6587889029026031,1.354253777904063,-2.5240222182899714,0.0141062997281551,-0.1219784766435623,-0.3422555327415466,walking,2026-03-04_14-02-37
1772632959957897200,2.624897216796875,-0.5952444322962314,1.8315110785275697,-2.5896967597275973,0.1397397816181183,0.0693841204047203,-0.3203362822532654,walking,2026-03-04_14-02-37
1772632959967846100,2.63484619140625,-0.402917660562694,2.2629306109532714,-2.4144658650279043,0.2698301374912262,0.2469897866249084,-0.2592215240001678,walking,2026-03-04_14-02-37
1772632959977795000,2.644795166015625,-0.0866320623356848,2.5558599565774203,-1.913908206707239,0.3933497965335846,0.350621223449707,-0.1557072252035141,walking,2026-03-04_14-02-37
1772632959987744000,2.654743896484375,0.2740221083194017,2.7087948483169075,-1.2110562901943922,0.4823550283908844,0.3746794164180755,-0.0308470483869314,walking,2026-03-04_14-02-37
1772632959997693200,2.664693115234375,0.4730274079687893,2.663407892626524,-0.39305005428195,0.5227610468864441,0.3471376597881317,0.0732556656002998,walking,2026-03-04_14-02-37
1772632960007642000,2.67464208984375,0.4379345768755301,2.421669512796402,0.3832043675720691,0.5074870586395264,0.2872727215290069,0.1365651339292526,walking,2026-03-04_14-02-37
1772632960017591300,2.68459130859375,0.2063301261121407,2.0562727507241068,1.0715198092103004,0.4432963728904724,0.2040065973997116,0.1359770148992538,walking,2026-03-04_14-02-37
1772632960027540200,2.694540283203125,-0.1404010253915563,1.6890078566923736,1.541266734203696,0.3525872528553009,0.1296340972185135,0.0857617706060409,walking,2026-03-04_14-02-37
1772632960037489200,2.7044892578125,-0.5150970192721114,1.4032058787301185,1.7319518031448125,0.2500967681407928,0.1090795621275901,-0.0001538381911814,walking,2026-03-04_14-02-37
1772632960047439000,2.714439208984375,-0.8918662757627666,1.2321652753271162,1.7669471286803482,0.1412632316350937,0.1272050440311432,-0.1116119250655174,walking,2026-03-04_14-02-37
1772632960057388000,2.724387939453125,-1.159635826493427,1.1313384642265736,1.7726479706704616,0.0233670901507139,0.1483724862337112,-0.2267143428325653,walking,2026-03-04_14-02-37
1772632960067337000,2.7343369140625,-1.175563828791678,1.0801283553406595,1.789751081162691,-0.0898113995790481,0.1389065384864807,-0.3162649869918823,walking,2026-03-04_14-02-37
1772632960077286100,2.7442861328125,-0.9704911919273436,1.1032155086785551,1.781923748537898,-0.1856011748313903,0.0974483340978622,-0.3485379219055176,walking,2026-03-04_14-02-37
1772632960087235300,2.7542353515625,-0.63382221942842,1.176126723371446,1.6635136422127483,-0.2555775940418243,0.0563086196780204,-0.3208090960979461,walking,2026-03-04_14-02-37
1772632960097184300,2.764184326171875,-0.3528464560462162,1.2450542752556502,1.4338105680912732,-0.2919522821903229,0.0227234102785587,-0.2603697776794433,walking,2026-03-04_14-02-37
1772632960107133200,2.77413330078125,-0.1975503150681033,1.250205666669458,1.1458756697535517,-0.2892214655876159,0.0047867544926702,-0.1913981884717941,walking,2026-03-04_14-02-37
1772632960117082000,2.78408203125,-0.1436736903866753,1.1378595365583897,0.8009498871713876,-0.2550925016403198,0.0117993112653493,-0.125750184059143,walking,2026-03-04_14-02-37
1772632960127031000,2.794031005859375,-0.1901444957910105,0.9638380176484584,0.5440519321322441,-0.2074331045150756,0.0261851754039526,-0.0728558152914047,walking,2026-03-04_14-02-37
1772632960136980000,2.80397998046875,-0.2742423269413411,0.7411180804125964,0.4700584751605987,-0.1631335467100143,0.015534596517682,-0.0420098789036273,walking,2026-03-04_14-02-37
1772632960146929200,2.81392919921875,-0.3785618755284696,0.5189668829753995,0.5526543407827615,-0.1245161071419715,-0.0257766246795654,-0.0338526144623756,walking,2026-03-04_14-02-37
1772632960156878300,2.82387841796875,-0.4691746049981564,0.2689920051977038,0.6313496918350457,-0.0993624776601791,-0.0471306033432483,-0.0427420735359191,walking,2026-03-04_14-02-37
1772632960166827300,2.8338271484375,-0.5381711304653436,0.0599810059711337,0.6837859815150499,-0.0968319401144981,-0.0693709254264831,-0.0543236285448074,walking,2026-03-04_14-02-37
1772632960176776200,2.843776123046875,-0.5693684154247864,-0.0633475597947835,0.8039484844654798,-0.1178846657276153,-0.1166703552007675,-0.0718803331255912,walking,2026-03-04_14-02-37
1772632960186725000,2.85372509765625,-0.5241502769626677,-0.2130368937417864,0.8384159867346286,-0.1282206624746322,-0.128478541970253,-0.0860315710306167,walking,2026-03-04_14-02-37
1772632960196674000,2.863674072265625,-0.4386516391037032,-0.290483998298645,0.7011585565984249,-0.1332580000162124,-0.107730932533741,-0.0841914489865303,walking,2026-03-04_14-02-37
1772632960206623000,2.873623046875,-0.3803974203925579,-0.2312258997745812,0.5900532203286886,-0.1399355977773666,-0.0995414480566978,-0.0678859800100326,walking,2026-03-04_14-02-37
1772632960216572200,2.883572265625,-0.2972339474828913,-0.1983189248204231,0.5834907930731773,-0.1540381014347076,-0.1273121535778045,-0.054574828594923,walking,2026-03-04_14-02-37
1772632960226521300,2.893521240234375,-0.2461607263170182,-0.2246826156109571,0.5861608890652656,-0.1552903205156326,-0.1456866413354873,-0.0470013320446014,walking,2026-03-04_14-02-37
1772632960236471300,2.90347119140625,-0.2338408315133303,-0.1962785050339996,0.4684375959604978,-0.1509361714124679,-0.131679505109787,-0.0389485135674476,walking,2026-03-04_14-02-37
1772632960246420200,2.913420166015625,-0.3023951296383514,-0.146924107017368,0.3533867369353771,-0.1550899147987365,-0.1008853763341903,-0.0415371060371398,walking,2026-03-04_14-02-37
1772632960256369200,2.923369140625,-0.3895370777249336,-0.1635799121335148,0.3246902192831039,-0.169125884771347,-0.063002698123455,-0.0507382340729236,walking,2026-03-04_14-02-37
1772632960266318000,2.933318115234375,-0.3873380698433146,-0.1873288903810084,0.331491715991497,-0.1821753829717636,-0.0160066951066255,-0.0523766092956066,walking,2026-03-04_14-02-37
1772632960276267000,2.94326708984375,-0.318308153563179,-0.1432442494608461,0.3583785538733005,-0.1957245618104934,-0.0002069387119263,-0.040667537599802,walking,2026-03-04_14-02-37
1772632960286216000,2.9532158203125,-0.2390393500044941,-0.0435218924708664,0.4427203863799572,-0.1942281275987625,-0.0331526361405849,-0.0176964402198791,walking,2026-03-04_14-02-37
1772632960296165000,2.9631650390625,-0.1207375994246452,0.020973814445734,0.4124322156220674,-0.1683458983898162,-0.0513296537101268,0.0127987759187817,walking,2026-03-04_14-02-37
1772632960306114300,2.9731142578125,-0.0206455688720569,0.0610446896798908,0.3433808912277221,-0.1436799615621566,-0.0494049899280071,0.0404818020761013,walking,2026-03-04_14-02-37
1772632960316063200,2.983063232421875,-0.0029717458197847,0.0459296842649579,0.3212362794369459,-0.1296701729297638,-0.04207269474864,0.0677019581198692,walking,2026-03-04_14-02-37
1772632960326012200,2.99301220703125,0.0173163513841107,-0.0144959967337548,0.3640934243887662,-0.125113770365715,-0.0237410925328731,0.0957181453704834,walking,2026-03-04_14-02-37
1772632960335961000,3.002961181640625,0.0756696100229397,-0.0864234610863029,0.4133984303057194,-0.1275804340839386,0.0099401148036122,0.1255596280097961,walking,2026-03-04_14-02-37
1772632960345910000,3.012909912109375,0.0707301443267613,-0.1555503349348902,0.5000672444552183,-0.1372370570898056,0.0385954603552818,0.1501360684633255,walking,2026-03-04_14-02-37
1772632960355859000,3.02285888671875,0.0426247244354337,-0.22731617898494,0.5387561638116837,-0.146469697356224,0.0511668473482131,0.164770558476448,walking,2026-03-04_14-02-37
1772632960365808000,3.03280810546875,0.0639026729268953,-0.3657349079854786,0.5715484263449907,-0.1496391296386718,0.0450274609029293,0.1754042953252792,walking,2026-03-04_14-02-37
1772632960375757300,3.04275732421875,0.1191170124854892,-0.4907284843541681,0.5584025290459395,-0.1413817852735519,0.0266549289226531,0.1855117678642273,walking,2026-03-04_14-02-37
1772632960385706200,3.052706298828125,0.1669049283703789,-0.5591755592450499,0.4574544296532869,-0.1093950793147087,0.0118717206642031,0.2026406824588775,walking,2026-03-04_14-02-37
1772632960395655200,3.0626552734375,0.2289853177735581,-0.6007476328223943,0.262604057726264,-0.0592080876231193,0.0050747287459671,0.2263953983783722,walking,2026-03-04_14-02-37
1772632960405604000,3.07260400390625,0.2463977499432861,-0.5858287345014512,0.1311485918670892,-0.0278206020593643,-0.004289211705327,0.2515271306037903,walking,2026-03-04_14-02-37
1772632960415553000,3.082552978515625,0.197072285760194,-0.6214376618906855,0.135016957733035,-0.0226321425288915,-0.0167160760611295,0.2671372890472412,walking,2026-03-04_14-02-37
1772632960425502000,3.092501953125,0.1301773356821388,-0.7612270947225391,0.190217451429367,-0.0390398800373077,-0.0304177738726139,0.262373685836792,walking,2026-03-04_14-02-37
1772632960435452200,3.1024521484375,0.0325891046440228,-0.8692325652807951,0.1047568440258503,-0.0570721328258514,-0.0225088484585285,0.2568902373313904,walking,2026-03-04_14-02-37
1772632960445401000,3.112401123046875,-0.0451388992134481,-0.901513225030154,-0.1095417402148246,-0.069682203233242,0.0168151222169399,0.2577880024909973,walking,2026-03-04_14-02-37
1772632960455350300,3.122350341796875,-0.0727644266333431,-0.9078697544500232,-0.3519482285648584,-0.0778594017028808,0.0583098232746124,0.2632564306259155,walking,2026-03-04_14-02-37
1772632960465299200,3.13229931640625,-0.0982460008271038,-0.930886619030684,-0.5786638113081455,-0.0675425827503204,0.0938872545957565,0.2667326331138611,walking,2026-03-04_14-02-37
1772632960475248000,3.142248046875,-0.0630972748281434,-0.907974676129222,-0.8128957610309123,-0.0322390049695968,0.1166599094867706,0.2851535975933075,walking,2026-03-04_14-02-37
1772632960485197000,3.152197021484375,0.0154891359569504,-0.824753225954622,-0.9905056598216294,0.0287415236234664,0.1274728775024414,0.3267518877983093,walking,2026-03-04_14-02-37
1772632960495146000,3.16214599609375,0.0860600711340084,-0.752093501804769,-1.1520973207473757,0.1076750010251998,0.1385469436645507,0.3860441148281097,walking,2026-03-04_14-02-37
1772632960505095200,3.17209521484375,0.0983014573413878,-0.7269568685911595,-1.3008856142014265,0.1983790695667266,0.1534758359193802,0.4356854557991028,walking,2026-03-04_14-02-37
1772632960515044000,3.182044189453125,0.0478580950442701,-0.77325480164662,-1.3895803812205791,0.295575886964798,0.195461168885231,0.4792304933071136,walking,2026-03-04_14-02-37
1772632960524993300,3.1919931640625,-0.0150602064877748,-0.8663108326151967,-1.4028560423791407,0.3754944205284118,0.2374941110610962,0.5145706534385681,walking,2026-03-04_14-02-37
1772632960534942200,3.201942138671875,-0.0636082200249657,-0.9913450332552194,-1.2074205640405415,0.4094590842723846,0.2373495697975158,0.535647988319397,walking,2026-03-04_14-02-37
1772632960544891100,3.21189111328125,-0.0705170495653525,-1.134538575442135,-0.8224965330690145,0.3933437466621399,0.1943669468164444,0.5358666181564331,walking,2026-03-04_14-02-37
1772632960554840000,3.221840087890625,-0.1288094083297997,-1.2952007004328072,-0.4286825086772441,0.3290323317050934,0.132378488779068,0.5038132071495056,walking,2026-03-04_14-02-37
1772632960564789000,3.2317890625,-0.3128669488899409,-1.409338390135765,-0.1868003364622592,0.2381698042154312,0.0705382972955703,0.4348980188369751,walking,2026-03-04_14-02-37
1772632960574738000,3.241738037109375,-0.5255405622772872,-1.4563481247223913,-0.171612119680643,0.1521139740943908,0.0448299460113048,0.3526492118835449,walking,2026-03-04_14-02-37
1772632960584687400,3.251687255859375,-0.699518972697854,-1.3510647726044058,-0.3929769890457391,0.0756061449646949,0.050059862434864,0.2584159076213836,walking,2026-03-04_14-02-37
1772632960594636300,3.26163623046875,-0.7909245330456643,-1.2191374514497817,-0.7149363220602274,0.0194303598254919,0.0617227405309677,0.1538819670677185,walking,2026-03-04_14-02-37
1772632960604585200,3.271585205078125,-0.8051919817205518,-1.0101021945647894,-1.07027127045393,-0.0225312057882547,0.0601168572902679,0.0717793777585029,walking,2026-03-04_14-02-37
1772632960614534100,3.2815341796875,-0.6919826589088887,-0.5889427748687565,-1.3731307662010193,-0.0499206706881523,0.0241339281201362,0.021342072635889,walking,2026-03-04_14-02-37
1772632960624483000,3.291483154296875,-0.593741224659048,-0.0793796800546348,-1.6395868231803177,-0.0677577257156372,-0.0251191053539514,-0.0129487896338105,walking,2026-03-04_14-02-37
1772632960634433000,3.30143310546875,-0.5626930293140933,0.4325521897174417,-1.9371616565227507,-0.0532966181635856,-0.0738718211650848,-0.0424509309232234,walking,2026-03-04_14-02-37
1772632960644382200,3.31138232421875,-0.4742199422216042,0.8730451093062758,-2.2968419406443834,-0.0056111202575266,-0.0771315321326255,-0.0497796833515167,walking,2026-03-04_14-02-37
1772632960654331100,3.3213310546875,-0.4148238965315744,1.313421709039062,-2.6638883696198463,0.0626699775457382,-0.018970038741827,-0.0354228317737579,walking,2026-03-04_14-02-37
1772632960664280000,3.331280029296875,-0.3789341794395819,1.6938026897534728,-2.845948233556747,0.1199354007840156,0.1006218791007995,0.00222680834122,walking,2026-03-04_14-02-37
1772632960674229200,3.341229248046875,-0.3621432036364451,1.901843674904108,-2.7172277456194163,0.177057534456253,0.2436113208532333,0.08468559384346,walking,2026-03-04_14-02-37
1772632960684178200,3.35117822265625,-0.1686911542000249,1.8793202929288149,-2.4916326913386584,0.2542740404605865,0.431347131729126,0.1866058260202407,walking,2026-03-04_14-02-37
1772632960694127000,3.361127197265625,-0.1026273942491039,1.8591772302187977,-2.0911030949562788,0.3268206715583801,0.5793355107307434,0.2755652666091919,walking,2026-03-04_14-02-37
1772632960704076000,3.371075927734375,-0.1234855829585343,1.71378223246485,-1.3536743705809116,0.3810849785804748,0.6392425298690796,0.3437485992908478,walking,2026-03-04_14-02-37
1772632960714025000,3.38102490234375,-0.0680585870299488,1.3759057838723063,-0.5050877029657364,0.4216476678848266,0.6267703771591187,0.3746484816074371,walking,2026-03-04_14-02-37
1772632960723974100,3.39097412109375,-0.0864361013721674,1.0734814646720885,0.2531687053829431,0.4514564275741577,0.5809637308120728,0.3677112162113189,walking,2026-03-04_14-02-37
1772632960733923000,3.400923095703125,-0.1642830919668078,0.8933825255446135,0.8588052792906761,0.469213992357254,0.4800270795822143,0.3365914523601532,walking,2026-03-04_14-02-37
1772632960743872300,3.410872314453125,-0.1380035723283887,0.7588022056631744,1.3098019111067056,0.4744231402873993,0.3550337255001068,0.280940979719162,walking,2026-03-04_14-02-37
1772632960753821200,3.4208212890625,-0.0737247960980981,0.7797742665432393,1.6377467482715844,0.4647621810436249,0.2311554849147796,0.1944965869188308,walking,2026-03-04_14-02-37
1772632960763770000,3.43077001953125,-0.0671036243926733,0.8669370016895234,1.9874165105104444,0.4196639358997345,0.0988307297229766,0.1289697736501693,walking,2026-03-04_14-02-37
1772632960773719000,3.440718994140625,0.0683684566967189,0.9141592099830508,2.243812361246347,0.3516912460327148,0.0052020428702235,0.1016759648919105,walking,2026-03-04_14-02-37
1772632960783668000,3.45066796875,0.2553751293860375,1.084043336827308,2.326300090318918,0.2590697109699249,-0.067275620996952,0.0822221040725708,walking,2026-03-04_14-02-37
1772632960793617200,3.4606171875,0.3193392136439681,1.2794509042456743,2.3542519270837308,0.1586713790893554,-0.1537764519453048,0.079976886510849,walking,2026-03-04_14-02-37
1772632960803566300,3.47056640625,0.4056312303703278,1.3117641510903837,2.3257997395813463,0.0333709903061389,-0.2590906322002411,0.0643159002065658,walking,2026-03-04_14-02-37
1772632960813515300,3.480515380859375,0.3638604924157261,1.3347890528470276,2.2104601267427206,-0.0964138209819793,-0.3686617612838745,0.0366057455539703,walking,2026-03-04_14-02-37
1772632960823464200,3.490464111328125,0.1643281001523137,1.2943160265527665,1.8584756578207016,-0.2178592830896377,-0.4198884665966034,-0.0077627850696444,walking,2026-03-04_14-02-37
1772632960833414100,3.5004140625,-0.1219164339456707,1.3000892031267284,1.3655916028678416,-0.3399445116519928,-0.4592498540878296,-0.07746372371912,walking,2026-03-04_14-02-37
1772632960843363000,3.510363037109375,-0.4290492230977862,1.3542634225152432,0.9360404946625231,-0.4495341181755066,-0.480734646320343,-0.1523877680301666,walking,2026-03-04_14-02-37
1772632960853312300,3.520312255859375,-0.5878018246727064,1.3838393533505498,0.4088818296641111,-0.5123846530914307,-0.4495673179626465,-0.2172591388225555,walking,2026-03-04_14-02-37
1772632960863261200,3.53026123046875,-0.641505686603114,1.4937893821053203,-0.1725485237479209,-0.5207288861274719,-0.3254128992557525,-0.2552491426467895,walking,2026-03-04_14-02-37
1772632960873210000,3.540210205078125,-0.6769025056116282,1.703875901608914,-0.7379197227627039,-0.4784901440143585,-0.147986501455307,-0.2551476955413818,walking,2026-03-04_14-02-37
1772632960883159000,3.550158935546875,-0.5851227416565642,1.8420925321660933,-1.1274246517837048,-0.3814562559127807,0.0383037477731704,-0.195133626461029,walking,2026-03-04_14-02-37
1772632960893108200,3.560108154296875,-0.2726342706901952,1.85219321655035,-1.356983348998427,-0.2441758513450622,0.2018126249313354,-0.0873028859496116,walking,2026-03-04_14-02-37
1772632960903057200,3.57005712890625,0.0152254069868475,1.8713040136031804,-1.2077397129923104,-0.1140769720077514,0.2839908599853515,0.0409216657280921,walking,2026-03-04_14-02-37
1772632960913005600,3.580005615234375,0.2117651202403009,1.7472559013910591,-0.6706956137955188,-0.0268258731812238,0.2585788071155548,0.1461759507656097,walking,2026-03-04_14-02-37
1772632960922954500,3.58995458984375,0.300775456014648,1.339564888946712,0.0332838454425334,0.0119532141834497,0.1793218106031417,0.2137472629547119,walking,2026-03-04_14-02-37
1772632960932903400,3.5999033203125,0.2737162572406232,0.8151863561861217,0.6531757391959429,0.0080650532618165,0.0915562734007835,0.2377534359693527,walking,2026-03-04_14-02-37
1772632960942852600,3.6098525390625,0.0611605711445212,0.3618633272491395,1.108175761434436,-0.02355039678514,0.018871946260333,0.2267966568470001,walking,2026-03-04_14-02-37
1772632960952801800,3.6198017578125,-0.1121820986557751,0.0377734119467437,1.3602034800887106,-0.0690400749444961,-0.0165550261735916,0.1877996325492859,walking,2026-03-04_14-02-37
1772632960962750700,3.629750732421875,-0.2580153416965157,-0.2426272914938628,1.4448030867487192,-0.1170792356133461,-0.0226629842072725,0.1351396143436432,walking,2026-03-04_14-02-37
1772632960972699600,3.63969970703125,-0.3654896279875189,-0.4760005785606801,1.443902338516712,-0.1553654074668884,-0.0144552458077669,0.0601773336529731,walking,2026-03-04_14-02-37
1772632960982648600,3.649648681640625,-0.4570083663862198,-0.655298868829757,1.381769999730587,-0.1822734624147415,-0.0124983545392751,-0.0249372944235801,walking,2026-03-04_14-02-37
1772632960992597500,3.659597412109375,-0.4732393702190369,-0.7249503510743379,1.2984510805308818,-0.2052215635776519,-0.0378623940050601,-0.1069459840655326,walking,2026-03-04_14-02-37
1772632961002546400,3.66954638671875,-0.3417405766747892,-0.7032704341858625,1.277868895751238,-0.2271026223897934,-0.09402447193861,-0.1667459309101104,walking,2026-03-04_14-02-37
1772632961012496000,3.679495849609375,-0.1822039851153269,-0.6679692575715482,1.222183248886466,-0.2517118155956268,-0.1656228303909301,-0.2134320735931396,walking,2026-03-04_14-02-37
1772632961022444800,3.68944482421875,-0.0843305073950439,-0.5691518865972757,1.078797691258788,-0.2675477862358093,-0.2222618758678436,-0.2534335553646087,walking,2026-03-04_14-02-37
1772632961032394800,3.699394775390625,-0.0136425947748124,-0.42993981526196,0.7570575539529323,-0.259820818901062,-0.2348278164863586,-0.2718424499034881,walking,2026-03-04_14-02-37
1772632961042343700,3.70934375,0.0681371321588754,-0.2510107966966927,0.3312397870570421,-0.2329002469778061,-0.1928420066833496,-0.2679063081741333,walking,2026-03-04_14-02-37
1772632961052292600,3.719292724609375,0.0782489224590361,-0.089295509391278,0.01214110417068,-0.206843301653862,-0.1300875544548034,-0.2546479105949402,walking,2026-03-04_14-02-37
1772632961062241500,3.729241455078125,0.0288919671591371,-0.0165558518730103,-0.1380249073773622,-0.1807674914598465,-0.0549017339944839,-0.2417337000370025,walking,2026-03-04_14-02-37
1772632961072190500,3.7391904296875,-0.0604855944924056,-0.0456878383331,-0.1851613370835781,-0.1616745293140411,0.0114336954429745,-0.245587021112442,walking,2026-03-04_14-02-37
1772632961082139600,3.7491396484375,-0.1628841118890792,-0.1458136615574359,-0.1792594195634126,-0.1461594849824905,0.074746623635292,-0.2580665946006775,walking,2026-03-04_14-02-37
1772632961092088600,3.759088623046875,-0.2719412469247356,-0.2483604283183813,-0.1203998188376426,-0.132444754242897,0.1240527853369712,-0.2788877487182617,walking,2026-03-04_14-02-37
1772632961102037800,3.769037841796875,-0.3625360388789326,-0.362916051172465,0.031911972567439,-0.1159637793898582,0.1478337347507476,-0.3052850067615509,walking,2026-03-04_14-02-37
1772632961111986700,3.778986572265625,-0.3531104772772639,-0.450054820921272,0.2100339125335216,-0.0902401208877563,0.1246542111039161,-0.3316488564014435,walking,2026-03-04_14-02-37
1772632961121935600,3.788935546875,-0.2755656114343554,-0.547590043130517,0.3545768235027789,-0.0513728857040405,0.0790406540036201,-0.3501032292842865,walking,2026-03-04_14-02-37
1772632961131884500,3.798884521484375,-0.1899937987413257,-0.596880143739283,0.401280122488737,-0.0082666017115116,0.0230367556214332,-0.3588250279426574,walking,2026-03-04_14-02-37
1772632961141833500,3.80883349609375,-0.0682497987531125,-0.6530608806446194,0.4843664019763469,0.0153441838920116,-0.0599838271737098,-0.354044109582901,walking,2026-03-04_14-02-37
1772632961151782700,3.81878271484375,0.0251647633295506,-0.7718181929722427,0.5700953049272298,0.0269745625555515,-0.1459383815526962,-0.350126713514328,walking,2026-03-04_14-02-37
1772632961161731800,3.82873193359375,0.0994554496821016,-0.910405556537956,0.5470259795069694,0.0360916294157505,-0.2032844871282577,-0.3405854105949402,walking,2026-03-04_14-02-37
1772632961171680800,3.8386806640625,0.1278180957375094,-1.01537443587929,0.4051788834929466,0.0340601243078708,-0.2421175688505172,-0.3286099731922149,walking,2026-03-04_14-02-37
1772632961181629700,3.848629638671875,0.1286099037023261,-1.1206414213843643,0.2466922028452157,0.0229579415172338,-0.2642627954483032,-0.3215576708316803,walking,2026-03-04_14-02-37
1772632961191578600,3.85857861328125,0.1376610059684142,-1.281040803785622,0.0702946024537086,0.0174103528261184,-0.274192214012146,-0.3254597187042236,walking,2026-03-04_14-02-37
1772632961201527600,3.868527587890625,0.1449013324854895,-1.4034146991752088,-0.1637964774936437,0.0147269526496529,-0.2791310548782348,-0.3429460525512695,walking,2026-03-04_14-02-37
1772632961211476500,3.8784765625,0.121248361958377,-1.4678599910788237,-0.408068759715557,0.0240902248769998,-0.2591275572776794,-0.3672530353069305,walking,2026-03-04_14-02-37
1772632961221425400,3.88842529296875,0.1236440614558756,-1.5148815622337162,-0.6545733310341835,0.0431153140962123,-0.2234630286693573,-0.389563649892807,walking,2026-03-04_14-02-37
1772632961231375600,3.898375732421875,0.2158394204745069,-1.480903304786235,-0.8755565076053142,0.0739433169364929,-0.1782224476337433,-0.3926035165786743,walking,2026-03-04_14-02-37
1772632961241324500,3.908324462890625,0.3974370006619021,-1.413079184099287,-1.0433061066389082,0.1248307302594184,-0.1349809616804123,-0.37492436170578,walking,2026-03-04_14-02-37
1772632961251273700,3.918273681640625,0.6787881732277572,-1.3203532618679106,-1.138655070850253,0.1796913146972656,-0.1199096739292144,-0.3327594697475433,walking,2026-03-04_14-02-37
1772632961261222700,3.92822265625,0.9426978336598724,-1.202378039828688,-1.140576394301653,0.2321161776781082,-0.126371830701828,-0.2840031087398529,walking,2026-03-04_14-02-37
1772632961271171600,3.938171630859375,1.1509977620076388,-1.197898994718492,-1.0972580615788698,0.2612357437610626,-0.1562593132257461,-0.2365286648273468,walking,2026-03-04_14-02-37
1772632961281120500,3.94812060546875,1.2637994538664816,-1.2443258148506282,-0.9635743982762096,0.2628141939640045,-0.2116852849721908,-0.210991621017456,walking,2026-03-04_14-02-37
1772632961291069700,3.958069580078125,1.2260030994355675,-1.3062635078474878,-0.8471978436052798,0.2306278198957443,-0.2941254377365112,-0.211991474032402,walking,2026-03-04_14-02-37
1772632961301018600,3.9680185546875,1.051694434147328,-1.270420479441434,-0.8249895189285278,0.180345207452774,-0.3639503419399261,-0.2306530475616455,walking,2026-03-04_14-02-37
1772632961310967800,3.9779677734375,0.778823833950609,-1.1125646440431476,-0.9684896428465842,0.1275059282779693,-0.3799333572387695,-0.2538116574287414,walking,2026-03-04_14-02-37
1772632961320916700,3.987916748046875,0.5102221797773614,-0.88351857252568,-1.2951356723725795,0.0808569267392158,-0.3716615736484527,-0.2733994722366333,walking,2026-03-04_14-02-37
1772632961330865700,3.99786572265625,0.2799255967421457,-0.5701350524157285,-1.6366420019000767,0.0402671098709106,-0.376470148563385,-0.2856823801994324,walking,2026-03-04_14-02-37
1772632961340814600,4.007814697265625,0.1422699062696658,-0.2086389510437846,-1.9407091198712587,0.0182435680180788,-0.3594783842563629,-0.2784620225429535,walking,2026-03-04_14-02-37
1772632961350763500,4.017763427734375,0.0460202486252412,0.139922996083647,-2.290967495653033,0.0112965740263462,-0.3146922588348388,-0.2547752857208252,walking,2026-03-04_14-02-37
1772632961360712400,4.02771240234375,-0.0804311070700176,0.4761608836889267,-2.55899357842803,0.0179712548851966,-0.2449600398540496,-0.2357533872127533,walking,2026-03-04_14-02-37
1772632961370661600,4.03766162109375,-0.1535988355409354,0.7391914962641895,-2.7087077545553444,0.0421117842197418,-0.1460966616868972,-0.2128608375787735,walking,2026-03-04_14-02-37
1772632961380610800,4.04761083984375,-0.1384962694824673,0.9342904361248016,-2.738074718815088,0.0966485291719436,-0.0150619428604841,-0.1799851804971695,walking,2026-03-04_14-02-37
1772632961390559700,4.057559814453125,-0.1320798448352143,1.151490294764936,-2.689929988849163,0.1676723361015319,0.1157292500138282,-0.1435831040143966,walking,2026-03-04_14-02-37
1772632961400508700,4.0675087890625,-0.0912184037452563,1.3632092377759517,-2.3992320555388926,0.2420323193073272,0.2023842483758926,-0.1068788766860961,walking,2026-03-04_14-02-37
1772632961410457600,4.07745751953125,-0.032557631793525,1.5152198542773725,-1.8489806842446328,0.3070049285888672,0.2409332394599914,-0.078131653368473,walking,2026-03-04_14-02-37
1772632961420406500,4.087406494140625,0.0046082427141256,1.6469645123414691,-1.2063725162923336,0.364957720041275,0.2192923873662948,-0.0594796687364578,walking,2026-03-04_14-02-37
1772632961430355500,4.09735546875,0.0160519209388643,1.7711979179926216,-0.6536573852330446,0.4337358176708221,0.194877415895462,-0.0280232727527618,walking,2026-03-04_14-02-37
1772632961440305700,4.1073056640625,0.1044778078887611,1.8908647463805968,-0.3441559672534465,0.512604832649231,0.2112547904253006,0.0161929242312908,walking,2026-03-04_14-02-37
1772632961450254600,4.117254638671875,0.1115548701355233,1.9746907383196053,-0.0657183805793523,0.5771721005439758,0.2505961060523987,0.0561742596328258,walking,2026-03-04_14-02-37
1772632961460203500,4.12720361328125,0.01968735483177,1.961932963555306,0.3308960881859064,0.603006899356842,0.2634589076042175,0.0746627226471901,walking,2026-03-04_14-02-37
1772632961470152700,4.137152587890625,-0.0710174733681604,1.8140424957238137,0.8240437625110149,0.5935377478599548,0.2585295140743255,0.0711043626070022,walking,2026-03-04_14-02-37
1772632961480101600,4.1471015625,-0.2140368645645678,1.6425817672125995,1.231672377243638,0.5495623350143433,0.2505685091018677,0.0447593070566654,walking,2026-03-04_14-02-37
1772632961490050600,4.157050537109375,-0.4667759098259731,1.5288744317509233,1.6042776093900202,0.4623461663722992,0.2342496663331985,-0.0046656252816319,walking,2026-03-04_14-02-37
1772632961499999500,4.16699951171875,-0.7461041251968592,1.4137838252373038,1.9327163675516843,0.3619535267353058,0.2162695974111557,-0.0567679777741432,walking,2026-03-04_14-02-37
1772632961509948700,4.17694873046875,-0.8904382887862622,1.235021687671542,2.002462103950977,0.2550926804542541,0.2528108656406402,-0.1537777036428451,walking,2026-03-04_14-02-37
1772632961519897600,4.186897705078125,-1.237928368898481,1.2017208910942077,1.9923048670738932,0.1335382908582687,0.2941537797451019,-0.2845085561275482,walking,2026-03-04_14-02-37
1772632961529846800,4.1968466796875,-1.3684702270440756,1.1012067992046477,2.084399797925353,0.0117379538714885,0.3151504397392273,-0.3753473162651062,walking,2026-03-04_14-02-37
1772632961539795700,4.206795654296875,-1.1153586586758493,1.0349233320884406,2.140828956633806,-0.1159880459308624,0.2740842401981354,-0.4441412985324859,walking,2026-03-04_14-02-37
1772632961549744600,4.21674462890625,-0.8543968151986598,1.0776292320013046,2.21775437540412,-0.2140621393918991,0.1996607482433319,-0.4671323895454407,walking,2026-03-04_14-02-37
1772632961559693600,4.226693603515625,-0.5502737292565405,1.146805351819098,2.0404063424199816,-0.2793444991111755,0.1356697827577591,-0.4351949393749237,walking,2026-03-04_14-02-37
1772632961569642500,4.236642578125,-0.3237375947333872,1.2410840564504264,1.7748130397498607,-0.3322036266326904,0.0645151436328888,-0.3934237360954284,walking,2026-03-04_14-02-37
1772632961579591700,4.246591796875,-0.2831780591994524,1.2402647028915583,1.5653876145035028,-0.3781096041202545,-0.0191986598074436,-0.3622066974639892,walking,2026-03-04_14-02-37
1772632961589540600,4.25654052734375,-0.244844017695263,1.100725299298018,1.2685557084828614,-0.3904787302017212,-0.0740903094410896,-0.3309165835380554,walking,2026-03-04_14-02-37
1772632961599489800,4.26648974609375,-0.2127892756562679,0.9843570740640164,0.8148001333475112,-0.378680944442749,-0.0837051197886467,-0.2912586629390716,walking,2026-03-04_14-02-37
1772632961609438700,4.276438720703125,-0.2544928666587919,0.9338466378800572,0.4523527226001024,-0.3701146841049194,-0.0703369677066803,-0.250613272190094,walking,2026-03-04_14-02-37
1772632961619387600,4.2863876953125,-0.3122128688953817,0.8156151029922067,0.2611725636184215,-0.3680379390716553,-0.046363990753889,-0.2159317433834076,walking,2026-03-04_14-02-37
1772632961629337600,4.296337646484375,-0.3176366475097835,0.617351415490359,0.1545154389292001,-0.3533374369144439,-0.0177863780409097,-0.1858275830745697,walking,2026-03-04_14-02-37
1772632961639286800,4.306286865234375,-0.3148802614737301,0.4305176151499152,0.0063572600722312,-0.3225294649600982,0.0152155142277479,-0.1539772301912307,walking,2026-03-04_14-02-37
1772632961649235700,4.316235595703125,-0.2679512639731168,0.3213645819917321,-0.0861234552264213,-0.2810328304767608,0.0299106277525424,-0.1129338964819908,walking,2026-03-04_14-02-37
1772632961659184600,4.3261845703125,-0.1791088321115821,0.1983101569920778,-0.0709399146199226,-0.2345526963472366,0.0132509572431445,-0.0668106079101562,walking,2026-03-04_14-02-37
1772632961669133600,4.336133544921875,-0.1068997012734413,0.0550828586660325,0.0564209754019975,-0.1957700103521347,-0.0479770749807357,-0.0305518507957458,walking,2026-03-04_14-02-37
1772632961679082800,4.346082763671875,-0.0659306350905448,-0.0789700763404369,0.2128489699542522,-0.1584191769361496,-0.1316826194524765,-0.0123363621532917,walking,2026-03-04_14-02-37
1772632961689031700,4.35603173828125,-0.0901634513322263,-0.1824780893489718,0.235693838968873,-0.1260833889245987,-0.1819897145032882,0.0004253364168107,walking,2026-03-04_14-02-37
1772632961698980600,4.365980712890625,-0.1673961824860423,-0.2349761922188103,0.1782581335663795,-0.108086809515953,-0.1837846934795379,0.007397492416203,walking,2026-03-04_14-02-37
1772632961708929500,4.375929443359375,-0.3022201018650085,-0.2500070264816284,0.1979582748144865,-0.1170329451560974,-0.1607390940189361,0.0079687107354402,walking,2026-03-04_14-02-37
1772632961718878700,4.385878662109375,-0.3933504985332489,-0.2928060115054249,0.2703098097980022,-0.1499120593070984,-0.1470874696969986,-0.0048570735380053,walking,2026-03-04_14-02-37
1772632961728827600,4.39582763671875,-0.4230504941396415,-0.347007703422755,0.3377157050728798,-0.1792835295200348,-0.1169866845011711,-0.0121043194085359,walking,2026-03-04_14-02-37
1772632961738776600,4.405776611328125,-0.4094838506778702,-0.2926907145626843,0.2627852595120668,-0.1893486827611923,-0.0740085914731025,-0.0020844431128352,walking,2026-03-04_14-02-37
1772632961748725800,4.415725830078125,-0.3794381469063461,-0.1657369440369308,0.1449801333427429,-0.1849836260080337,-0.0497373715043067,0.0216277353465557,walking,2026-03-04_14-02-37
1772632961758674700,4.4256748046875,-0.3325450609693303,-0.1026660092264413,0.0983154128015041,-0.1681250184774398,-0.0627881959080696,0.0458212196826934,walking,2026-03-04_14-02-37
1772632961768623600,4.43562353515625,-0.251247272333689,-0.1215099720366299,0.0596206482261419,-0.1323144733905792,-0.079812005162239,0.074722833931446,walking,2026-03-04_14-02-37
1772632961778572500,4.445572509765625,-0.1881495225815102,-0.1243979485630989,-0.0266109435498714,-0.090457297861576,-0.077642060816288,0.1073872968554496,walking,2026-03-04_14-02-37
1772632961788521500,4.455521484375,-0.1843080081898719,-0.1223278642907738,-0.0880740047723054,-0.059117667376995,-0.0454699657857418,0.1349216252565384,walking,2026-03-04_14-02-37
1772632961798470700,4.465470703125,-0.2514332233598456,-0.1611138142809271,0.013588380369544,-0.0510312430560588,0.0001449231058359,0.1565004140138626,walking,2026-03-04_14-02-37
1772632961808419600,4.475419677734375,-0.2769008055608719,-0.2796018081478774,0.2108230170845985,-0.0648137778043747,0.0451907217502594,0.165102481842041,walking,2026-03-04_14-02-37
1772632961818368800,4.48536865234375,-0.2894615964483469,-0.4400556972153484,0.4442150088518857,-0.1032519787549972,0.0769278854131698,0.1605751067399978,walking,2026-03-04_14-02-37
1772632961828318700,4.495318603515625,-0.2776131916139274,-0.5864098953902721,0.6959189023792743,-0.1485697478055954,0.081265389919281,0.146654725074768,walking,2026-03-04_14-02-37
1772632961838267600,4.505267578125,-0.2166299132650718,-0.67738415164873,0.8229372625738381,-0.1754458248615265,0.0542050115764141,0.1357570737600326,walking,2026-03-04_14-02-37
1772632961848216600,4.515216552734375,-0.1223597572663798,-0.6910489582553505,0.7685188591659069,-0.1662003546953201,0.0046345870941877,0.1331658363342285,walking,2026-03-04_14-02-37
1772632961858165800,4.525165771484375,0.0186685697106644,-0.623070523789525,0.5028489841282368,-0.1218576654791832,-0.0378537476062774,0.1472188085317611,walking,2026-03-04_14-02-37
1772632961868114700,4.53511474609375,0.1505941738322377,-0.4898690910458564,0.1852168666630983,-0.0611134953796863,-0.0434000864624977,0.1846979260444641,walking,2026-03-04_14-02-37
1772632961878063600,4.545063720703125,0.2392616144530475,-0.4148769784256815,-0.1164537115603685,0.0054466249421238,-0.0010675429366528,0.2247305661439895,walking,2026-03-04_14-02-37
1772632961888012500,4.555012451171875,0.2748159986434504,-0.386403894265741,-0.3108820586830377,0.0515653006732463,0.0431949496269226,0.256851851940155,walking,2026-03-04_14-02-37
1772632961897961700,4.564961669921875,0.2337146113177761,-0.4106460628576576,-0.2947317188709974,0.0647854954004287,0.0698782280087471,0.2712939083576202,walking,2026-03-04_14-02-37
1772632961907910700,4.57491064453125,0.1883703987905755,-0.5286382360316813,-0.1934311527788638,0.0483164712786674,0.0575733706355094,0.2737462520599365,walking,2026-03-04_14-02-37
1772632961917860900,4.58486083984375,0.12298431890551,-0.6513457472898065,-0.1394312670439481,0.0192653778940439,0.0092031760141253,0.2611244618892669,walking,2026-03-04_14-02-37
1772632961927809800,4.594809814453125,-0.0029322905922308,-0.6937228536397219,-0.2192489001244306,-0.0002405447885394,-0.0387091860175132,0.2445008456707,walking,2026-03-04_14-02-37
1772632961937758700,4.6047587890625,-0.145220335306786,-0.7050172778531909,-0.5188660529494286,-0.0007598609663546,-0.0412849970161914,0.2223630547523498,walking,2026-03-04_14-02-37
1772632961947707600,4.614707763671875,-0.3319722295174375,-0.6677329645976424,-0.9621195232927798,0.019024308770895,0.0096982643008232,0.2060831636190414,walking,2026-03-04_14-02-37
1772632961957656600,4.624656494140625,-0.4832571620928123,-0.5995055238068103,-1.3245377079457044,0.0594223290681839,0.0743025615811348,0.2145637273788452,walking,2026-03-04_14-02-37
1772632961967605500,4.63460546875,-0.4817952363140881,-0.5105905381657183,-1.5517413664668798,0.1323221623897552,0.1700700223445892,0.2484397143125534,walking,2026-03-04_14-02-37
1772632961977554400,4.644554443359375,-0.4397306665120646,-0.4556516180150211,-1.735624938699603,0.2300202250480651,0.2808135747909546,0.2953917682170868,walking,2026-03-04_14-02-37
1772632961987503600,4.654503662109375,-0.4790048749431967,-0.4315528034165501,-1.7684177857547998,0.334771454334259,0.3514447510242462,0.3506623804569244,walking,2026-03-04_14-02-37
1772632961997452800,4.664452880859375,-0.4271348043112084,-0.498031062452495,-1.5042267510980367,0.4166814982891083,0.3469226956367492,0.4040257334709167,walking,2026-03-04_14-02-37
1772632962007401700,4.674401611328125,-0.3243229934059083,-0.6553177196606993,-1.038420672684908,0.4453701674938202,0.2573193609714508,0.443387508392334,walking,2026-03-04_14-02-37
1772632962017351700,4.6843515625,-0.3039301206532865,-0.8464370883658527,-0.5060188463360071,0.42345130443573,0.1191415041685104,0.462094098329544,walking,2026-03-04_14-02-37
1772632962027300600,4.694300537109375,-0.3816531195420771,-1.050220416072011,-0.1863210285127162,0.3670557141304016,0.004012041259557,0.4545243680477142,walking,2026-03-04_14-02-37
1772632962037249500,4.70424951171875,-0.6184137109596282,-1.1977210078030824,-0.1502992825388908,0.3125773072242737,-0.0491579696536064,0.4195663928985595,walking,2026-03-04_14-02-37
1772632962047198500,4.714198486328125,-0.8739059639193117,-1.2326041051357983,-0.3873597336858511,0.2698930203914642,-0.0633544325828552,0.348056435585022,walking,2026-03-04_14-02-37
1772632962057147600,4.724147705078125,-0.9601588176790624,-1.2445925029627978,-0.7376175249457358,0.2181707024574279,-0.0763509199023246,0.267128050327301,walking,2026-03-04_14-02-37
1772632962067096800,4.734096923828125,-0.9446548860117792,-1.2133486389152706,-0.9371785587817428,0.1813257038593292,-0.0682897567749023,0.1888491213321685,walking,2026-03-04_14-02-37
1772632962077045800,4.744045654296875,-0.8897112896859646,-1.040676196526736,-1.1745540672272443,0.1697321534156799,-0.0435322150588035,0.1302321404218673,walking,2026-03-04_14-02-37
1772632962086994700,4.75399462890625,-0.7530031639955937,-0.684327687176317,-1.4080875132918358,0.169655293226242,-0.0245646052062511,0.0892803594470024,walking,2026-03-04_14-02-37
1772632962096943600,4.763943603515625,-0.5859285416141152,-0.2810689580909907,-1.4813421345949171,0.1705226749181747,-0.0188673045486211,0.0601115524768829,walking,2026-03-04_14-02-37
1772632962106892500,4.773892578125,-0.4302199839102104,0.1005661143377423,-1.437216577142477,0.1638657003641128,-0.0334315001964569,0.0410579033195972,walking,2026-03-04_14-02-37
1772632962116841500,4.783841552734375,-0.2814674924219027,0.4617730235047638,-1.3262345749914646,0.1539014875888824,-0.0489819645881652,0.0389031395316123,walking,2026-03-04_14-02-37
1772632962126790400,4.793790283203125,-0.1629211559638381,0.7748571222767233,-1.239451194551587,0.1452697813510894,-0.0380249582231044,0.0478454232215881,walking,2026-03-04_14-02-37
1772632962136739800,4.80373974609375,-0.050939767511934,1.0412557499803603,-1.209016308799386,0.1452333033084869,0.0039597786962985,0.0729505121707916,walking,2026-03-04_14-02-37
1772632962146688800,4.813688720703125,0.0701532212216407,1.2437186427377165,-1.1490239046514032,0.1567422300577163,0.0413260385394096,0.1105349510908126,walking,2026-03-04_14-02-37
1772632962156637700,4.8236376953125,0.1603969347158446,1.411377933139354,-1.0443190830737352,0.1823133677244186,0.0917971953749656,0.1578175127506256,walking,2026-03-04_14-02-37
1772632962166586600,4.833586669921875,0.2104307298313826,1.5380001336231828,-0.9081558779150248,0.2125138342380523,0.165228009223938,0.203463926911354,walking,2026-03-04_14-02-37
1772632962176535600,4.84353564453125,0.1614122492382302,1.598562154352665,-0.6734352678924799,0.2335591912269592,0.2455902397632599,0.2415585815906524,walking,2026-03-04_14-02-37
1772632962186484500,4.853484375,0.1359284830873832,1.4973181407533585,-0.3279728942155838,0.2580218315124511,0.3247863352298736,0.2603874504566192,walking,2026-03-04_14-02-37
1772632962196433700,4.86343359375,0.174174298318848,1.3314910342149435,0.0192401225209236,0.2922636866569519,0.3951078951358795,0.2642045617103576,walking,2026-03-04_14-02-37
1772632962206382800,4.8733828125,0.2650041046053171,1.2052315295636653,0.3456529278129339,0.343033879995346,0.4165668487548828,0.2650704979896545,walking,2026-03-04_14-02-37
1772632962216332800,4.883332763671875,0.398256609949097,1.168055791249126,0.713635176333785,0.3930754959583282,0.3656187355518341,0.2691390216350555,walking,2026-03-04_14-02-37
1772632962226281700,4.89328173828125,0.5942091709643602,1.1841560083091258,1.1111802039474248,0.421101450920105,0.249506190419197,0.2690743803977966,walking,2026-03-04_14-02-37
1772632962236230700,4.903230712890625,0.7309465227492153,1.21375532002002,1.471778771957755,0.4143218398094177,0.1020174100995063,0.2721295654773712,walking,2026-03-04_14-02-37
1772632962246179600,4.9131796875,0.7916983669623732,1.2392168012738227,1.7655834391117096,0.3719004690647125,-0.0313234999775886,0.2701406478881836,walking,2026-03-04_14-02-37
1772632962256128500,4.92312841796875,0.7484096987254917,1.269007836164534,1.9430197349011895,0.294562816619873,-0.1504677385091781,0.2487860918045044,walking,2026-03-04_14-02-37
1772632962266077700,4.93307763671875,0.621279767915234,1.220351941806078,1.9795646279662849,0.1910765618085861,-0.2223552167415619,0.2185557186603546,walking,2026-03-04_14-02-37
1772632962276026600,4.943026611328125,0.4765178804330527,1.1805386945948004,1.86895964243412,0.0676917657256126,-0.2323665618896484,0.1829109042882919,walking,2026-03-04_14-02-37
1772632962285975800,4.952975830078125,0.2937835513006895,1.1824907054454088,1.636740786099434,-0.0536675490438938,-0.2004439681768417,0.1493526101112365,walking,2026-03-04_14-02-37
1772632962295924700,4.9629248046875,0.1500758490465581,1.1524731683224438,1.318258773806691,-0.1576067358255386,-0.1570821106433868,0.1064400300383567,walking,2026-03-04_14-02-37
1772632962305873700,4.972873779296875,0.0390903397642076,1.1561430890068412,1.015540147835016,-0.2400873154401779,-0.1240997612476348,0.0671895295381546,walking,2026-03-04_14-02-37
1772632962315822600,4.982822509765625,-0.0526162493567913,1.1509776690676807,0.7420102069467306,-0.3015443086624145,-0.1150040030479431,0.024292130023241,walking,2026-03-04_14-02-37
1772632962325771500,4.992771484375,-0.1503689867742359,1.137021332168579,0.4977279878526925,-0.3455888032913208,-0.1372780054807663,-0.0297863446176052,walking,2026-03-04_14-02-37
1772632962335720400,5.002720458984375,-0.2917222713893279,1.1197855352073909,0.2768207991272211,-0.363361656665802,-0.1566173434257507,-0.0867367088794708,walking,2026-03-04_14-02-37
1772632962345669600,5.012669677734375,-0.3667996511401608,1.1275115994147955,-0.010967968738079,-0.3627527952194214,-0.1712419092655182,-0.1248942986130714,walking,2026-03-04_14-02-37
1772632962355618800,5.022618896484375,-0.3483830468965694,1.1923350769810377,-0.2791787604302168,-0.344514936208725,-0.1684482544660568,-0.1382154375314712,walking,2026-03-04_14-02-37
1772632962365567700,5.032567626953125,-0.2471502853436395,1.2905821007214486,-0.5077051919877529,-0.2975824177265167,-0.1243810877203941,-0.1116254329681396,walking,2026-03-04_14-02-37
1772632962375516700,5.0425166015625,-0.1265985638799145,1.3587474360615015,-0.7473959916383027,-0.2258251458406448,-0.020398499444127,-0.0495676472783088,walking,2026-03-04_14-02-37
1772632962385465600,5.052465576171875,-0.0100240389514714,1.3909014006912708,-0.8526052556067705,-0.150860458612442,0.1072068139910698,0.0387002304196357,walking,2026-03-04_14-02-37
1772632962395414500,5.06241455078125,0.0415621367052197,1.3400060568429528,-0.6947101111114025,-0.1034673824906349,0.2034249603748321,0.1235807612538337,walking,2026-03-04_14-02-37
1772632962405364700,5.07236474609375,0.0734786393173038,1.1402929011851548,-0.2661094354987144,-0.0840482711791992,0.2404892593622207,0.1871917694807052,walking,2026-03-04_14-02-37
1772632962415313700,5.082313720703125,0.1157152046853676,0.7854347765229642,0.3032300826251506,-0.0913208276033401,0.2243515700101852,0.2262686043977737,walking,2026-03-04_14-02-37
1772632962425262600,5.0922626953125,0.1218275500858202,0.4555689081676304,0.8690314897507428,-0.1133639886975288,0.1694293916225433,0.2411412000656128,walking,2026-03-04_14-02-37
1772632962435211800,5.102211669921875,0.0809444451533257,0.1604515509799122,1.2674480395019054,-0.1462681591510772,0.1135408207774162,0.2354889065027237,walking,2026-03-04_14-02-37
1772632962445160700,5.11216064453125,0.0253386951243504,-0.1154940727479755,1.497047653248906,-0.1785052716732025,0.0564591847360134,0.2035469114780426,walking,2026-03-04_14-02-37
1772632962455109600,5.122109619140625,-0.0430950453609228,-0.3385670612052083,1.6260387748211622,-0.2135519385337829,-0.021138671785593,0.1417975276708603,walking,2026-03-04_14-02-37
1772632962465058600,5.13205859375,-0.0539640107039362,-0.4939676124058663,1.6485592341870068,-0.2413870692253112,-0.0936916172504425,0.0731177851557731,walking,2026-03-04_14-02-37
1772632962475007500,5.142007568359375,0.0286149037834256,-0.5865893436104059,1.552932622078061,-0.2561026215553283,-0.160017117857933,0.0114283254370093,walking,2026-03-04_14-02-37
1772632962484956700,5.151956787109375,0.1293888156529516,-0.5400362667500972,1.3441267900347709,-0.2586705982685089,-0.1994710862636566,-0.0255287028849124,walking,2026-03-04_14-02-37
1772632962494905600,5.161905517578125,0.2307902483036741,-0.4139733075842261,1.0499205563426015,-0.2593294382095337,-0.2073473781347274,-0.0499357767403125,walking,2026-03-04_14-02-37
1772632962504854800,5.171854736328125,0.2932134232625365,-0.3093757457733154,0.7540759077936411,-0.2706070244312286,-0.1966431736946106,-0.0685823708772659,walking,2026-03-04_14-02-37
1772632962514803700,5.1818037109375,0.2688603416420519,-0.2614743230439722,0.5286684850394725,-0.2870805263519287,-0.1685260534286499,-0.0980158895254135,walking,2026-03-04_14-02-37
1772632962524752600,5.191752685546875,0.2091074088057503,-0.2452088324196636,0.295532513859868,-0.300964742898941,-0.1191299185156822,-0.1256261020898819,walking,2026-03-04_14-02-37
1772632962534701600,5.20170166015625,0.170517273648642,-0.201055071786046,0.0626543168336153,-0.3051597476005554,-0.0548686347901821,-0.1486520618200302,walking,2026-03-04_14-02-37
1772632962544650500,5.211650390625,0.114303072865121,-0.1551408773511648,-0.1517471432596445,-0.2870004177093506,0.0047009363770484,-0.1692932844161987,walking,2026-03-04_14-02-37
1772632962554599400,5.221599365234375,0.1018474959177896,-0.130115741688013,-0.3745943601369857,-0.2443075478076934,0.0782662332057952,-0.1796236783266067,walking,2026-03-04_14-02-37
1772632962564548600,5.231548583984375,0.1269421531531959,-0.1152729773432016,-0.5873492220669985,-0.1780264377593994,0.1586258262395858,-0.1764010936021804,walking,2026-03-04_14-02-37
1772632962574497800,5.241497802734375,0.1510239435516297,-0.1060806399755179,-0.6582879676431417,-0.1051226630806922,0.2262980788946151,-0.1671316921710968,walking,2026-03-04_14-02-37
1772632962584446700,5.25144677734375,0.169311916446872,-0.1592968279868364,-0.5221265160501003,-0.0436571314930915,0.2530705630779266,-0.1633458435535431,walking,2026-03-04_14-02-37
1772632962594396700,5.261396728515625,0.1848821548160165,-0.2955632012590766,-0.2358703645795583,-0.0046402206644415,0.223469004034996,-0.1662859767675399,walking,2026-03-04_14-02-37
1772632962604345600,5.271345703125,0.1860722779160365,-0.4752532673247158,0.1295271281450986,0.0115186320617794,0.1595793813467025,-0.1853906512260437,walking,2026-03-04_14-02-37
1772632962614294500,5.28129443359375,0.1391327224887907,-0.6439062449388205,0.4359399324595928,0.0090600019320845,0.0885608792304992,-0.2073260396718979,walking,2026-03-04_14-02-37
1772632962624243700,5.29124365234375,0.1058377711303532,-0.8033363439165055,0.5576110864073037,0.0007819295860826,0.0298305675387382,-0.2270908951759338,walking,2026-03-04_14-02-37
1772632962634192600,5.301192626953125,0.1093270745508372,-0.8796513757035136,0.5165303034782409,-0.0094707086682319,-0.0147946905344724,-0.2315048277378082,walking,2026-03-04_14-02-37
1772632962644141600,5.3111416015625,0.094472254442051,-0.9288638810314236,0.39239714333117,-0.0218174327164888,-0.0484373867511749,-0.2362329959869384,walking,2026-03-04_14-02-37
1772632962658443800,5.32544384765625,0.0280053205177187,-1.021672951501608,0.2614262461185455,-0.0288484431803226,-0.0724982544779777,-0.2506295144557953,walking,2026-03-04_14-02-37
1772632962668392700,5.335392822265625,-0.0126101829871535,-1.106725124234706,0.1389367615252733,-0.0195056814700365,-0.0872916877269744,-0.2663708925247192,walking,2026-03-04_14-02-37
1772632962678341600,5.345341552734375,-0.0579619212336838,-1.2116729607880117,-0.1128361055850982,0.0007292823866009,-0.1182996705174446,-0.2789977490901947,walking,2026-03-04_14-02-37
1772632962688290600,5.35529052734375,-0.0912768194016069,-1.2314461672723294,-0.3621627485871315,0.0267087779939174,-0.1483719050884246,-0.2909045219421386,walking,2026-03-04_14-02-37
1772632962698239500,5.365239501953125,-0.1205335282199084,-1.2379084951542316,-0.5480570761203766,0.059182833880186,-0.151731476187706,-0.3062911927700043,walking,2026-03-04_14-02-37
1772632962708188400,5.3751884765625,-0.1088859431872144,-1.2176551039375365,-0.7370178054869174,0.0872410088777542,-0.1318000853061676,-0.3127563595771789,walking,2026-03-04_14-02-37
1772632962718137900,5.385137939453125,-0.0535426800193265,-1.164613541840762,-0.8627513865679503,0.1129945740103721,-0.1065967381000518,-0.3099925220012665,walking,2026-03-04_14-02-37
1772632962728086800,5.395086669921875,0.055979953636229,-1.0957358204476535,-0.8490051852881908,0.1311572045087814,-0.0894888266921043,-0.2885529398918152,walking,2026-03-04_14-02-37
1772632962738035700,5.40503564453125,0.2523513245854527,-1.0343488932013511,-0.7687275334805249,0.1566074341535568,-0.0837012454867363,-0.254010945558548,walking,2026-03-04_14-02-37
1772632962747984600,5.414984619140625,0.4598695279709994,-0.978860376343876,-0.6855301948338747,0.1836864501237869,-0.0911029651761055,-0.2179653346538543,walking,2026-03-04_14-02-37
1772632962757933600,5.42493359375,0.6580791471980512,-0.9505382449619472,-0.6075824472784995,0.2077577114105224,-0.1198014542460441,-0.1849826127290725,walking,2026-03-04_14-02-37
1772632962767882500,5.434882568359375,0.8506527332995086,-0.9633999184921384,-0.5168506214737892,0.2126732021570205,-0.1843644231557846,-0.1620877683162689,walking,2026-03-04_14-02-37
1772632962777831700,5.444831787109375,0.944079789537564,-1.0278874421022832,-0.427865931597352,0.1908110380172729,-0.2577430307865143,-0.1692862957715988,walking,2026-03-04_14-02-37
1772632962787781600,5.45478173828125,0.8802683385580777,-1.0966140645869076,-0.3794704417407512,0.1586901992559433,-0.3143496513366699,-0.1878656446933746,walking,2026-03-04_14-02-37
1772632962797730600,5.46473046875,0.7735311343699693,-1.0802335692808032,-0.4904384153664112,0.1384685486555099,-0.3129927814006805,-0.1968652755022049,walking,2026-03-04_14-02-37
1772632962807679700,5.4746796875,0.7187996464248746,-0.9578210954464972,-0.8078653656482696,0.1313690096139907,-0.2574044167995453,-0.1895644217729568,walking,2026-03-04_14-02-37
1772632962817628700,5.484628662109375,0.6582270312361419,-0.7442587165258825,-1.2210282336324452,0.125765711069107,-0.1842101067304611,-0.1777945756912231,walking,2026-03-04_14-02-37
1772632962827577600,5.49457763671875,0.609814151853323,-0.5840963577508926,-1.4701502939730882,0.1120053008198738,-0.1353959143161773,-0.1654041409492492,walking,2026-03-04_14-02-37
1772632962837526500,5.504526611328125,0.5440516398712992,-0.4470104847893119,-1.5252099178940055,0.0975967943668365,-0.1286176443099975,-0.1579832434654235,walking,2026-03-04_14-02-37
1772632962847475500,5.514475341796875,0.4562262760978192,-0.2828273460656404,-1.5019529609471558,0.0774472802877426,-0.1365446597337722,-0.1642767190933227,walking,2026-03-04_14-02-37
1772632962857424600,5.524424560546875,0.3533390618687495,-0.1339401222817599,-1.497062266296148,0.0545992217957973,-0.1497086584568023,-0.1808831244707107,walking,2026-03-04_14-02-37
1772632962867373800,5.534373779296875,0.2159704995082691,0.0118367143966257,-1.5033493837416172,0.0344747342169284,-0.1666564792394638,-0.2071463018655777,walking,2026-03-04_14-02-37
1772632962877322800,5.54432275390625,0.06878956818562,0.2442721360914409,-1.5231874721556902,0.0239872075617313,-0.1698171198368072,-0.2397394031286239,walking,2026-03-04_14-02-37
1772632962887271700,5.554271728515625,-0.0854334636682644,0.531411061745882,-1.5743810682982204,0.039029274135828,-0.1540568619966507,-0.2628458738327026,walking,2026-03-04_14-02-37
1772632962897220600,5.564220703125,-0.1462340058613568,0.87106971758008,-1.644959163868427,0.0785868018865585,-0.1017262786626815,-0.2716862559318542,walking,2026-03-04_14-02-37
1772632962907169500,5.57416943359375,-0.1293049002291634,1.261239101859182,-1.724992485526204,0.1507818549871444,0.0006977731827646,-0.2488523423671722,walking,2026-03-04_14-02-37
1772632962917118000,5.584117919921875,-0.0373781655514612,1.6412576790019868,-1.7236948469310998,0.2402523458003997,0.1165612563490867,-0.1959422677755355,walking,2026-03-04_14-02-37
1772632962927067100,5.594067138671875,0.0580270954243838,1.9791957946538925,-1.5130249745815991,0.3385581076145172,0.2178777009248733,-0.1232379972934722,walking,2026-03-04_14-02-37
1772632962937016000,5.60401611328125,0.1852302010687068,2.188013463265449,-1.1722785235106945,0.4372058510780334,0.2884834408760071,-0.0377129800617694,walking,2026-03-04_14-02-37
1772632962946965000,5.613965087890625,0.3007345029497519,2.289822855662554,-0.6999947735160589,0.5207376480102539,0.323207139968872,0.0507703609764575,walking,2026-03-04_14-02-37
1772632962956914000,5.623913818359375,0.3748867306796833,2.317642005958408,-0.1103349364191293,0.5661448240280151,0.312639445066452,0.1200676783919334,walking,2026-03-04_14-02-37
1772632962966862800,5.63386279296875,0.369976746806316,2.17707749710083,0.5481459234476089,0.5707520246505737,0.2557837069034576,0.1505287289619445,walking,2026-03-04_14-02-37
1772632962976813000,5.64381298828125,0.2878151444155722,1.8929269396074115,1.1523843209952116,0.5443227887153625,0.1816460937261581,0.1469270586967468,walking,2026-03-04_14-02-37
1772632962986762000,5.653761962890625,0.1596560166880488,1.5993755165621637,1.5971581327736375,0.4674934148788452,0.0756426006555557,0.1142011433839798,walking,2026-03-04_14-02-37
1772632962996711000,5.6637109375,-0.0332960108043625,1.3671291876986622,1.9566426020622247,0.3474061489105224,-0.0360367894172668,0.0539623014628887,walking,2026-03-04_14-02-37
1772632963007281200,5.67428125,-0.5781827497929334,0.8881298657134175,2.149816565209627,0.1959474235773086,-0.0994763597846031,-0.0394974499940872,walking,2026-03-04_14-02-37
1772632963017230000,5.68422998046875,-0.8528377491883933,0.8320566808357834,1.974652306005359,0.0418702289462089,-0.0971612781286239,-0.1453538388013839,walking,2026-03-04_14-02-37
1772632963027179000,5.694178955078125,-0.984304978550598,0.8075242971256374,1.7172300348311662,-0.1086252033710479,-0.0555538460612297,-0.2508703470230102,walking,2026-03-04_14-02-37
1772632963037128000,5.7041279296875,-0.9920230786472558,0.8703481253072619,1.3344921157270668,-0.2318619191646576,0.0098693696781992,-0.3326690793037414,walking,2026-03-04_14-02-37
1772632963047076900,5.714076904296875,-0.8366364098414778,1.0518547392755746,0.9215525351047515,-0.3096215724945068,0.0834242403507232,-0.3742688298225403,walking,2026-03-04_14-02-37
1772632963057025800,5.72402587890625,-0.5304710774820298,1.2298618206903338,0.6226642810761929,-0.3396686911582947,0.1118822395801544,-0.3602406084537506,walking,2026-03-04_14-02-37
1772632963066975200,5.733975341796875,-0.1436785857575014,1.3007780621737242,0.3943634749680757,-0.339819073677063,0.0787731409072876,-0.3052026331424713,walking,2026-03-04_14-02-37
1772632963076924200,5.743924072265625,0.0823165737567469,1.3017790559098124,0.2084855140477418,-0.3128420412540436,0.0243037734180688,-0.2208549678325653,walking,2026-03-04_14-02-37
1772632963086873000,5.753873046875,0.1101890982076525,1.253604807588458,0.0714852735430002,-0.2794332802295685,-0.0317504815757274,-0.137834295630455,walking,2026-03-04_14-02-37
1772632963096822000,5.763822021484375,0.0469353907087817,1.090324170662463,-0.0267009599208831,-0.2503680884838104,-0.0728348046541214,-0.0746753066778183,walking,2026-03-04_14-02-37
1772632963106771000,5.77377099609375,-0.1263574851330369,0.8681085296869278,-0.1027700541228055,-0.2337406277656555,-0.0688829571008682,-0.0366393625736236,walking,2026-03-04_14-02-37
1772632963116719900,5.783719970703125,-0.2797918142946436,0.6602483079306781,-0.1711374879062175,-0.2209944725036621,-0.0241351891309022,-0.0161170419305562,walking,2026-03-04_14-02-37
1772632963126669000,5.7936689453125,-0.2890319728594273,0.481141594710946,-0.1577835008144378,-0.2141991406679153,0.0415878966450691,0.0019059004262089,walking,2026-03-04_14-02-37
1772632963136618000,5.803617919921875,-0.1990813240276649,0.315394859932363,-0.0951870516479015,-0.1925460398197174,0.0937938392162323,0.0257244147360324,walking,2026-03-04_14-02-37
1772632963146567200,5.813567138671875,-0.0463560564508661,0.1789735883593559,0.0503694202780723,-0.159168854355812,0.1047770380973815,0.051174409687519,walking,2026-03-04_14-02-37
1772632963156516000,5.82351611328125,0.1107699668355286,0.0771650727450847,0.2748106283485889,-0.1240468248724937,0.0603709630668163,0.0805432200431823,walking,2026-03-04_14-02-37
1772632963166466000,5.833466064453125,0.235468213519454,-0.0326315190136432,0.4964771110087633,-0.0969717502593994,-0.0131812905892729,0.1072048246860504,walking,2026-03-04_14-02-37
1772632963176415000,5.8434150390625,0.2442113092822954,-0.13020064349249,0.6579805091291666,-0.0797147303819656,-0.1025050431489944,0.1258086115121841,walking,2026-03-04_14-02-37
1772632963186364000,5.853364013671875,0.2444893590386956,-0.1828193040020763,0.6983803240567446,-0.0750932171940803,-0.182157501578331,0.1372530460357666,walking,2026-03-04_14-02-37
1772632963196312800,5.863312744140625,0.2002338550636544,-0.2167947849705815,0.6481769079953432,-0.0865671783685684,-0.2277678549289703,0.1417130529880523,walking,2026-03-04_14-02-37
1772632963206262000,5.873261962890625,0.0938425782363861,-0.2514350134581327,0.5410574264913797,-0.1164056360721588,-0.2339722514152526,0.1413196623325348,walking,2026-03-04_14-02-37
1772632963216211200,5.883211181640625,-0.0206138950921595,-0.2410511282183229,0.3431657871723175,-0.1556670218706131,-0.2062796354293823,0.1387712806463241,walking,2026-03-04_14-02-37
1772632963226160000,5.89316015625,-0.1200566679557785,-0.1826356179982423,0.1397100839853286,-0.1903740465641021,-0.1645613759756088,0.1426541954278946,walking,2026-03-04_14-02-37
1772632963236109000,5.903109130859375,-0.1413277483150362,-0.1091395891547203,-0.1150403376311063,-0.2085706293582916,-0.1237918436527252,0.1607495695352554,walking,2026-03-04_14-02-37
1772632963246058000,5.91305810546875,-0.1549103930635377,-0.0477361491650342,-0.3671849606633186,-0.2046304494142532,-0.0739125162363052,0.1837510466575622,walking,2026-03-04_14-02-37
1772632963256007000,5.9230068359375,-0.180071904990077,-0.0033494565583765,-0.5421890608698129,-0.1750083714723587,-0.0207094866782426,0.21404530107975,walking,2026-03-04_14-02-37
1772632963265955800,5.932955810546875,-0.1981535051256418,0.0179136962227523,-0.5857166524291039,-0.124606929719448,0.0225518885999918,0.2409174144268036,walking,2026-03-04_14-02-37
1772632963275905000,5.942905029296875,-0.1681819625688716,0.0300531929582357,-0.5261638087421655,-0.0623912289738655,0.0502186715602874,0.2661974728107452,walking,2026-03-04_14-02-37
1772632963285854200,5.952854248046875,-0.1658682057337835,0.0258987036272883,-0.3470411673009395,-0.0082362005487084,0.0706167817115783,0.291854053735733,walking,2026-03-04_14-02-37
1772632963295803100,5.96280322265625,-0.1845044440774247,0.0070320905938744,0.0108323596596717,0.019752025604248,0.0823224410414695,0.3176518380641937,walking,2026-03-04_14-02-37
1772632963305752000,5.972751953125,-0.1777836113898083,-0.061444356521964,0.3829319803714752,0.0203152280300855,0.0729491785168647,0.3301450908184051,walking,2026-03-04_14-02-37
1772632963315701000,5.982700927734375,-0.0947386137606576,-0.1391933666348457,0.6955021382719278,0.0047288117930293,0.0845792070031166,0.3438095152378082,walking,2026-03-04_14-02-37
1772632963325650000,5.99264990234375,-0.0393274364557117,-0.2008072345048189,0.9269014949172736,-0.0217320062220096,0.0989882797002792,0.3616206347942352,walking,2026-03-04_14-02-37
1772632963335598800,6.002598876953125,0.0313995295332744,-0.2358006603442132,1.106280741468072,-0.0541980676352977,0.0822132974863052,0.3838106393814087,walking,2026-03-04_14-02-37
1772632963345549000,6.012549072265625,0.1054964103467762,-0.2933271127700805,1.1954209141671657,-0.0772714167833328,0.0326193198561668,0.3972751796245575,walking,2026-03-04_14-02-37
1772632963355498000,6.022498046875,0.1636261624280363,-0.3343694633848965,1.09089787889719,-0.0863349512219429,-0.0213648173958063,0.4044185876846313,walking,2026-03-04_14-02-37
1772632963365447200,6.032447265625,0.1174267943762242,-0.3796424373067915,0.8530524148523807,-0.0810495316982269,-0.022867415100336,0.4021795690059662,walking,2026-03-04_14-02-37
1772632963375396000,6.04239599609375,0.0438115230672061,-0.3712437345348298,0.656122314041853,-0.0726645663380622,0.0024027870967984,0.3951443135738373,walking,2026-03-04_14-02-37
1772632963385345000,6.052344970703125,0.0778761070912703,-0.4081619909569621,0.5660100814402103,-0.0724524408578872,0.0173197854310274,0.388534814119339,walking,2026-03-04_14-02-37
1772632963395294000,6.0622939453125,0.1575280282160267,-0.3888277604117989,0.4887088150948285,-0.0723725482821464,0.0264578908681869,0.3888181746006012,walking,2026-03-04_14-02-37
1772632963405243000,6.072242919921875,0.1980292576914653,-0.3163179661266505,0.4023883759915828,-0.0711654052138328,0.0298045109957456,0.3931312561035156,walking,2026-03-04_14-02-37
1772632963415192000,6.082192138671875,0.1819337533392012,-0.2527108786128461,0.3047095075279474,-0.0725915282964706,0.0252568982541561,0.4018640518188476,walking,2026-03-04_14-02-37
1772632963425141000,6.09214111328125,0.1477257422564551,-0.2391308276802301,0.1687017851918935,-0.0803894996643066,0.0025244066491723,0.4043555557727813,walking,2026-03-04_14-02-37
1772632963435090200,6.102090087890625,0.0458738258918747,-0.2128402021259069,-0.0472977577477693,-0.0859712213277816,-0.0217945147305727,0.3960416913032532,walking,2026-03-04_14-02-37
1772632963445039000,6.1120390625,-0.0829733206324279,-0.1872337594434618,-0.3291027750283479,-0.0927174836397171,-0.0146774258464574,0.3876932859420776,walking,2026-03-04_14-02-37
1772632963454988000,6.121988037109375,-0.1956072912415489,-0.1445687760628759,-0.6387900709688663,-0.0911291763186454,0.031407244503498,0.3865275979042053,walking,2026-03-04_14-02-37
1772632963464937000,6.13193701171875,-0.2813595385354012,-0.0877867122635245,-0.9271908332526684,-0.0731559991836547,0.0988531187176704,0.398992657661438,walking,2026-03-04_14-02-37
1772632963474886000,6.141885986328125,-0.2624438987284898,-0.0707327016100287,-1.1557593503862618,-0.0371199697256088,0.1601249873638153,0.4352121949195862,walking,2026-03-04_14-02-37
1772632963484834800,6.151834716796875,-0.2007431928252801,-0.1504449746198952,-1.277549746799469,0.0278087072074413,0.2288413494825363,0.4835429787635803,walking,2026-03-04_14-02-37
1772632963494784000,6.161783935546875,-0.2683729965165257,-0.2681802504234016,-1.313333592364192,0.1031085178256034,0.2803546190261841,0.5334843993186951,walking,2026-03-04_14-02-37
1772632963504734000,6.17173388671875,-0.3469135588658973,-0.4931825995080173,-1.1832780564308163,0.1779533326625824,0.3090972006320953,0.5651026368141174,walking,2026-03-04_14-02-37
1772632963514683100,6.18168310546875,-0.4261712930412962,-0.7499975524388254,-0.9334165758997202,0.2272713482379913,0.2936045527458191,0.5815987586975098,walking,2026-03-04_14-02-37
1772632963524632000,6.191632080078125,-0.4721196820067241,-0.9411012851834296,-0.6574152764618396,0.2556803822517395,0.2555824816226959,0.5925350189208984,walking,2026-03-04_14-02-37
1772632963534581000,6.2015810546875,-0.4778866845682263,-1.103114824783057,-0.472404161503911,0.2668938934803009,0.2114581763744354,0.6038503050804138,walking,2026-03-04_14-02-37
1772632963544530000,6.211530029296875,-0.5255347901236266,-1.2489588814787569,-0.3789578160434961,0.265196144580841,0.1702866554260254,0.6111217737197876,walking,2026-03-04_14-02-37
1772632963554479000,6.22147900390625,-0.6788325968913733,-1.3649676257506012,-0.3585702770531177,0.253132551908493,0.1231971681118011,0.5977016091346741,walking,2026-03-04_14-02-37
1772632963564428000,6.231427978515625,-0.8145181746009736,-1.511538535416126,-0.4203185849577188,0.2377309203147888,0.0788902342319488,0.5604645013809204,walking,2026-03-04_14-02-37
1772632963574377000,6.241376953125,-0.91921744322069,-1.569566069231927,-0.5070470203399657,0.2193433940410614,0.0425825603306293,0.5116234421730042,walking,2026-03-04_14-02-37
1772632963584326100,6.251326171875,-1.019817825154215,-1.5985159771233797,-0.6052420216321945,0.190384954214096,0.0065850722603499,0.4343726933002472,walking,2026-03-04_14-02-37
1772632963594275000,6.261275146484375,-1.141905889339745,-1.5244384951300918,-0.6806354085296392,0.1549793034791946,-0.0301167480647563,0.3368219137191772,walking,2026-03-04_14-02-37
1772632963604224000,6.27122412109375,-1.250659255655855,-1.42839877217561,-0.7565636329561471,0.0948168560862541,-0.0809168666601181,0.2149164974689483,walking,2026-03-04_14-02-37
1772632963614173000,6.2811728515625,-1.3047120406217871,-1.1683097660101949,-0.96305183570683,0.0462123043835163,-0.1200988888740539,0.0848282724618911,walking,2026-03-04_14-02-37
1772632963624121900,6.291121826171875,-1.2921039034612476,-0.6688027857862413,-1.2932044120490551,0.0209598988294601,-0.1546500027179718,-0.0218691732734441,walking,2026-03-04_14-02-37
1772632963634071000,6.301071044921875,-1.210031769452244,-0.102818715570122,-1.596922570452094,0.0134258167818188,-0.1572902649641037,-0.100457988679409,walking,2026-03-04_14-02-37
1772632963644020000,6.31102001953125,-1.0920829970285295,0.3339366249255835,-1.8299749550014728,0.0229370947927236,-0.1047048345208168,-0.1522276848554611,walking,2026-03-04_14-02-37
1772632963653969200,6.32096923828125,-0.8830994703307747,0.7504635625153779,-1.9370476747542615,0.0487750843167305,-0.0303890593349933,-0.1722927391529083,walking,2026-03-04_14-02-37
1772632963663918000,6.33091796875,-0.5942142124656588,1.124506280118972,-1.9586060110896824,0.094073086977005,0.0596941076219081,-0.1488339900970459,walking,2026-03-04_14-02-37
1772632963673868000,6.340867919921875,-0.2734564737932756,1.4044370279602705,-1.8406968400239945,0.1624547988176345,0.1698957085609436,-0.0747078210115432,walking,2026-03-04_14-02-37
1772632963683817000,6.35081689453125,0.0468298114424571,1.604258466298133,-1.566407020679116,0.2334177494049072,0.2644535005092621,0.050711378455162,walking,2026-03-04_14-02-37
1772632963693766100,6.36076611328125,0.2694756239961832,1.6176282354809344,-1.0898434014081957,0.3002183735370636,0.3094766438007355,0.1954651027917862,walking,2026-03-04_14-02-37
1772632963703715000,6.370715087890625,0.3211371299114078,1.3518041927948594,-0.507285505270958,0.338200032711029,0.2901895344257355,0.3078467547893524,walking,2026-03-04_14-02-37
1772632963713664000,6.3806640625,0.1385305918771773,0.9113952982276676,0.0130611416250467,0.3490098118782043,0.2472487390041351,0.3575903475284576,walking,2026-03-04_14-02-37
1772632963723613000,6.390613037109375,-0.1594170933656394,0.4942421915635466,0.3228969061255455,0.3484607636928558,0.2329685240983963,0.3502484858036041,walking,2026-03-04_14-02-37
1772632963733562000,6.40056201171875,-0.432261499675177,0.243441092094779,0.5001227740347385,0.3493830263614654,0.2675121128559112,0.2983788847923279,walking,2026-03-04_14-02-37
1772632963743511000,6.410510986328125,-0.5592219556700438,0.1281646076202392,0.6669687022268772,0.3654990196228027,0.3345851600170135,0.2225716561079025,walking,2026-03-04_14-02-37
1772632963753460000,6.4204599609375,-0.4749967352803796,0.1653217873647809,0.9186229113936424,0.3801916837692261,0.3816831707954407,0.1333059519529342,walking,2026-03-04_14-02-37
1772632963763409000,6.430408935546875,-0.2142917891737073,0.3025149200931191,1.2633096245229245,0.3947812616825104,0.3671922981739044,0.0487254038453102,walking,2026-03-04_14-02-37
1772632963773358000,6.440358154296875,0.1687311939494684,0.4600795174598693,1.6732991231679917,0.3886008560657501,0.2790113091468811,-0.0155579801648855,walking,2026-03-04_14-02-37
1772632963783307000,6.45030712890625,0.5474308339808136,0.6567927606493235,2.032835030382872,0.3544401824474334,0.1442233771085739,-0.0520527511835098,walking,2026-03-04_14-02-37
1772632963793256000,6.460255859375,0.8316668778005987,0.870959535203874,2.245315167024732,0.2927581667900085,-0.0080274119973182,-0.065292127430439,walking,2026-03-04_14-02-37
1772632963803205000,6.470205078125,0.9636201371140778,1.1161048008680343,2.34472305123806,0.2039260268211364,-0.152872085571289,-0.0689678341150283,walking,2026-03-04_14-02-37
1772632963813154000,6.480154052734375,1.033247507830709,1.2983607718989252,2.2796628423064944,0.0980288833379745,-0.2725726366043091,-0.0585532784461975,walking,2026-03-04_14-02-37
1772632963823103000,6.49010302734375,1.066208843320608,1.4468842769369483,1.9865397276759147,-0.0050891675055027,-0.3564314842224121,-0.0374514199793338,walking,2026-03-04_14-02-37
1772632963833053200,6.50005322265625,0.9957049820303916,1.6382649269267917,1.5868880831718444,-0.1053529158234596,-0.3894437551498413,-0.0092376256361603,walking,2026-03-04_14-02-37
1772632963843002000,6.510002197265625,0.9328285468786954,1.741307660511136,1.1446224548220634,-0.1881415247917175,-0.3798911869525909,0.0386331155896186,walking,2026-03-04_14-02-37
1772632963852951000,6.519950927734375,0.8851016039334237,1.7436434099823237,0.6846522429555654,-0.2450788468122482,-0.3434061706066131,0.0918159037828445,walking,2026-03-04_14-02-37
1772632963862900000,6.52989990234375,0.7760580955643206,1.706599919745326,0.2862918073058128,-0.2783291041851043,-0.3018965721130371,0.1422386467456817,walking,2026-03-04_14-02-37
1772632963872849000,6.539848876953125,0.6115855089074,1.583291227723658,0.015457096850872,-0.3072752654552459,-0.2905634939670563,0.1698766648769378,walking,2026-03-04_14-02-37
1772632963882798000,6.549798095703125,0.3647253290841356,1.3809171822935342,-0.1643430054605007,-0.3378722071647644,-0.3123708665370941,0.1704692840576172,walking,2026-03-04_14-02-37
1772632963892747000,6.5597470703125,0.1124148114331066,1.1707613969460129,-0.4673287579357624,-0.3554368317127228,-0.3452353477478027,0.1317458599805832,walking,2026-03-04_14-02-37
1772632963902696200,6.5696962890625,-0.1703274501649662,1.0689850300356745,-0.8957266044527292,-0.3511084914207458,-0.3378249704837799,0.0700723081827163,walking,2026-03-04_14-02-37
1772632963912645000,6.57964501953125,-0.3953660761393606,1.0605974331796169,-1.3032704635113477,-0.3274356424808502,-0.2656042873859405,-0.0021366360597312,walking,2026-03-04_14-02-37
1772632963922594300,6.58959423828125,-0.4452655408181249,1.0949790107309818,-1.6309598646104335,-0.2877944409847259,-0.1279461532831192,-0.0562518835067749,walking,2026-03-04_14-02-37
1772632963932543200,6.599543212890625,-0.375737100431323,1.1591717891782525,-1.7721084569662808,-0.2339069545269012,0.0692598521709442,-0.07809779047966,walking,2026-03-04_14-02-37
1772632963942492400,6.609492431640625,-0.2048204522015526,1.2158891171783208,-1.6739420972466468,-0.1715290397405624,0.2907670438289642,-0.0595330335199832,walking,2026-03-04_14-02-37
1772632963952441300,6.61944140625,0.0553099454201757,1.2080712830342353,-1.272155778801441,-0.1167337074875831,0.4592449963092804,-0.0056783268228173,walking,2026-03-04_14-02-37
1772632963962390500,6.629390625,0.3465285050710663,1.093833640088141,-0.5883616139799356,-0.0774028897285461,0.532213032245636,0.0678567141294479,walking,2026-03-04_14-02-37
1772632963972339500,6.63933935546875,0.5747224898038432,0.8733388315558434,0.1671411117464304,-0.0513007156550884,0.5316609740257263,0.1486567705869674,walking,2026-03-04_14-02-37
