time,seconds_elapsed,acc_x,acc_y,acc_z,gyr_x,gyr_y,gyr_z,activity,session
1772632818894194400,0.0601943359375,-0.2241888407446444,-0.0734036743849515,-0.2207534594684839,0.0246680900454521,-0.0259557180106639,-0.0721211209893226,walking,2026-03-04_14-00-18
1772632818904143400,0.070143310546875,-0.2462042001325637,-0.0641107992522418,-0.172969964030385,0.0537437237799167,-0.0432615876197814,-0.0838262736797332,walking,2026-03-04_14-00-18
1772632818914092300,0.08009228515625,-0.2418456395968794,-0.0681641662962734,-0.1059878471255302,0.0686433091759681,-0.0558426268398761,-0.0950216650962829,walking,2026-03-04_14-00-18
1772632818924042500,0.09004248046875,-0.2472919953692704,-0.0843953162595629,0.028126024287939,0.0621136501431465,-0.0468641817569732,-0.1094495803117752,walking,2026-03-04_14-00-18
1772632818933991400,0.099991455078125,-0.2799211032301187,-0.0899954743541777,0.1272276190310716,0.0405002310872077,-0.0370842553675174,-0.1236421018838882,walking,2026-03-04_14-00-18
1772632818943940400,0.1099404296875,-0.261035127909109,-0.0703970399148762,0.2163981868684291,0.0118402540683746,-0.028594447299838,-0.1303142458200454,walking,2026-03-04_14-00-18
1772632818953889300,0.11988916015625,-0.1901020814213901,-0.0358973889417946,0.224427179545164,-0.0153170637786388,-0.0134999155998229,-0.1227641850709915,walking,2026-03-04_14-00-18
1772632818963838500,0.12983837890625,-0.1442247118655592,0.028713468787074,0.1582552099794149,-0.0289865676313638,0.0097117191180586,-0.1115676090121269,walking,2026-03-04_14-00-18
1772632818973787400,0.139787353515625,-0.1230146044459193,0.0951046340614557,0.0710685094356536,-0.0301812607795,0.029642816632986,-0.0997692719101905,walking,2026-03-04_14-00-18
1772632818983737300,0.1497373046875,-0.1250319356177002,0.1016359355263411,-0.013636895686388,-0.0182358548045158,0.0370020233094692,-0.094208188354969,walking,2026-03-04_14-00-18
1772632818993686500,0.1596865234375,-0.1400785519715398,0.1053495492219924,-0.0769563984304666,0.0003348998725414,0.0350017249584198,-0.0927218794822692,walking,2026-03-04_14-00-18
1772632819003635500,0.169635498046875,-0.1145833145786076,0.1161962296679615,-0.0804284584552049,0.0133214090019464,0.016088968142867,-0.0861803889274597,walking,2026-03-04_14-00-18
1772632819013584400,0.17958447265625,-0.0969650211058557,0.1214060732707381,-0.0333674320727586,0.0189713053405284,0.0037875603884458,-0.0774851739406585,walking,2026-03-04_14-00-18
1772632819023533300,0.189533203125,-0.1202478431463241,0.1102871517546474,0.0329693726658821,0.0216720178723335,0.0039976839907467,-0.0714445933699607,walking,2026-03-04_14-00-18
1772632819033482200,0.199482177734375,-0.1612183706339448,0.0842759276635944,0.0918628756612539,0.0156972147524356,0.0010567554272711,-0.0694821029901504,walking,2026-03-04_14-00-18
1772632819043432400,0.209432373046875,-0.137076959002763,0.0518916614092886,0.1456207693338394,0.01500347815454,-0.0010494631715118,-0.0646823048591613,walking,2026-03-04_14-00-18
1772632819053381400,0.21938134765625,-0.1128148436013609,0.0101591365732252,0.1672586006462574,0.0123339258134365,-0.0076967133209109,-0.0666162893176078,walking,2026-03-04_14-00-18
1772632819063330300,0.229330322265625,-0.139010119022429,-0.0083453651495277,0.2193365784078836,0.0038684799801558,-0.029758833348751,-0.0738067999482154,walking,2026-03-04_14-00-18
1772632819073279500,0.239279541015625,-0.153581372949481,-0.0163999306589365,0.3071761899024248,-0.0078100143000483,-0.0628273040056228,-0.081003725528717,walking,2026-03-04_14-00-18
1772632819083228400,0.249228515625,-0.1412581171449273,-0.0306461904153227,0.3087029610782861,-0.0193763114511966,-0.0866594687104225,-0.0895110443234443,walking,2026-03-04_14-00-18
1772632819093177300,0.25917724609375,-0.1507381854128092,-0.0231793616659939,0.2499544195115566,-0.0275625996291637,-0.1045662984251976,-0.087912879884243,walking,2026-03-04_14-00-18
1772632819103127600,0.26912744140625,-0.1343780022423714,0.0324741364948451,0.1907201402544975,-0.0323415733873844,-0.1169613599777221,-0.0809108316898346,walking,2026-03-04_14-00-18
1772632819113076500,0.279076416015625,-0.1559454717323184,0.0446656556785106,0.0673953738808631,-0.0258634313941001,-0.1011219397187233,-0.0845601633191108,walking,2026-03-04_14-00-18
1772632819123025400,0.289025390625,-0.1920091571517288,0.0601791588917374,-0.0736801532387733,-0.0079889204353094,-0.0765528529882431,-0.0837133303284645,walking,2026-03-04_14-00-18
1772632819132974300,0.298974365234375,-0.1954602474536746,0.0769343327291309,-0.1935889736890792,0.020813699811697,-0.075270801782608,-0.073238581418991,walking,2026-03-04_14-00-18
1772632819142923300,0.30892333984375,-0.1101427017826586,0.0861938901141285,-0.2113642843544483,0.0499614626169204,-0.078573927283287,-0.0654291287064552,walking,2026-03-04_14-00-18
1772632819152872400,0.31887255859375,-0.0526361231010407,0.0423731608271598,-0.1721025335460901,0.072610855102539,-0.0831151455640792,-0.0617915242910385,walking,2026-03-04_14-00-18
1772632819162821400,0.3288212890625,-0.0502592379018664,0.0163828333936631,-0.0967453870058059,0.0819876715540885,-0.0885254591703414,-0.0523484237492084,walking,2026-03-04_14-00-18
1772632819172771300,0.338771240234375,-0.0663426499575376,0.020846973195672,-0.005578092393279,0.0872391536831855,-0.100950963795185,-0.0490253306925296,walking,2026-03-04_14-00-18
1772632819182720500,0.348720458984375,-0.0418473103221505,-0.0199707748830318,0.0828822813481092,0.0790754184126854,-0.1178628206253051,-0.0504498481750488,walking,2026-03-04_14-00-18
1772632819192669400,0.35866943359375,-0.079042557054758,-0.0659207712836563,0.1623316656380891,0.0707802027463913,-0.1349723041057586,-0.0584020465612411,walking,2026-03-04_14-00-18
1772632819202618400,0.368618408203125,-0.0852258487995713,-0.0979847195424139,0.2107283245384693,0.0606248937547206,-0.1359609961509704,-0.0679369941353797,walking,2026-03-04_14-00-18
1772632819212567300,0.3785673828125,-0.0855714473668485,-0.1072580131918191,0.1985702692329883,0.0465953610837459,-0.1401544064283371,-0.0842781439423561,walking,2026-03-04_14-00-18
1772632819222516200,0.38851611328125,-0.1105714485887437,-0.1113498125500977,0.1800163754105568,0.0376220270991325,-0.1256442666053772,-0.0940150022506713,walking,2026-03-04_14-00-18
1772632819232466400,0.398466552734375,-0.1120754964761436,-0.1220022855982184,0.1117126545131206,0.0251248776912689,-0.0777289420366287,-0.1081872805953025,walking,2026-03-04_14-00-18
1772632819242415400,0.408415283203125,-0.1191392973825335,-0.1127092643350362,0.0771563049167394,0.0001007518731057,-0.0329569391906261,-0.1200263649225235,walking,2026-03-04_14-00-18
1772632819252364300,0.4183642578125,-0.1450901695884764,-0.0827639156654477,0.1441512813031673,-0.0315655656158924,-0.0033276753965765,-0.1266246140003204,walking,2026-03-04_14-00-18
1772632819262313500,0.4283134765625,-0.060498892365396,-0.1336594056442379,0.2401835516035556,-0.067980483174324,0.0136057753115892,-0.1396587938070297,walking,2026-03-04_14-00-18
1772632819272262400,0.438262451171875,-0.0642330373924225,-0.1265941434331238,0.2514239075422287,-0.096578299999237,0.0207563620060682,-0.1494341939687729,walking,2026-03-04_14-00-18
1772632819282211300,0.44821142578125,-0.0486542138580232,-0.0832367938742041,0.2162918038845062,-0.1082805842161178,0.0245923716574907,-0.154415488243103,walking,2026-03-04_14-00-18
1772632819292161500,0.45816162109375,-0.0161116152368485,-0.0658037207752466,0.1416845989286899,-0.1057042405009269,0.0289724711328744,-0.1558602601289749,walking,2026-03-04_14-00-18
1772632819302110500,0.4681103515625,0.0238997848950326,-0.0245513806715607,0.0492208347648382,-0.0900138616561889,0.0291761066764593,-0.1557733714580536,walking,2026-03-04_14-00-18
1772632819312059400,0.478059326171875,0.083066917200014,-0.0085405954606831,-0.0024684359401464,-0.0677530318498611,0.0305116828531026,-0.1492576897144317,walking,2026-03-04_14-00-18
1772632819322008300,0.48800830078125,0.1703638001199811,0.0149272277578711,0.0168307232916355,-0.0466952808201313,0.0257602836936712,-0.1285527199506759,walking,2026-03-04_14-00-18
1772632819331957200,0.497957275390625,0.243326379673928,-0.0035877953588962,0.1030909566402435,-0.0348127894103527,0.0179782602936029,-0.1094706356525421,walking,2026-03-04_14-00-18
1772632819341906400,0.507906494140625,0.2572510793257505,-0.0667594140648841,0.1921481272310018,-0.0360897779464721,0.010854304768145,-0.1025338992476463,walking,2026-03-04_14-00-18
1772632819351856400,0.5178564453125,0.2526635323397815,-0.1495642462626099,0.3293196326494216,-0.0532514527440071,0.0040065185166895,-0.1040068939328193,walking,2026-03-04_14-00-18
1772632819361805300,0.527805419921875,0.208411060572043,-0.2341679445758462,0.4409194744378328,-0.069309115409851,-0.0007801942992955,-0.1122807636857032,walking,2026-03-04_14-00-18
1772632819371754500,0.53775439453125,0.216644562844932,-0.2931874120384454,0.4752051903992891,-0.0814816355705261,-0.0184638500213623,-0.1175074875354766,walking,2026-03-04_14-00-18
1772632819381703400,0.547703369140625,0.2164148457422852,-0.3195226073868572,0.4664075514376163,-0.0894562825560569,-0.0314212851226329,-0.1283298432826995,walking,2026-03-04_14-00-18
1772632819391652400,0.55765234375,0.227213230067119,-0.3703817108780145,0.4060854769438505,-0.0915189012885093,-0.0326676443219184,-0.1423942595720291,walking,2026-03-04_14-00-18
1772632819401601300,0.567601318359375,0.2352181842811405,-0.4065883118994534,0.3601712825089693,-0.1098274961113929,-0.0426191762089729,-0.1557984203100204,walking,2026-03-04_14-00-18
1772632819411551500,0.577551513671875,0.2579230603031814,-0.4252570642732083,0.3593617196917533,-0.1382969617843628,-0.0623675808310508,-0.1636896431446075,walking,2026-03-04_14-00-18
1772632819421500400,0.58750048828125,0.2583595520243048,-0.4496878873050212,0.3400584688067436,-0.1709433197975158,-0.0812764018774032,-0.1750654131174087,walking,2026-03-04_14-00-18
1772632819431449300,0.597449462890625,0.2552905198425054,-0.4767712706722319,0.2192284418582916,-0.1942371875047683,-0.0839446187019348,-0.1814431399106979,walking,2026-03-04_14-00-18
1772632819441398300,0.607398193359375,0.2381103985913097,-0.4675611053869128,0.0049058922201395,-0.205266997218132,-0.0667304918169975,-0.1870550364255905,walking,2026-03-04_14-00-18
1772632819451347500,0.617347412109375,0.189271987272799,-0.4358570764817297,-0.2434942835867404,-0.2092963606119156,-0.0411082245409488,-0.1899477690458297,walking,2026-03-04_14-00-18
1772632819461296400,0.62729638671875,0.1379053726509213,-0.4199146803319454,-0.4189087181597948,-0.2170660942792892,-0.0030794069170951,-0.1892576515674591,walking,2026-03-04_14-00-18
1772632819471246600,0.63724658203125,0.1361913352746516,-0.4032273110337555,-0.4197591975092887,-0.2119890451431274,0.0063188881613314,-0.1847798228263855,walking,2026-03-04_14-00-18
1772632819481195500,0.647195556640625,0.0829440214727073,-0.38745501075387,-0.5569686968505382,-0.1824262142181396,0.0385639630258083,-0.1847483515739441,walking,2026-03-04_14-00-18
1772632819491144400,0.65714453125,0.0197485834997147,-0.3622644553959369,-0.6580535743653774,-0.1379969716072082,0.0612394511699676,-0.1861869990825653,walking,2026-03-04_14-00-18
1772632819501093400,0.66709326171875,0.0280919028226286,-0.3351340180166065,-0.6733300539523362,-0.0916969999670982,0.0696225240826606,-0.1683536022901535,walking,2026-03-04_14-00-18
1772632819511042300,0.677042236328125,0.1587930431831627,-0.3456557042919099,-0.6133242058008909,-0.0302749183028936,0.0885623916983604,-0.1381192803382873,walking,2026-03-04_14-00-18
1772632819520991200,0.6869912109375,0.2396058978460729,-0.3305532660976052,-0.5559013598799705,0.0267755426466465,0.1004798859357833,-0.1081080958247184,walking,2026-03-04_14-00-18
1772632819530941400,0.69694140625,0.2434983752399682,-0.3481130343161523,-0.3494827152341604,0.0618267394602298,0.0710610076785087,-0.0896207019686698,walking,2026-03-04_14-00-18
1772632819540890400,0.706890380859375,0.2063301626447588,-0.4339204093307256,-0.0067886372268199,0.0668781623244285,0.0071644652634859,-0.0897979512810707,walking,2026-03-04_14-00-18
1772632819550839600,0.716839599609375,0.1519724764481186,-0.5704438261039555,0.2926671875566244,0.0558095350861549,-0.0586821921169757,-0.1121027246117591,walking,2026-03-04_14-00-18
1772632819560788500,0.72678857421875,0.0313596724469214,-0.6383927422143518,0.4612205041885375,0.0301677975803613,-0.1064694970846176,-0.1439498662948608,walking,2026-03-04_14-00-18
1772632819570737400,0.7367373046875,-0.0953919265702366,-0.628935908691585,0.4434411018699407,0.0075389184057712,-0.1052050292491912,-0.176179438829422,walking,2026-03-04_14-00-18
1772632819580686300,0.746686279296875,-0.173425379647687,-0.5436282998926937,0.3234878577560186,0.0011593038216233,-0.0645558387041091,-0.1977799832820892,walking,2026-03-04_14-00-18
1772632819590636500,0.756636474609375,-0.1728849891606718,-0.4556999872013926,0.1688397323578596,-0.0020825620740652,-0.0279592145234346,-0.2095892280340194,walking,2026-03-04_14-00-18
1772632819600585500,0.76658544921875,-0.090094696944952,-0.3622835984878241,0.0828846194356679,0.0064747431315481,0.0028983470983803,-0.2064334899187088,walking,2026-03-04_14-00-18
1772632819610534400,0.776534423828125,0.0212820036120712,-0.2730152693644165,0.0806394708573818,0.0201087966561317,0.0156445018947124,-0.1986695826053619,walking,2026-03-04_14-00-18
1772632819620483300,0.7864833984375,0.085845734263584,-0.2139373497128486,0.1572732132047414,0.0264900382608175,-0.0048952419310808,-0.191409021615982,walking,2026-03-04_14-00-18
1772632819630432300,0.796432373046875,0.1044940283711999,-0.1893966365657746,0.2899550059884786,0.0230076871812343,-0.0426386259496212,-0.1940199881792068,walking,2026-03-04_14-00-18
1772632819640381400,0.80638134765625,0.0929592925958335,-0.2318617134600877,0.4016881187677383,0.0090901758521795,-0.0808262303471565,-0.2059886306524276,walking,2026-03-04_14-00-18
1772632819650331400,0.816331298828125,0.0224271550592035,-0.2814211325295269,0.474918190151453,-0.0130356326699256,-0.1023341864347457,-0.2238762974739074,walking,2026-03-04_14-00-18
1772632819660280600,0.826280517578125,-0.0456622655004262,-0.3089478757500648,0.4655173245996236,-0.0389925353229045,-0.1030386760830879,-0.2444181740283966,walking,2026-03-04_14-00-18
1772632819670229500,0.8362294921875,-0.0764274061203002,-0.3141214789956807,0.4397229581296443,-0.0675586685538292,-0.0952510610222816,-0.2651410400867462,walking,2026-03-04_14-00-18
1772632819680178400,0.846178466796875,-0.0515937013760209,-0.3537470946803688,0.4292424806475639,-0.0965038686990737,-0.0835881233215332,-0.2817475795745849,walking,2026-03-04_14-00-18
1772632819690127400,0.85612744140625,0.0262958862513303,-0.3556840540923178,0.3949304612010717,-0.1166371032595634,-0.0749099478125572,-0.2804428935050964,walking,2026-03-04_14-00-18
1772632819700076300,0.866076171875,0.1697876807324588,-0.3265796862915158,0.3397106782823801,-0.1272086501121521,-0.0772966146469116,-0.2632614970207214,walking,2026-03-04_14-00-18
1772632819710026200,0.876026123046875,0.2839944901488721,-0.2977427372552454,0.2672404853552579,-0.1280126571655273,-0.0891335681080818,-0.2390794456005096,walking,2026-03-04_14-00-18
1772632819719975400,0.885975341796875,0.3648387628633529,-0.3114230336919427,0.1928746879398822,-0.1207640469074249,-0.1028244048357009,-0.2195637077093124,walking,2026-03-04_14-00-18
1772632819729924400,0.89592431640625,0.3791768656216561,-0.3540373097985982,0.1033569141000509,-0.1078852638602256,-0.1203519999980926,-0.2089169323444366,walking,2026-03-04_14-00-18
1772632819739873500,0.90587353515625,0.3428886507313698,-0.3863702842570841,0.0038332945525646,-0.0916111692786216,-0.1298361718654632,-0.2001674026250839,walking,2026-03-04_14-00-18
1772632819749822500,0.915822509765625,0.2776314579229801,-0.427351990725845,-0.0694704265892505,-0.069648876786232,-0.1286678314208984,-0.2024260312318802,walking,2026-03-04_14-00-18
1772632819759771400,0.925771484375,0.2145651992876082,-0.439327382940799,-0.127553197723627,-0.0448582954704761,-0.1313379853963852,-0.2062592953443527,walking,2026-03-04_14-00-18
1772632819769721300,0.935721435546875,0.2326869122378528,-0.4550505833819508,-0.1609393344968557,-0.024797236546874,-0.1407597064971923,-0.2025966495275497,walking,2026-03-04_14-00-18
1772632819779670500,0.94567041015625,0.2847057802233845,-0.4583142613530159,-0.1405062027990818,-0.0073753418400883,-0.1460675746202469,-0.189624398946762,walking,2026-03-04_14-00-18
1772632819789619500,0.955619384765625,0.3496314760550856,-0.4240469578310847,-0.104740477412939,0.0065340818837285,-0.1404789388179779,-0.1735175997018814,walking,2026-03-04_14-00-18
1772632819799568400,0.965568359375,0.3593246756169945,-0.4177940349161624,-0.0671153878957033,0.0162314809858798,-0.1344143450260162,-0.1622543931007385,walking,2026-03-04_14-00-18
1772632819809517600,0.975517578125,0.3597727847106755,-0.4500447379186749,0.0030541268736124,0.0173311010003089,-0.140721783041954,-0.1506872177124023,walking,2026-03-04_14-00-18
1772632819819466500,0.985466552734375,0.3735303841672837,-0.5065927007012069,0.0919113909780979,0.0206837244331836,-0.1380112469196319,-0.1427599489688873,walking,2026-03-04_14-00-18
1772632819829416400,0.99541650390625,0.3686814097661525,-0.5335480737745761,0.1646492949306964,0.011198341846466,-0.1616111248731613,-0.139887735247612,walking,2026-03-04_14-00-18
1772632819839365400,1.005365478515625,0.3864239141404628,-0.5287717992834746,0.2784469390243291,-7.57933594286e-05,-0.1874846369028091,-0.1438323557376861,walking,2026-03-04_14-00-18
1772632819849314600,1.015314453125,0.3183515908461063,-0.66317749325037,0.2687351078271865,-0.0042457710951566,-0.1676861643791198,-0.1671501994132995,walking,2026-03-04_14-00-18
1772632819859263500,1.025263427734375,0.1660668335784226,-0.7061611871913075,0.1787023702025413,-0.0068483026698231,-0.1532133817672729,-0.196143552660942,walking,2026-03-04_14-00-18
1772632819869212400,1.03521240234375,0.1031332614120096,-0.6984032665409148,0.1282394264221191,-0.0036604981869459,-0.145385280251503,-0.2146866023540496,walking,2026-03-04_14-00-18
1772632819879162600,1.04516259765625,0.1710531706236302,-0.7401930745221674,0.0624929887920618,0.0112931188195943,-0.1420116275548935,-0.2336852252483368,walking,2026-03-04_14-00-18
1772632819889111600,1.055111572265625,0.2512282753722742,-0.7184186112180352,0.0225204593658447,0.0320841521024704,-0.1482578068971634,-0.2377822399139404,walking,2026-03-04_14-00-18
1772632819899060500,1.065060546875,0.3559245117846876,-0.6610631314449011,0.0153185651630163,0.0569887235760688,-0.1501091718673706,-0.2239798903465271,walking,2026-03-04_14-00-18
1772632819909009400,1.075009521484375,0.4594644908340647,-0.6480291700877249,-0.0195031573712825,0.0864187851548194,-0.1537483781576156,-0.2032791376113891,walking,2026-03-04_14-00-18
1772632819918958300,1.084958251953125,0.5383360021708533,-0.6801967248514295,-0.0803594848722219,0.1206973046064376,-0.1479844003915786,-0.1894493997097015,walking,2026-03-04_14-00-18
1772632819928907500,1.094907470703125,0.5460763871645554,-0.7316254449240863,-0.0974491513609886,0.1456058472394943,-0.1309737265110016,-0.1820822954177856,walking,2026-03-04_14-00-18
1772632819938857500,1.104857421875,0.5667332080829888,-0.8278460774034261,-0.0555851090997457,0.1476624011993408,-0.128542423248291,-0.1800494343042373,walking,2026-03-04_14-00-18
1772632819948806400,1.114806396484375,0.570902164330706,-0.9357634312868116,0.0850713158249855,0.1255778819322586,-0.1583903282880783,-0.1898679733276367,walking,2026-03-04_14-00-18
1772632819958755600,1.124755615234375,0.5461891268240288,-1.0077651299193502,0.2542149995654821,0.0832424610853195,-0.2025254517793655,-0.2034717798233032,walking,2026-03-04_14-00-18
1772632819968704500,1.13470458984375,0.5147571563258767,-1.0459726954996584,0.3098287502378225,0.0415405593812465,-0.2410387545824051,-0.2256234288215637,walking,2026-03-04_14-00-18
1772632819978653400,1.1446533203125,0.4576915994100272,-1.0535241337925194,0.1963204444795847,0.0138462912291288,-0.2417059987783432,-0.2492165118455886,walking,2026-03-04_14-00-18
1772632819988602400,1.154602294921875,0.3837551698552444,-1.0048454430803655,-0.0617336948573589,0.0040253512561321,-0.2219807654619217,-0.2772534787654876,walking,2026-03-04_14-00-18
1772632819998552600,1.164552490234375,0.3919693463731556,-0.9134892017669975,-0.302263283419609,-0.0027714860625565,-0.2145447731018066,-0.3020186126232147,walking,2026-03-04_14-00-18
1772632820008501500,1.17450146484375,0.4979858350712806,-0.8059088247530162,-0.4543021031022071,-0.0043629906140267,-0.1730548441410064,-0.2969572842121124,walking,2026-03-04_14-00-18
1772632820018450400,1.184450439453125,0.7058379465863108,-0.659639674513042,-0.5385965893357992,-0.0127177024260163,-0.168176993727684,-0.2693004906177521,walking,2026-03-04_14-00-18
1772632820028399400,1.1943994140625,0.7998696176540107,-0.5087992708347737,-0.6124205349594354,-0.0158881954848766,-0.1497700214385986,-0.2400802671909332,walking,2026-03-04_14-00-18
1772632820038348500,1.2043486328125,0.8814261302910744,-0.3944309872463345,-0.6929109527349472,-0.0052632754668593,-0.1542114615440368,-0.2023856192827224,walking,2026-03-04_14-00-18
1772632820048297500,1.21429736328125,0.8893331040233373,-0.3242969821818173,-0.830778039202094,0.012419581413269,-0.1564818024635315,-0.1761508136987686,walking,2026-03-04_14-00-18
1772632820058247700,1.22424755859375,0.8267478338379413,-0.2434691491454839,-0.9093635001391172,0.0338770225644111,-0.1697132587432861,-0.1555015742778778,walking,2026-03-04_14-00-18
1772632820068196600,1.234196533203125,0.7630402816243469,-0.1772312747366726,-0.9639566755920648,0.0519899800419807,-0.1878152936697006,-0.1355779320001602,walking,2026-03-04_14-00-18
1772632820078145500,1.2441455078125,0.7555194576654582,-0.1059745492525398,-1.0060732313096523,0.069453664124012,-0.1821968555450439,-0.115335077047348,walking,2026-03-04_14-00-18
1772632820088094500,1.254094482421875,0.711309655995667,-0.0122447106756269,-1.041264371678233,0.091517686843872,-0.1307435184717178,-0.092929370701313,walking,2026-03-04_14-00-18
1772632820098043400,1.26404345703125,0.6785417972512543,0.0927796982452273,-1.078725210544467,0.1224448531866073,-0.0485042817890644,-0.05878397077322,walking,2026-03-04_14-00-18
1772632820107993600,1.27399365234375,0.6775794550251215,0.1713587294414639,-1.039354738664627,0.1610902547836303,0.0424101762473583,-0.016375258564949,walking,2026-03-04_14-00-18
1772632820117942500,1.283942626953125,0.718926268479228,0.259165023188293,-0.902267404398322,0.2048754394054412,0.1092254742980003,0.0324389263987541,walking,2026-03-04_14-00-18
1772632820127891500,1.293891357421875,0.7571784769188612,0.2851628032758831,-0.6615431700468063,0.2441014051437378,0.1284729391336441,0.0760354101657867,walking,2026-03-04_14-00-18
1772632820137840400,1.30384033203125,0.7815240328200161,0.239237210664153,-0.3387041315883398,0.2787054181098938,0.1003728210926055,0.1093348711729049,walking,2026-03-04_14-00-18
1772632820147789600,1.31378955078125,0.7484612827822565,0.145728759752959,-0.0072369655162096,0.3004887700080871,0.0458797514438629,0.1178111806511879,walking,2026-03-04_14-00-18
1772632820157738500,1.323738525390625,0.6058054642012343,0.0800917738467454,0.2923971384435891,0.3077103197574615,-0.0159412194043397,0.1170040220022201,walking,2026-03-04_14-00-18
1772632820167688700,1.333688720703125,0.4711051346693187,0.0412450335800647,0.4885574239253997,0.2899377048015594,-0.092103898525238,0.1119719818234443,walking,2026-03-04_14-00-18
1772632820177637600,1.3436376953125,0.3548378490591422,0.0338958398610353,0.6798205850154161,0.2525655329227447,-0.1517132371664047,0.1045534834265708,walking,2026-03-04_14-00-18
1772632820187586600,1.353586669921875,0.2023265530265867,0.0131041039839386,0.7074585335254668,0.2080814242362976,-0.1575138717889785,0.0840258374810218,walking,2026-03-04_14-00-18
1772632820197535500,1.363535400390625,-0.0215704286320135,0.0358656786292791,0.6093488724291324,0.1563584804534912,-0.1207263097167015,0.0545492805540561,walking,2026-03-04_14-00-18
1772632820207484400,1.373484375,-0.2156780193677172,0.0642243426293134,0.5201525856286286,0.1062359139323234,-0.0675174221396446,0.0306522008031606,walking,2026-03-04_14-00-18
1772632820217434400,1.383434326171875,-0.2944672592485323,0.0978495488554239,0.440144982933998,0.0611743666231632,-0.0165899023413658,0.0102205565199255,walking,2026-03-04_14-00-18
1772632820227383600,1.393383544921875,-0.3588895356027409,0.1340945821911096,0.3824707926005125,0.0319741368293762,0.0185707472264766,-0.0083611169829964,walking,2026-03-04_14-00-18
1772632820237332500,1.40333251953125,-0.4033402698889374,0.2006501442469656,0.3141553812652826,0.0216475538909435,0.0269720219075679,-0.0336467139422893,walking,2026-03-04_14-00-18
1772632820247281700,1.41328173828125,-0.4240916737556457,0.2609070445500314,0.2644254279345274,0.0312242805957794,0.0091914264485239,-0.0526691377162933,walking,2026-03-04_14-00-18
1772632820257230600,1.423230712890625,-0.43146198332794,0.361729033344984,0.1927466776460409,0.0607684403657913,-0.0262168180197477,-0.0586353652179241,walking,2026-03-04_14-00-18
1772632820267179500,1.433179443359375,-0.3651487786605954,0.4908655547372996,0.1202618716716766,0.0977344512939453,-0.0524127371609211,-0.0492900684475898,walking,2026-03-04_14-00-18
1772632820277129500,1.44312939453125,-0.3025987807179801,0.6350165437795221,0.1118921027332544,0.1266126483678817,-0.080219954252243,-0.0306504014879465,walking,2026-03-04_14-00-18
1772632820287078700,1.45307861328125,-0.266477026702091,0.7219457624308765,0.1939490391731262,0.1321088671684265,-0.0995270758867263,-0.0111030656844377,walking,2026-03-04_14-00-18
1772632820297027600,1.463027587890625,-0.3592652005147189,0.7425925368793308,0.2945464254319667,0.1088292524218559,-0.092398777604103,-0.0130720771849155,walking,2026-03-04_14-00-18
1772632820306976500,1.4729765625,-0.5118441914886236,0.71363064628914,0.3776496560543775,0.0742489024996757,-0.0647362545132637,-0.0286944452673196,walking,2026-03-04_14-00-18
1772632820316925400,1.482925537109375,-0.5786898225322366,0.7179303893096745,0.444535326847434,0.0412442162632942,-0.0400954410433769,-0.0348177179694175,walking,2026-03-04_14-00-18
1772632820326874400,1.492874267578125,-0.5368499648641795,0.7683774048686027,0.4375058666020631,0.0178672540932893,-0.0187994744628667,-0.0368017703294754,walking,2026-03-04_14-00-18
1772632820336824300,1.50282421875,-0.4944922573344781,0.7852193802066146,0.3506394840538501,0.0085473749786615,0.0164751056581735,-0.0459295324981212,walking,2026-03-04_14-00-18
1772632820346773500,1.5127734375,-0.4438027017239481,0.784453218139708,0.2739747620463371,0.0053694248199462,0.0354045890271663,-0.0484978854656219,walking,2026-03-04_14-00-18
1772632820356722700,1.52272265625,-0.3813337513945996,0.776034641623497,0.2769301047205925,0.0050670057535171,0.0287967585027217,-0.0468540377914905,walking,2026-03-04_14-00-18
1772632820366671600,1.532671630859375,-0.3091660120127722,0.7677247861787676,0.3133206840068102,0.0038259725552052,-0.0068392641842365,-0.0400752276182174,walking,2026-03-04_14-00-18
1772632820376620500,1.54262060546875,-0.2062693906345404,0.7661445312499999,0.3487409569561481,0.006931425537914,-0.0444978177547454,-0.0295756086707115,walking,2026-03-04_14-00-18
1772632820386569500,1.552569580078125,-0.1764607470219023,0.7816580344632268,0.3158043175160884,0.0102683659642934,-0.0730583518743515,-0.0184158980846405,walking,2026-03-04_14-00-18
1772632820396519400,1.56251953125,-0.1830437238750979,0.8095308146424591,0.2687181566923856,0.0052750101312994,-0.0867291986942291,-0.0104935551062226,walking,2026-03-04_14-00-18
1772632820406468400,1.57246826171875,-0.2362603685441426,0.7909021020181477,0.2516606389075517,-0.0183083470910787,-0.0841872096061706,-0.013660586439073,walking,2026-03-04_14-00-18
1772632820416417500,1.58241748046875,-0.3413650213606655,0.7395800571903586,0.2571878778964281,-0.0448415502905845,-0.0750470608472824,-0.0226206537336111,walking,2026-03-04_14-00-18
1772632820426366500,1.592366455078125,-0.3916848303433507,0.6995227720901369,0.188376791998744,-0.0769030749797821,-0.0357081741094589,-0.025582356378436,walking,2026-03-04_14-00-18
1772632820436315600,1.602315673828125,-0.4371649442099034,0.6540684502519667,0.1276233403503894,-0.1043924614787101,0.0068728886544704,-0.0295407120138406,walking,2026-03-04_14-00-18
1772632820446264600,1.6122646484375,-0.4719864475484937,0.6187637665063143,0.1070405710488557,-0.1317252814769745,0.0444652698934078,-0.021884124726057,walking,2026-03-04_14-00-18
1772632820456214500,1.622214599609375,-0.4298349666479975,0.6147814188718795,0.1071691658645868,-0.149603396654129,0.0317160673439502,-0.021082405000925,walking,2026-03-04_14-00-18
1772632820466163500,1.63216357421875,-0.4304994949713349,0.5744270505212247,0.1669634170919656,-0.1581822484731674,0.0111460760235786,-0.0251546446233987,walking,2026-03-04_14-00-18
1772632820476112600,1.642112548828125,-0.4322585040004923,0.4500632964886725,0.1747340510934591,-0.167805016040802,-0.0335816666483879,-0.0224958434700965,walking,2026-03-04_14-00-18
1772632820486061600,1.6520615234375,-0.4176011061599478,0.4243069239415228,0.1464659879863262,-0.1718663424253463,-0.0624125190079212,-0.0090567339211702,walking,2026-03-04_14-00-18
1772632820496010500,1.662010498046875,-0.4419982826504856,0.3837291220985352,0.0296913739085197,-0.1752478629350662,-0.0815588906407356,0.0053566815331578,walking,2026-03-04_14-00-18
1772632820505959400,1.67195947265625,-0.4903576417477801,0.3350885714396834,-0.0329506679654121,-0.1846837103366851,-0.0974851325154304,0.0208677314221858,walking,2026-03-04_14-00-18
1772632820515909400,1.681909423828125,-0.5268237704882398,0.2439227381318807,-0.0926204160302877,-0.1950262784957885,-0.089076928794384,0.0348253361880779,walking,2026-03-04_14-00-18
1772632820525858300,1.6918583984375,-0.558544129473716,0.1221105682782828,-0.184435945418477,-0.1958241611719131,-0.0620937831699848,0.0429314635694026,walking,2026-03-04_14-00-18
1772632820535807500,1.701807373046875,-0.6089963326644152,0.0644637043431401,-0.3164122202813625,-0.1874246299266815,0.0082194060087203,0.0570298135280609,walking,2026-03-04_14-00-18
1772632820545756700,1.711756591796875,-0.6078367508331314,-0.0239079682014882,-0.3923351840108632,-0.1728699207305908,0.0730878785252571,0.0778578668832779,walking,2026-03-04_14-00-18
1772632820555705600,1.72170556640625,-0.5338291557382792,-0.0996872856765985,-0.3409200540721416,-0.145341083407402,0.1143186539411544,0.1086705476045608,walking,2026-03-04_14-00-18
1772632820565655600,1.731655517578125,-0.4248507119620218,-0.1991224962882697,-0.2003004540264606,-0.1100014671683311,0.1191810518503189,0.1344930976629257,walking,2026-03-04_14-00-18
1772632820575604500,1.7416044921875,-0.3594356617107987,-0.3060102148629725,-0.0203027833163738,-0.0718350261449813,0.0908277854323387,0.1531713008880615,walking,2026-03-04_14-00-18
1772632820585553400,1.751553466796875,-0.3071328622173517,-0.4354530257254839,0.1738935086160898,-0.038213949650526,0.0328688770532608,0.1616026163101196,walking,2026-03-04_14-00-18
1772632820595502600,1.761502685546875,-0.245525734615419,-0.5652833746008574,0.374610726749897,-0.0103324251249432,-0.0201198700815439,0.1710182577371597,walking,2026-03-04_14-00-18
1772632820605451500,1.771451416015625,-0.2001139732773415,-0.6588513006143272,0.4974556006520986,-9.09734517335e-05,-0.0682804733514785,0.1635001599788665,walking,2026-03-04_14-00-18
1772632820615400400,1.781400390625,-0.3177911074191332,-0.6988948494501411,0.6237088216930627,-0.0153896203264594,-0.0854634642601013,0.1321876347064972,walking,2026-03-04_14-00-18
1772632820625349600,1.791349609375,-0.4508563465625047,-0.7734424331732094,0.702463793978095,-0.0490341335535049,-0.0799390003085136,0.0882327035069465,walking,2026-03-04_14-00-18
1772632820635299300,1.80129931640625,-0.4752510388350114,-0.830996358127892,0.6935638636857271,-0.0997279733419418,-0.0626863911747932,0.0449393838644027,walking,2026-03-04_14-00-18
1772632820645248500,1.81124853515625,-0.4391026342742145,-0.7590503352053463,0.6689344493418932,-0.149324283003807,-0.0301161985844373,0.0183479860424995,walking,2026-03-04_14-00-18
1772632820655197700,1.82119775390625,-0.337967049485445,-0.6068688921816646,0.6036258186072111,-0.1907691359519958,-0.002454224973917,0.0162379518151283,walking,2026-03-04_14-00-18
1772632820665146600,1.831146728515625,-0.2416197949517518,-0.3972434143185615,0.4825947161287069,-0.2098264545202255,0.0206494964659214,0.0206902250647544,walking,2026-03-04_14-00-18
1772632820675095600,1.841095458984375,-0.1661413235867395,-0.2073136937893927,0.2912152351826429,-0.2021986693143844,0.0433079190552234,0.0410675927996635,walking,2026-03-04_14-00-18
1772632820685044500,1.85104443359375,-0.0873473161992616,-0.0596487052768468,0.1167377891987562,-0.1792310327291488,0.0526710636913776,0.0656690746545791,walking,2026-03-04_14-00-18
1772632820694994400,1.860994384765625,-0.0412560116318054,0.0533897910125553,0.0002110124021768,-0.152260735630989,0.0594384297728538,0.095874048769474,walking,2026-03-04_14-00-18
1772632820704943400,1.870943359375,0.0175869484864175,0.1021124669969081,-0.0152834938496351,-0.1294893771409988,0.0760925039649009,0.1371128410100937,walking,2026-03-04_14-00-18
1772632820714892300,1.880892333984375,0.0877014633991755,0.1259618368789553,-0.0150818337976932,-0.1166447848081588,0.1076074168086052,0.1849650740623474,walking,2026-03-04_14-00-18
1772632820724841500,1.890841552734375,0.121545372143574,0.0945111982129514,0.0636690468341112,-0.1229213178157806,0.1505258530378341,0.226873368024826,walking,2026-03-04_14-00-18
1772632820734790700,1.900790771484375,0.1089475371813401,0.0052379006534814,0.2032569657444954,-0.1436046957969665,0.1803833246231079,0.2514583468437195,walking,2026-03-04_14-00-18
1772632820744739600,1.910739501953125,0.080318623138871,-0.1263986208610236,0.3513350651025771,-0.1688112467527389,0.1824454069137573,0.2655579149723053,walking,2026-03-04_14-00-18
1772632820754689500,1.920689453125,0.0447909260259941,-0.2126470176413655,0.4197428308963775,-0.1803198754787445,0.1727902293205261,0.2706416249275207,walking,2026-03-04_14-00-18
1772632820764638500,1.930638427734375,0.0925087906156666,-0.2266843108221888,0.4086684791743755,-0.1708384901285171,0.1586493700742721,0.2796550989151001,walking,2026-03-04_14-00-18
1772632820774587100,1.940587158203125,0.1594846787091344,-0.187075792402774,0.3631225335299968,-0.1487901508808136,0.1375931054353714,0.2996730804443359,walking,2026-03-04_14-00-18
1772632820784536000,1.9505361328125,0.2696717676227912,-0.1647870959661901,0.2728472193211317,-0.1287456005811691,0.1251716017723083,0.3363264203071594,walking,2026-03-04_14-00-18
1772632820794485000,1.960485107421875,0.3558635753776878,-0.1619469041042029,0.238200268831849,-0.1211943551898002,0.1225409507751464,0.3898769915103912,walking,2026-03-04_14-00-18
1772632820804434200,1.97043408203125,0.3570153757613152,-0.1712625755906105,0.2600572958528995,-0.127213105559349,0.1409750878810882,0.4312598407268524,walking,2026-03-04_14-00-18
1772632820814384000,1.980384033203125,0.2470823712065815,-0.225285257679224,0.280799055108428,-0.1480124294757843,0.1651943773031234,0.4538328945636749,walking,2026-03-04_14-00-18
1772632820824333300,1.990333251953125,0.0968713514730334,-0.3287142141021787,0.2731651992291212,-0.1751199513673782,0.1876575946807861,0.4631195962429046,walking,2026-03-04_14-00-18
1772632820834282200,2.0002822265625,-0.0712837961541488,-0.4699824873149394,0.2310568268179893,-0.2024352997541427,0.2089745998382568,0.453303575515747,walking,2026-03-04_14-00-18
1772632820844231200,2.010231201171875,-0.2044877496484667,-0.5961136894114315,0.1856897448718547,-0.2238806635141372,0.2187579870223999,0.4400780498981476,walking,2026-03-04_14-00-18
1772632820854180000,2.02018017578125,-0.3016161811551079,-0.6191311385139823,0.0390647669315338,-0.2266954481601715,0.232008084654808,0.4276018142700195,walking,2026-03-04_14-00-18
1772632820864129000,2.03012890625,-0.3048785439519211,-0.633300972033292,-0.1459463480263948,-0.2065273225307464,0.2323423027992248,0.440536767244339,walking,2026-03-04_14-00-18
1772632820874079200,2.040079345703125,-0.2833671154981479,-0.62361361769028,-0.3169873898208141,-0.1678239703178405,0.2262434959411621,0.456949234008789,walking,2026-03-04_14-00-18
1772632820884028200,2.050028076171875,-0.3229800178317353,-0.6256839211583137,-0.4979354931235313,-0.1061432883143425,0.2198676168918609,0.4743045270442962,walking,2026-03-04_14-00-18
1772632820893977000,2.05997705078125,-0.3310902225185185,-0.6461161030080169,-0.6447013408392668,-0.0331989005208015,0.2211494445800781,0.4934636056423187,walking,2026-03-04_14-00-18
1772632820903926000,2.069926025390625,-0.3674141663093119,-0.7149816225066781,-0.6965513550639152,0.0315017998218536,0.2117455601692199,0.5095885396003723,walking,2026-03-04_14-00-18
1772632820913875200,2.079875244140625,-0.4640914930475875,-0.7993360222339629,-0.598918663829565,0.0734385624527931,0.1972840279340744,0.516471266746521,walking,2026-03-04_14-00-18
1772632820923824000,2.08982421875,-0.5881022689240053,-0.921637290778756,-0.4373375242978334,0.0832696259021759,0.1723440587520599,0.5047480463981628,walking,2026-03-04_14-00-18
1772632820933774300,2.0997744140625,-0.7548647200837731,-1.080480675909668,-0.2757955477327108,0.0739563554525375,0.1498233526945114,0.4844038784503937,walking,2026-03-04_14-00-18
1772632820943723300,2.10972314453125,-0.8933870555892586,-1.1803743708785623,-0.209486800044775,0.0529890209436416,0.149676889181137,0.4669050574302673,walking,2026-03-04_14-00-18
1772632820953672200,2.119672119140625,-0.9907194487027824,-1.2526210572481156,-0.2576496501892805,0.0409250035881996,0.1620237231254577,0.4552228450775146,walking,2026-03-04_14-00-18
1772632820963621000,2.12962109375,-1.0390187847085297,-1.2583322745017709,-0.3740671213924884,0.04453731700778,0.165774255990982,0.4525074958801269,walking,2026-03-04_14-00-18
1772632820973570000,2.139570068359375,-1.0425044348672032,-1.256259121489525,-0.4630068030834198,0.0528260320425033,0.1489898264408111,0.4446797370910644,walking,2026-03-04_14-00-18
1772632820983519000,2.14951904296875,-1.1158002649635077,-1.271165598720312,-0.5291460394233465,0.0756163001060485,0.1244565248489379,0.4194827675819397,walking,2026-03-04_14-00-18
1772632820993469200,2.15946923828125,-1.309803518541902,-1.2364499669089912,-0.6290262173235416,0.1082528829574585,0.0997943505644798,0.3724675476551056,walking,2026-03-04_14-00-18
1772632821003418000,2.169418212890625,-1.4760348219670354,-1.1668411547623574,-0.7514075653672218,0.1448460519313812,0.0878601893782615,0.3145832121372223,walking,2026-03-04_14-00-18
1772632821013367300,2.1793671875,-1.564915320816636,-1.0899705349192024,-0.8117939372688532,0.1702439785003662,0.0920547693967819,0.2527815699577331,walking,2026-03-04_14-00-18
1772632821023316200,2.189316162109375,-1.5800114754006265,-0.994086587048322,-0.8311310904234648,0.1882642805576324,0.1190653443336486,0.1994277983903885,walking,2026-03-04_14-00-18
1772632821033265200,2.19926513671875,-1.45584236715734,-0.8515854110397398,-0.8162725439876317,0.1905052810907364,0.1640792787075042,0.1626578122377395,walking,2026-03-04_14-00-18
1772632821043214000,2.209214111328125,-1.2756101570390164,-0.7193873101197182,-0.7323369541943073,0.1740266978740692,0.1939490288496017,0.1329230815172195,walking,2026-03-04_14-00-18
1772632821053164300,2.219164306640625,-1.0858058164551854,-0.5772431308552622,-0.5206412459284067,0.1375710368156433,0.1749895066022873,0.1079572662711143,walking,2026-03-04_14-00-18
1772632821063113200,2.22911328125,-0.8902245729703455,-0.3957387088440358,-0.2641197229862213,0.0874130651354789,0.0957325026392936,0.0829235538840293,walking,2026-03-04_14-00-18
1772632821073062100,2.239062255859375,-0.7254021864950656,-0.2374209550224244,-0.1182943709909915,0.0386547818779945,-0.0111487619578838,0.0614126026630401,walking,2026-03-04_14-00-18
1772632821083011000,2.249010986328125,-0.6006461452092975,-0.022764204993844,-0.1536567762732505,0.0053354427218437,-0.1100742742419242,0.0455028787255287,walking,2026-03-04_14-00-18
1772632821092960000,2.2589599609375,-0.5157260744232685,0.2459786477483808,-0.3802916949957609,-0.0061680604703724,-0.1508101820945739,0.0442687571048736,walking,2026-03-04_14-00-18
1772632821102909200,2.2689091796875,-0.4845596229935064,0.4970902744710445,-0.7184832008868456,0.0048134843818843,-0.1447038203477859,0.0531935431063175,walking,2026-03-04_14-00-18
1772632821112858000,2.278858154296875,-0.4337892572317272,0.7447244343414903,-1.0024924502134325,0.0334465317428112,-0.1024185866117477,0.0731638595461845,walking,2026-03-04_14-00-18
1772632821122808300,2.288808349609375,-0.3459127477928996,0.9274449541442096,-1.2192127086430786,0.0744586810469627,-0.0423086434602737,0.1166556775569915,walking,2026-03-04_14-00-18
1772632821132757200,2.29875732421875,-0.2910300878740847,1.0395898625947535,-1.299444767743349,0.1137924119830131,0.0138476677238941,0.1609517037868499,walking,2026-03-04_14-00-18
1772632821142706200,2.3087060546875,-0.3259998771095648,1.0891007663473486,-1.232850773373246,0.1513323187828064,0.0722814127802848,0.1991158723831176,walking,2026-03-04_14-00-18
1772632821152655000,2.318655029296875,-0.4424797460244968,1.0380274355836212,-1.0853466745108364,0.1815328896045684,0.118258349597454,0.2162351012229919,walking,2026-03-04_14-00-18
1772632821162604000,2.32860400390625,-0.5413893983921035,0.8654249896913766,-0.824976074925065,0.199420541524887,0.1384139508008957,0.2213984429836273,walking,2026-03-04_14-00-18
1772632821172553000,2.338552978515625,-0.527194357366301,0.6117120944291353,-0.5121580797433852,0.2169492691755294,0.1388764083385467,0.2150418907403946,walking,2026-03-04_14-00-18
1772632821182503200,2.348503173828125,-0.4856576108306646,0.3824982651293278,-0.2272030739992857,0.2292685210704803,0.1053613200783729,0.2013511061668396,walking,2026-03-04_14-00-18
1772632821192452000,2.3584521484375,-0.408348782233335,0.2288914654776453,0.0670014061272144,0.230613961815834,0.0422759316861629,0.1877333968877792,walking,2026-03-04_14-00-18
1772632821202401300,2.3684013671875,-0.3036046880912035,0.098443276964873,0.3276706963986158,0.2365232408046722,-0.0150510091334581,0.1764567643404007,walking,2026-03-04_14-00-18
1772632821212350200,2.37835009765625,-0.2375918180773034,0.013614391593635,0.4722919333010911,0.2451114952564239,-0.0508222617208957,0.1716803610324859,walking,2026-03-04_14-00-18
1772632821222299100,2.388299072265625,-0.1748827753817662,-0.0032036183468997,0.4965700499892234,0.2494662851095199,-0.1032817363739013,0.1453547477722168,walking,2026-03-04_14-00-18
1772632821232248000,2.398248046875,-0.1796892623480409,-0.0121544020436704,0.5433025750696658,0.2597986459732055,-0.1221405565738678,0.1163018643856048,walking,2026-03-04_14-00-18
1772632821242198300,2.4081982421875,-0.1622122770421206,0.0210677763395011,0.5487099870711565,0.2683489918708801,-0.1279270648956298,0.0824640020728111,walking,2026-03-04_14-00-18
1772632821252147200,2.418147216796875,-0.1722011350823566,0.1390219555906951,0.5995791735649109,0.2675151824951172,-0.1095271408557891,0.050034936517477,walking,2026-03-04_14-00-18
1772632821262096100,2.42809619140625,-0.1824266514226794,0.28726678981781,0.680333795234561,0.2475747615098953,-0.0839565396308898,0.0224195532500743,walking,2026-03-04_14-00-18
1772632821272045000,2.438045166015625,-0.0968929787829518,0.4079161995023488,0.8073246829003096,0.2138111591339111,-0.0770101547241211,0.0022809088695794,walking,2026-03-04_14-00-18
1772632821281994000,2.447993896484375,0.0248274211339652,0.4980611653298139,0.9607605098992584,0.1807568073272705,-0.0894268751144409,-0.0121409073472023,walking,2026-03-04_14-00-18
1772632821291943200,2.457943115234375,0.1674976700991392,0.6136807641535997,0.9786661689460276,0.162514179944992,-0.1016822382807731,-0.0212918855249881,walking,2026-03-04_14-00-18
1772632821301893000,2.46789306640625,0.277453617138043,0.7590795612998307,0.9336988999724388,0.1625083237886428,-0.0994814038276672,-0.022276721894741,walking,2026-03-04_14-00-18
1772632821311842300,2.47784228515625,0.384963522731699,0.8913106877066195,0.8240577910363673,0.171812430024147,-0.0797615945339202,-0.0211759768426418,walking,2026-03-04_14-00-18
1772632821321791200,2.487791259765625,0.4888560780784114,0.9558305061511696,0.8065648044437169,0.1668632179498672,-0.069338783621788,-0.018805231899023,walking,2026-03-04_14-00-18
1772632821331740200,2.497740234375,0.552994495989941,0.997143052009493,0.9286784414619208,0.1386115103960037,-0.090128481388092,-0.0212277825921773,walking,2026-03-04_14-00-18
1772632821341689000,2.507689208984375,0.5745486310742796,0.9957323084287344,1.0519371568620204,0.1044665873050689,-0.1293400675058365,-0.0346772782504558,walking,2026-03-04_14-00-18
1772632821351638000,2.517637939453125,0.580732690004073,0.9663535076007248,1.060624905708432,0.0636943578720092,-0.1505813747644424,-0.0502496697008609,walking,2026-03-04_14-00-18
1772632821361587200,2.527587158203125,0.5671462823959067,0.9498021857723592,1.0189017332226038,0.007451326586306,-0.1744105517864227,-0.0664563328027725,walking,2026-03-04_14-00-18
1772632821371537200,2.537537109375,0.5748909417059272,0.9264293473608792,0.9989508320838212,-0.0652557909488678,-0.2001681327819824,-0.0889450833201408,walking,2026-03-04_14-00-18
1772632821381486000,2.547486083984375,0.5153497884567827,0.919591464164853,0.9524182134896516,-0.1403499990701675,-0.2127728760242462,-0.1061906442046165,walking,2026-03-04_14-00-18
1772632821391435300,2.557435302734375,0.5272886845862492,0.9013008974537252,0.7339800452262163,-0.2031525671482086,-0.220141664147377,-0.1238361597061157,walking,2026-03-04_14-00-18
1772632821401384200,2.56738427734375,0.5543581855585799,0.8847033983960747,0.4164046263843775,-0.2434981316328048,-0.1961535066366195,-0.1337321996688842,walking,2026-03-04_14-00-18
1772632821411333000,2.5773330078125,0.5933384525444358,0.8947587823338806,0.0946966377824544,-0.2686240375041961,-0.1474268436431884,-0.1290473192930221,walking,2026-03-04_14-00-18
1772632821421282000,2.587281982421875,0.6273989814478904,0.8630635212570429,-0.1696481261312961,-0.2819677889347076,-0.0863483101129531,-0.1223105937242508,walking,2026-03-04_14-00-18
1772632821431232300,2.597232177734375,0.5856751148423179,0.8045936505012213,-0.3465513379573822,-0.2900555729866028,-0.0337534137070179,-0.1261033713817596,walking,2026-03-04_14-00-18
1772632821441181200,2.60718115234375,0.5272222317539155,0.7126520105153322,-0.3894277721315622,-0.3010246157646179,-0.0204131063073873,-0.1384950578212738,walking,2026-03-04_14-00-18
1772632821451130000,2.617130126953125,0.490966530893743,0.6082378424473106,-0.3621452129304409,-0.3138295114040375,-0.0377569831907749,-0.1533342152833938,walking,2026-03-04_14-00-18
1772632821461079000,2.6270791015625,0.4964437932610511,0.5183296079851687,-0.3607996435403823,-0.318639189004898,-0.0452252849936485,-0.1575784981250763,walking,2026-03-04_14-00-18
1772632821471028000,2.637028076171875,0.5173799425775185,0.468837262802571,-0.4726069905996322,-0.3055372536182403,-0.021120024845004,-0.1411004513502121,walking,2026-03-04_14-00-18
1772632821480977200,2.64697705078125,0.5375564326331019,0.4774747427664697,-0.6046078153818846,-0.2724125981330871,0.0408839546144008,-0.1091214716434478,walking,2026-03-04_14-00-18
1772632821490927000,2.656927001953125,0.5252925788655877,0.4297764413937926,-0.7218705052375793,-0.2234806716442108,0.1309984475374221,-0.068204179406166,walking,2026-03-04_14-00-18
1772632821500876300,2.666876220703125,0.5148940440459177,0.3568405306510627,-0.7188035188823938,-0.1665689349174499,0.2100847363471985,-0.0274980254471302,walking,2026-03-04_14-00-18
1772632821510825200,2.6768251953125,0.5144729690896347,0.2298974276497959,-0.5030979904532432,-0.1207336485385894,0.2434207201004028,-0.0007643877761438,walking,2026-03-04_14-00-18
1772632821520774100,2.686774169921875,0.4862340224791318,0.0652170069284737,-0.12445172457695,-0.095265045762062,0.2185209691524505,0.0215611569583416,walking,2026-03-04_14-00-18
1772632821530723000,2.69672314453125,0.4708303363159298,-0.0997238182947039,0.2699175956100225,-0.0830920338630676,0.1586399525403976,0.0361562110483646,walking,2026-03-04_14-00-18
1772632821540672000,2.706672119140625,0.42227227630876,-0.2726081498682499,0.554684385305643,-0.0742990747094154,0.0929339155554771,0.035075232386589,walking,2026-03-04_14-00-18
1772632821550621200,2.71662109375,0.3883905380383133,-0.368996978521347,0.7112637710273265,-0.0721006989479065,0.0239354167133569,0.0316932946443557,walking,2026-03-04_14-00-18
1772632821560571100,2.726571044921875,0.3685913203299045,-0.4323714263230562,0.7821861499905586,-0.0710088014602661,-0.0322855114936828,0.0317998193204402,walking,2026-03-04_14-00-18
1772632821570520000,2.73652001953125,0.3664312927518039,-0.4656916582532227,0.7792004121780395,-0.0690003037452697,-0.0620256885886192,0.0333466902375221,walking,2026-03-04_14-00-18
1772632821580469200,2.74646923828125,0.3128300509456544,-0.460261011506617,0.7374117732405662,-0.0724307224154472,-0.0779705643653869,0.0273143649101257,walking,2026-03-04_14-00-18
1772632821590418200,2.756418212890625,0.2316546831132843,-0.4374354317143559,0.6987222693622112,-0.0756425485014915,-0.0915616005659103,0.0136058535426855,walking,2026-03-04_14-00-18
1772632821600367000,2.7663671875,0.1879198054788634,-0.4480924348071217,0.593508329218626,-0.0762087404727935,-0.1004586890339851,-0.0028583407402038,walking,2026-03-04_14-00-18
1772632821610316300,2.77631640625,0.1030286319937557,-0.431636974568665,0.4696919799357652,-0.0709782168269157,-0.0915307700634002,-0.0287571679800748,walking,2026-03-04_14-00-18
1772632821620266200,2.786266357421875,0.0279305747810751,-0.4207010084040463,0.350850496456027,-0.0728576108813285,-0.0731472373008728,-0.0544406920671463,walking,2026-03-04_14-00-18
1772632821630215200,2.796215087890625,-0.0308754325939342,-0.4076237924270331,0.2832189757317304,-0.0866127461194992,-0.0599324628710746,-0.0834091678261756,walking,2026-03-04_14-00-18
1772632821640164000,2.8061640625,-0.0483710130024701,-0.3990563089594244,0.285222716769576,-0.1062738001346588,-0.0563425198197364,-0.1175828501582145,walking,2026-03-04_14-00-18
1772632821650113000,2.816113037109375,-0.0453827909719198,-0.424178767517209,0.2552706460982561,-0.120023213326931,-0.0520934090018272,-0.1540598720312118,walking,2026-03-04_14-00-18
1772632821660062000,2.82606201171875,-0.0276451089031994,-0.4360359401799738,0.1706365526467561,-0.1260488927364349,-0.037339761853218,-0.1875752210617065,walking,2026-03-04_14-00-18
1772632821670011400,2.836011474609375,0.0166571933556348,-0.3960447060532868,0.0630120442301035,-0.1208008453249931,-0.0096062226220965,-0.2120956778526306,walking,2026-03-04_14-00-18
1772632821679960300,2.845960205078125,0.0518464340280741,-0.3870087282910943,-0.0625461802840232,-0.105904184281826,0.0278641898185014,-0.2305878698825836,walking,2026-03-04_14-00-18
1772632821689910300,2.85591015625,0.067348867858015,-0.3906849325858056,-0.1428635795801877,-0.0857132375240325,0.0602757222950458,-0.2558414340019226,walking,2026-03-04_14-00-18
1772632821699859200,2.865859130859375,0.0932007732015103,-0.4037187478125095,-0.155177702230215,-0.0600755214691162,0.0693965256214141,-0.2859340906143188,walking,2026-03-04_14-00-18
1772632821709808000,2.87580810546875,0.1614316845910623,-0.4423211579293012,-0.1342103175252676,-0.0313326530158519,0.0646752640604972,-0.3080914616584778,walking,2026-03-04_14-00-18
1772632821719757000,2.885757080078125,0.2616464647404849,-0.4495042013011872,-0.0997971757918596,-0.0014447923749685,0.0406665988266468,-0.318759024143219,walking,2026-03-04_14-00-18
1772632821729706200,2.895706298828125,0.3345060953766107,-0.4248611968234181,-0.0600613777309656,0.0164504703134298,0.0086547313258051,-0.3264632523059845,walking,2026-03-04_14-00-18
1772632821739655200,2.9056552734375,0.3761816293284297,-0.4585954163819551,-0.0349982481449842,0.0216838493943214,-0.0246409084647893,-0.3307229876518249,walking,2026-03-04_14-00-18
1772632821749605000,2.915605224609375,0.3872998932573944,-0.5284671172484755,-0.0177536833554506,0.0186489820480346,-0.0481846518814563,-0.3304533362388611,walking,2026-03-04_14-00-18
1772632821759554000,2.925553955078125,0.3479570035042241,-0.5888621108479798,-0.0610065496265888,0.0123482104390859,-0.0492339357733726,-0.3424018621444702,walking,2026-03-04_14-00-18
1772632821769503200,2.935503173828125,0.2975296790264546,-0.6600298428744077,-0.1557902811706066,0.0040280418470501,-0.0397737622261047,-0.3565447926521301,walking,2026-03-04_14-00-18
1772632821779452700,2.94545263671875,0.2318244136570021,-0.7304995096340775,-0.2901175030738115,0.0080882972106337,-0.0147208757698535,-0.3708541989326477,walking,2026-03-04_14-00-18
1772632821789401900,2.95540185546875,0.2208127884402871,-0.7490333835817873,-0.4191811053603887,0.0260590594261884,0.0171066373586654,-0.379871666431427,walking,2026-03-04_14-00-18
1772632821799350800,2.965350830078125,0.2601746386222541,-0.750244220676273,-0.5439297670572996,0.0629116147756576,0.0436032265424728,-0.3724827468395233,walking,2026-03-04_14-00-18
1772632821809300700,2.97530078125,0.3601744243141263,-0.772450061134994,-0.5854027641743421,0.1135152727365493,0.0562768876552581,-0.3572021126747131,walking,2026-03-04_14-00-18
1772632821819249700,2.985249755859375,0.4734883400114253,-0.7730648320324719,-0.5819675290286541,0.1707351505756378,0.0430098213255405,-0.3399695754051208,walking,2026-03-04_14-00-18
1772632821829198600,2.995198486328125,0.600035648628138,-0.7823587300784886,-0.4440267928034067,0.2196884304285049,-0.0056666610762476,-0.3206496238708496,walking,2026-03-04_14-00-18
1772632821839147500,3.0051474609375,0.7331758892364799,-0.848416425614804,-0.2691150470554828,0.2463253736495971,-0.0631888136267662,-0.3032370805740356,walking,2026-03-04_14-00-18
1772632821849096700,3.0150966796875,0.798120947355777,-0.9257206145696342,-0.1221200667589902,0.2570948302745819,-0.1048522740602493,-0.2946697473526001,walking,2026-03-04_14-00-18
1772632821859045600,3.025045654296875,0.8103218188896775,-0.9625672670602798,-0.0798866066634654,0.2613657414913177,-0.1257711350917816,-0.2853785157203674,walking,2026-03-04_14-00-18
1772632821868994800,3.034994873046875,0.8435659168437123,-0.9589517069116236,-0.1007026001989841,0.2652546763420105,-0.1275177150964737,-0.2608351707458496,walking,2026-03-04_14-00-18
1772632821878944500,3.044944580078125,0.9312226460520178,-0.9506753153450788,-0.2421136428833007,0.2811896800994873,-0.0967451632022857,-0.2330788969993591,walking,2026-03-04_14-00-18
1772632821888893700,3.054893798828125,1.0219411009185015,-0.9459456564746797,-0.3891325885772705,0.3054308593273163,-0.0691147074103355,-0.200863778591156,walking,2026-03-04_14-00-18
1772632821898842600,3.064842529296875,1.0948073074258864,-0.962544470706582,-0.4590004900515079,0.3285513818264007,-0.0715320631861686,-0.1727064400911331,walking,2026-03-04_14-00-18
1772632821908791800,3.074791748046875,1.086178595290333,-1.0052158838279546,-0.4562953227460384,0.3413526117801666,-0.1114724949002265,-0.1513538360595703,walking,2026-03-04_14-00-18
1772632821918740700,3.08474072265625,1.024224827941507,-1.007965767057985,-0.3984335008859634,0.3501849770545959,-0.1641871035099029,-0.1460658609867096,walking,2026-03-04_14-00-18
1772632821928689700,3.094689697265625,0.9244284558672458,-1.023822384620458,-0.4206768968760967,0.3570513129234314,-0.2057045400142669,-0.1512676775455474,walking,2026-03-04_14-00-18
1772632821938639600,3.1046396484375,0.7933990334004163,-1.0176491028130057,-0.5620429313749075,0.3644649982452392,-0.2141342461109161,-0.1545931547880172,walking,2026-03-04_14-00-18
1772632821948588500,3.114588623046875,0.7298752402558922,-0.9505867602787912,-0.7699187890917062,0.3772797584533691,-0.1888304650783538,-0.1524919867515564,walking,2026-03-04_14-00-18
1772632821958537500,3.124537353515625,0.7159410421233624,-0.822664436981827,-0.9700701900362968,0.3838196992874145,-0.1346846669912338,-0.1430915594100952,walking,2026-03-04_14-00-18
1772632821968487000,3.13448681640625,0.7319289579153061,-0.7154439793214201,-1.0381710818380117,0.3626399338245392,-0.1008999049663543,-0.1288614273071289,walking,2026-03-04_14-00-18
1772632821978435800,3.144435791015625,0.7228510407075286,-0.6359513404116034,-0.9138444449454546,0.3007102608680725,-0.1301906704902649,-0.1230027377605438,walking,2026-03-04_14-00-18
1772632821988384800,3.154384765625,0.5901765544474125,-0.59197162117064,-0.7155600069165229,0.2191970497369766,-0.181820198893547,-0.1418519020080566,walking,2026-03-04_14-00-18
1772632821998333700,3.164333740234375,0.3636610973861068,-0.519583991960436,-0.6984440369427204,0.1433824449777603,-0.2433490604162216,-0.1769896447658538,walking,2026-03-04_14-00-18
1772632822008283600,3.17428369140625,0.1468140159727074,-0.3450328962184488,-0.9169815739274024,0.0988107472658157,-0.275675505399704,-0.2051137089729309,walking,2026-03-04_14-00-18
1772632822018232600,3.184232666015625,0.0142827193092554,-0.0334884281039237,-1.2502987517803907,0.0853724330663681,-0.2549547851085663,-0.2173019349575042,walking,2026-03-04_14-00-18
1772632822028181500,3.194181396484375,-0.0147034654719755,0.308154971806705,-1.5543541793137787,0.1042114645242691,-0.1676961481571197,-0.2090202420949936,walking,2026-03-04_14-00-18
1772632822038130700,3.204130615234375,0.0269177262104116,0.6050261869244277,-1.769271187713742,0.1692754179239273,-0.0299771595746278,-0.1781382262706756,walking,2026-03-04_14-00-18
1772632822048079600,3.21407958984375,0.0338755459916777,0.8654390182167291,-1.9294559044510124,0.2682915329933166,0.1341875791549682,-0.1358332186937332,walking,2026-03-04_14-00-18
1772632822058028800,3.22402880859375,0.0866112570096738,1.1249943558968605,-1.7583219236761332,0.3694453239440918,0.2409041821956634,-0.0896550565958023,walking,2026-03-04_14-00-18
1772632822067978500,3.233978515625,0.221706924268417,1.272920625694096,-1.228052433180809,0.4424573183059692,0.2686542272567749,-0.0460305027663707,walking,2026-03-04_14-00-18
1772632822077927700,3.243927734375,0.3837476076032966,1.287955551610142,-0.472376104453206,0.4774544537067413,0.2335385680198669,-0.0142129156738519,walking,2026-03-04_14-00-18
1772632822087876600,3.253876708984375,0.4386651927050203,1.263022185883671,0.2499076577603816,0.4808884859085083,0.173701599240303,0.016331274062395,walking,2026-03-04_14-00-18
1772632822097825800,3.26382568359375,0.3838127087287604,1.271764149135351,0.7717606175661087,0.4663364589214325,0.1152412146329879,0.0301908962428569,walking,2026-03-04_14-00-18
1772632822107774700,3.273774658203125,0.3063225687477737,1.2709057787403464,1.151040505170822,0.43503537774086,0.0564887374639511,0.0325907096266746,walking,2026-03-04_14-00-18
1772632822117723600,3.2837236328125,0.17181001687292,1.2974566626660524,1.3956822052270172,0.4012465476989746,-0.0009220878127962,0.0293102264404296,walking,2026-03-04_14-00-18
1772632822127672600,3.293672607421875,0.0970206968158483,1.326531073720008,1.5067489630520343,0.3779032230377197,-0.0282065067440271,0.036589328199625,walking,2026-03-04_14-00-18
1772632822137622500,3.30362255859375,0.0350817982425913,1.360413323447108,1.4064116890341043,0.3730463981628418,-0.010665064677596,0.04086609557271,walking,2026-03-04_14-00-18
1772632822147571500,3.313571533203125,-0.1485467032505199,1.4083764132358132,1.3076280741989612,0.3632658421993255,0.0180368795990943,0.0303640495985746,walking,2026-03-04_14-00-18
1772632822157521000,3.32352099609375,-0.3547973709182813,1.39616692000404,1.3355816645294427,0.3298122882843017,0.0273132026195526,0.0006247973069548,walking,2026-03-04_14-00-18
1772632822167469800,3.3334697265625,-0.4972782713238149,1.2785842044137417,1.4385767595797776,0.2723804116249084,0.0145649164915084,-0.0411458164453506,walking,2026-03-04_14-00-18
1772632822177418800,3.343418701171875,-0.6319821445196867,1.1601561240404843,1.5516186168700457,0.1868950873613357,-0.002132570836693,-0.0999116599559784,walking,2026-03-04_14-00-18
1772632822187367700,3.35336767578125,-0.8395576310504227,1.1237900946736334,1.621215884709358,0.0899234861135482,-0.0141789987683296,-0.1560199111700058,walking,2026-03-04_14-00-18
1772632822197317600,3.363317626953125,-0.898073167578876,1.0382562759034335,1.5880828459143637,-0.016071118414402,-0.0327574759721756,-0.2084109485149383,walking,2026-03-04_14-00-18
1772632822207266600,3.3732666015625,-0.9248619519136846,0.9824076935619116,1.465361306130886,-0.1208299398422241,-0.0412258729338645,-0.2607362866401672,walking,2026-03-04_14-00-18
1772632822217215700,3.3832158203125,-0.9585271978892386,0.960568640588969,1.2705921827465294,-0.214422732591629,-0.0259108319878578,-0.2975970804691314,walking,2026-03-04_14-00-18
1772632822227164700,3.39316455078125,-0.9158319655008612,0.9221079770304262,1.015419736325741,-0.3012159168720245,0.0044186227023601,-0.3232578039169311,walking,2026-03-04_14-00-18
1772632822237113600,3.403113525390625,-0.8966454728633165,0.8856928478248417,0.7512783860296011,-0.3729169964790344,0.0364002585411071,-0.3379991948604584,walking,2026-03-04_14-00-18
1772632822247062800,3.413062744140625,-0.9048059829652308,0.8848974596634507,0.4714893847465515,-0.4063650071620941,0.0817283615469932,-0.3378021121025085,walking,2026-03-04_14-00-18
1772632822257011700,3.42301171875,-0.8390111761488019,0.8840594014041125,0.1725911938458681,-0.4091061949729919,0.1213721707463264,-0.3188276290893554,walking,2026-03-04_14-00-18
1772632822266961700,3.432961669921875,-0.7003159682944416,0.879735400725156,-0.0646978053599596,-0.3880240023136139,0.122457779943943,-0.2732976078987121,walking,2026-03-04_14-00-18
1772632822276910800,3.442910888671875,-0.4756954216016456,0.8266460539638996,-0.1572849036425352,-0.3501791357994079,0.0899935737252235,-0.2073827683925628,walking,2026-03-04_14-00-18
1772632822286859800,3.45285986328125,-0.2535728292044252,0.6847926743395626,-0.209242469894886,-0.3081865012645721,0.0361158698797225,-0.1340881139039993,walking,2026-03-04_14-00-18
1772632822296808700,3.46280859375,-0.1276915102157741,0.5230656965963543,-0.1599813031196594,-0.2828414738178253,-0.03858233243227,-0.068748265504837,walking,2026-03-04_14-00-18
1772632822306757600,3.472757568359375,-0.1414478310307488,0.2999623130008578,-0.0335837051719427,-0.2745706140995025,-0.1074385792016983,-0.027843665331602,walking,2026-03-04_14-00-18
1772632822316706600,3.48270654296875,-0.1989830878175795,0.0558573501698672,0.0441810870319604,-0.2780084908008575,-0.152566909790039,-0.0128298280760645,walking,2026-03-04_14-00-18
1772632822326655700,3.49265576171875,-0.2497939682528376,-0.1272485156886279,0.0522118332743644,-0.284242570400238,-0.1640852093696594,-0.0069631235674023,walking,2026-03-04_14-00-18
1772632822336605700,3.502605712890625,-0.2798906715592369,-0.2149836438953876,-0.0145259534806013,-0.2797591388225555,-0.1469818651676178,-0.0009526354260742,walking,2026-03-04_14-00-18
1772632822346555000,3.512554931640625,-0.2397153495699167,-0.217350519157201,-0.0956014776676893,-0.2555316388607025,-0.1322885155677795,0.0086523741483688,walking,2026-03-04_14-00-18
1772632822356503800,3.52250390625,-0.0806898858703672,-0.1740820169255137,-0.1827764877736568,-0.2060389071702957,-0.1162642836570739,0.0334511958062648,walking,2026-03-04_14-00-18
1772632822366452700,3.53245263671875,0.0720434919476509,-0.0927491569764912,-0.2543862644791603,-0.1471784263849258,-0.1052435785531997,0.0669099539518356,walking,2026-03-04_14-00-18
1772632822376401700,3.542401611328125,0.168882512053661,0.0181365451931953,-0.2098912891924381,-0.0998402088880539,-0.1215703561902046,0.1070821434259414,walking,2026-03-04_14-00-18
1772632822386350600,3.5523505859375,0.2427961817873641,0.0592731499627232,-0.019985387930274,-0.0760715678334236,-0.1463656574487686,0.135736808180809,walking,2026-03-04_14-00-18
1772632822396300500,3.562300537109375,0.2393114814767613,0.0249585001677274,0.1703758558839559,-0.0790995880961418,-0.161469504237175,0.1543619036674499,walking,2026-03-04_14-00-18
1772632822406249700,3.572249755859375,0.1749936518777161,-0.0407481899738311,0.3081336367577314,-0.1005436852574348,-0.1569371968507766,0.1645123660564422,walking,2026-03-04_14-00-18
1772632822416198700,3.58219873046875,0.0201441952211782,-0.0667775342434644,0.416118210658431,-0.137600764632225,-0.1241901516914367,0.1558336615562439,walking,2026-03-04_14-00-18
1772632822426147600,3.592147705078125,-0.0980343308378011,-0.1055539857529103,0.4367155930072069,-0.1800587177276611,-0.0809461325407028,0.1435996145009994,walking,2026-03-04_14-00-18
1772632822436096800,3.6020966796875,-0.1614849856808781,-0.1348503689944744,0.4295318189829588,-0.2241936773061752,-0.0319660678505897,0.1287407726049423,walking,2026-03-04_14-00-18
1772632822446045700,3.612045654296875,-0.2208070710855536,-0.1271082304351031,0.4103595010012388,-0.2605034410953522,0.0037173212040215,0.120114229619503,walking,2026-03-04_14-00-18
1772632822455994600,3.62199462890625,-0.1963699096444994,-0.0873196792736649,0.3863946880459785,-0.284307062625885,0.0021580399479717,0.1187730655074119,walking,2026-03-04_14-00-18
1772632822465944800,3.63194482421875,-0.1106056979182176,-0.0314816183261573,0.3417278633236885,-0.2920970916748047,-0.0083207748830318,0.1327791661024093,walking,2026-03-04_14-00-18
1772632822475893800,3.641893798828125,-0.0192085948714986,0.0401204134643077,0.2327484331667423,-0.2813834547996521,-0.0126774404197931,0.1637282967567443,walking,2026-03-04_14-00-18
1772632822485842700,3.6518427734375,0.0170573899206705,0.0960851695314049,0.108494861510396,-0.2655866146087646,-0.0131166260689497,0.201309934258461,walking,2026-03-04_14-00-18
1772632822495791600,3.66179150390625,0.0294150411851704,0.1232416181348264,0.0754278736889362,-0.2459737658500671,-0.0049015739932656,0.2394181787967682,walking,2026-03-04_14-00-18
1772632822505740500,3.671740478515625,0.0594078639919869,0.070833677766472,0.0370399831056594,-0.2285834997892379,0.0207289401441812,0.2734331488609314,walking,2026-03-04_14-00-18
1772632822515689700,3.681689697265625,0.0182843196334317,-0.0405957758910954,-0.0088011460930109,-0.2118684351444244,0.0578320994973182,0.293860375881195,walking,2026-03-04_14-00-18
1772632822525638700,3.691638671875,-0.0890000335760414,-0.112841220151633,0.0042629181414842,-0.2021072804927826,0.0907313525676727,0.3075110614299774,walking,2026-03-04_14-00-18
1772632822535588900,3.7015888671875,-0.0835269176608882,-0.2134964740775525,0.0824818838536739,-0.1976960301399231,0.1142529249191284,0.3196960687637329,walking,2026-03-04_14-00-18
1772632822545537800,3.711537841796875,-0.054321263176389,-0.3014721330419183,0.1810521481990814,-0.1937430948019027,0.1271202564239502,0.3316635191440582,walking,2026-03-04_14-00-18
1772632822555486700,3.72148681640625,-0.022948932177294,-0.3364300491765141,0.2752946124732494,-0.185895025730133,0.1319642812013626,0.342957466840744,walking,2026-03-04_14-00-18
1772632822565435600,3.731435546875,0.0101707356794737,-0.3458385135129094,0.3519645951777696,-0.1743915230035781,0.1371048986911773,0.3572277426719665,walking,2026-03-04_14-00-18
1772632822575384600,3.741384521484375,0.0770535021293908,-0.3324269510149955,0.4106996927410364,-0.1558995991945266,0.1324068158864975,0.3742527961730957,walking,2026-03-04_14-00-18
1772632822585333500,3.75133349609375,0.1618817847124301,-0.3260257056705653,0.4459457781672477,-0.1401025354862213,0.126184344291687,0.3998588323593139,walking,2026-03-04_14-00-18
1772632822595283700,3.76128369140625,0.1943179820833727,-0.2958800121232867,0.5139227513283491,-0.1286903470754623,0.1168145388364791,0.4220751821994781,walking,2026-03-04_14-00-18
1772632822605232600,3.771232666015625,0.217147781393025,-0.3020847119823098,0.5253220972210169,-0.118337482213974,0.1028205156326294,0.4474568367004394,walking,2026-03-04_14-00-18
1772632822615181600,3.781181640625,0.2066739528474397,-0.3168647863544523,0.5149696300327777,-0.1156543493270874,0.0804379805922508,0.4630536437034607,walking,2026-03-04_14-00-18
1772632822625130800,3.791130859375,0.140601607731264,-0.3265006297059357,0.4784656534999609,-0.1161131709814071,0.0721646472811698,0.4741970300674438,walking,2026-03-04_14-00-18
1772632822635079700,3.80107958984375,0.0053496539322659,-0.3475818500488996,0.3767471542567014,-0.1220371052622795,0.0758912041783332,0.475236713886261,walking,2026-03-04_14-00-18
1772632822645028600,3.811028564453125,-0.1644644398830831,-0.3608225860245526,0.268120775321126,-0.1372135877609253,0.0795663893222808,0.4627159535884857,walking,2026-03-04_14-00-18
1772632822654977500,3.8209775390625,-0.3301332505872473,-0.4118018087640404,0.1770750612616539,-0.1588339358568191,0.0968921110033989,0.4421859085559845,walking,2026-03-04_14-00-18
1772632822664927700,3.830927734375,-0.4716142532352357,-0.4777195113077759,0.0798059426426887,-0.1777050048112869,0.1195013746619224,0.419086754322052,walking,2026-03-04_14-00-18
1772632822674876700,3.840876708984375,-0.5165916052114218,-0.4693123329684138,-0.0774842216968536,-0.1887472718954086,0.1350888609886169,0.4095316231250763,walking,2026-03-04_14-00-18
1772632822684825600,3.85082568359375,-0.5138546545282006,-0.4705453818947076,-0.2518225514709949,-0.1868640631437301,0.1342249363660812,0.4097498655319214,walking,2026-03-04_14-00-18
1772632822694774500,3.8607744140625,-0.509761101604253,-0.4482772898547351,-0.4550672422558069,-0.1675750464200973,0.1314850896596908,0.4214209020137787,walking,2026-03-04_14-00-18
1772632822704723700,3.8707236328125,-0.5369313230047003,-0.4355300364844501,-0.6775882959187031,-0.130455881357193,0.1352699249982834,0.4289096295833587,walking,2026-03-04_14-00-18
1772632822714672600,3.880672607421875,-0.6291723477959632,-0.4663983452178538,-0.9026847530275582,-0.0888450592756271,0.1481820046901703,0.4342908263206482,walking,2026-03-04_14-00-18
1772632822724621800,3.890621826171875,-0.6902531317025422,-0.5051316882379353,-1.0339999336332082,-0.0439366623759269,0.1620791405439376,0.4430163502693176,walking,2026-03-04_14-00-18
1772632822734571800,3.90057177734375,-0.7549758523080498,-0.5661626416534185,-1.0797235739320517,0.0060412823222577,0.2019160389900207,0.455541729927063,walking,2026-03-04_14-00-18
1772632822744520700,3.910520751953125,-0.7769278641361743,-0.6566502834387123,-1.1313058771312237,0.0627240315079689,0.2500318586826324,0.4755321443080902,walking,2026-03-04_14-00-18
1772632822754469600,3.9204697265625,-0.7806910160619766,-0.7292734749704599,-1.1317571280300616,0.1149219945073127,0.2636307775974273,0.497136503458023,walking,2026-03-04_14-00-18
1772632822764418600,3.93041845703125,-0.7365103674214333,-0.8118496129788458,-0.9663187285482884,0.1570684611797332,0.2277636677026748,0.5139342546463013,walking,2026-03-04_14-00-18
1772632822774367500,3.940367431640625,-0.7323926299043,-0.9423239588461816,-0.7197896073102951,0.1837914288043975,0.1571371704339981,0.5199492573738098,walking,2026-03-04_14-00-18
1772632822784316400,3.95031640625,-0.7932504187099635,-1.0654125783763826,-0.5533189421713351,0.1974243223667144,0.0744600370526313,0.5003477931022644,walking,2026-03-04_14-00-18
1772632822794266400,3.960266357421875,-0.9140708010472356,-1.1571152950398624,-0.4963830029845237,0.1993788182735443,0.0146720744669437,0.458956629037857,walking,2026-03-04_14-00-18
1772632822804215600,3.970215576171875,-1.0116485472239554,-1.2342954192236064,-0.546525044247508,0.1879955530166626,-0.0099094118922948,0.4074030816555023,walking,2026-03-04_14-00-18
1772632822814164500,3.98016455078125,-1.0797096915371716,-1.2265301920495926,-0.6171405492186546,0.1571939587593078,-0.0155491875484585,0.3499062359333038,walking,2026-03-04_14-00-18
1772632822824113400,3.990113525390625,-1.1256247627548872,-1.150976353893429,-0.6321750367432832,0.1177256256341934,-0.0200778637081384,0.299647182226181,walking,2026-03-04_14-00-18
1772632822834062300,4.000062255859375,-1.067615495248139,-1.0233267100580037,-0.6619926673799753,0.0614445097744464,-0.0396121479570865,0.2499656230211258,walking,2026-03-04_14-00-18
1772632822844011300,4.01001123046875,-0.9607483080048114,-0.8895316953353584,-0.6973989118039607,0.003567557549104,-0.09451874345541,0.177679032087326,walking,2026-03-04_14-00-18
1772632822853960200,4.019960205078125,-0.9569099719509482,-0.713375940875709,-0.8118681715488434,-0.039031833410263,-0.1366419643163681,0.0965820550918579,walking,2026-03-04_14-00-18
1772632822863910400,4.029910400390625,-1.0254406334720552,-0.3448337203845381,-1.0673293717831374,-0.0624662637710571,-0.1396485567092895,0.035310860723257,walking,2026-03-04_14-00-18
1772632822873859300,4.039859375,-1.0465635009996592,0.1101956740789115,-1.4136030618429185,-0.0552514940500259,-0.0895177274942398,0.011290481314063,walking,2026-03-04_14-00-18
1772632822883808300,4.049808349609375,-0.8989994155783205,0.5490343967199325,-1.7708201707214115,-0.020119747146964,0.0100587103515863,0.0166810248047113,walking,2026-03-04_14-00-18
1772632822893757400,4.05975732421875,-0.732910077907145,0.917633023573458,-1.9883961691975596,0.0319029726088047,0.1177462935447692,0.048238418996334,walking,2026-03-04_14-00-18
1772632822903706400,4.069706298828125,-0.5603918031670153,1.1672077961176632,-1.9756798954874275,0.1099444404244422,0.2087143510580063,0.1085042729973793,walking,2026-03-04_14-00-18
1772632822913655300,4.0796552734375,-0.3051292673099786,1.314322749532014,-1.7905396011918782,0.2019571959972381,0.2518032193183899,0.183849886059761,walking,2026-03-04_14-00-18
1772632822923604500,4.0896044921875,-0.1259441185591742,1.399783795326948,-1.4240022907823324,0.2965967655181885,0.2476829588413238,0.2589477598667145,walking,2026-03-04_14-00-18
1772632822933554400,4.099554443359375,-0.0469892763204872,1.3366238670587538,-0.9571499181866644,0.3843908011913299,0.2011061459779739,0.3315032124519348,walking,2026-03-04_14-00-18
1772632822943503400,4.10950341796875,0.0061808805920183,1.1400376112498345,-0.4386439307212829,0.4499383568763733,0.1371610462665558,0.3926644027233124,walking,2026-03-04_14-00-18
1772632822953452300,4.119452392578125,-0.0317255831498652,0.8694248729825019,0.0420037429928779,0.4882183670997619,0.056135170161724,0.4211783409118652,walking,2026-03-04_14-00-18
1772632822963401200,4.129401123046875,-0.2032233192032203,0.5825397759586572,0.4850871174663305,0.5014373660087585,-0.0194147676229476,0.4153036177158355,walking,2026-03-04_14-00-18
1772632822973350400,4.139350341796875,-0.3578605213485658,0.2380553074032068,0.7988000156611204,0.4852165579795837,-0.0641785115003585,0.3658625781536102,walking,2026-03-04_14-00-18
1772632822983299600,4.149299560546875,-0.5665777252603322,-0.0304638195857405,1.0177800357162952,0.4409947693347931,-0.0790446996688842,0.2894919812679291,walking,2026-03-04_14-00-18
1772632822993248500,4.15924853515625,-0.677585154113546,-0.171172997611016,1.1740279975265264,0.3818038702011108,-0.0639834553003311,0.2180329859256744,walking,2026-03-04_14-00-18
1772632823003198500,4.169198486328125,-0.6472912842672318,-0.2365495790153741,1.2711129917502402,0.3113588690757751,-0.0316410660743713,0.1521312594413757,walking,2026-03-04_14-00-18
1772632823013147400,4.1791474609375,-0.6175997642282396,-0.2003486770823598,1.3122025425076485,0.2481545805931091,0.0154795758426189,0.0773017629981041,walking,2026-03-04_14-00-18
1772632823023096300,4.189096435546875,-0.5602135970558971,-0.0954410264089703,1.3501643166333437,0.1960251331329345,0.0487668886780738,0.0003711730241775,walking,2026-03-04_14-00-18
1772632823033045200,4.199045166015625,-0.3979510511312633,0.0952564636223018,1.372284378504753,0.1556854248046875,0.047963947057724,-0.0528182759881019,walking,2026-03-04_14-00-18
1772632823042994200,4.208994140625,-0.1213844459608197,0.3321498876392841,1.3821458473056554,0.124156080186367,0.0098045915365219,-0.0827710330486297,walking,2026-03-04_14-00-18
1772632823052943400,4.218943359375,0.1345517513740807,0.5570902774035931,1.36074591640234,0.0965873003005981,-0.0560961291193962,-0.099296748638153,walking,2026-03-04_14-00-18
1772632823062893300,4.228893310546875,0.3463674327578395,0.7652038893990218,1.3085171319931743,0.077616199851036,-0.1285266578197479,-0.1050295531749725,walking,2026-03-04_14-00-18
1772632823072842200,4.23884228515625,0.4874180080993101,0.9290404066421092,1.1776122857540845,0.0571234412491321,-0.1804250180721283,-0.1082900613546371,walking,2026-03-04_14-00-18
1772632823082791400,4.24879150390625,0.512064738904126,1.080967582643777,1.0032646036297082,0.0309239588677883,-0.1945969313383102,-0.1159805282950401,walking,2026-03-04_14-00-18
1772632823092740400,4.258740234375,0.5027095756575465,1.1854586153402924,0.8474602939337491,-0.0064910561777651,-0.1780887991189956,-0.1192037537693977,walking,2026-03-04_14-00-18
1772632823102689300,4.268689208984375,0.4927522817993536,1.2425352781720458,0.7130372104406356,-0.0552616529166698,-0.1482873558998108,-0.1168202459812164,walking,2026-03-04_14-00-18
1772632823112638500,4.278638427734375,0.4988345608551054,1.2227195477202537,0.6418085420072078,-0.1123971194028854,-0.1198210939764976,-0.1117216274142265,walking,2026-03-04_14-00-18
1772632823122587400,4.28858740234375,0.4693849232805892,1.1886052428029477,0.5584639038443565,-0.1714124828577041,-0.0895839408040046,-0.1101381331682205,walking,2026-03-04_14-00-18
1772632823132537300,4.298537353515625,0.4158884204905479,1.1151833021089437,0.4335305332303047,-0.219245508313179,-0.0581487864255905,-0.1165550202131271,walking,2026-03-04_14-00-18
1772632823142486300,4.308486328125,0.3401790264464914,1.037504873014241,0.2671744343817234,-0.2601304352283478,-0.0467379763722419,-0.1252454072237014,walking,2026-03-04_14-00-18
1772632823152435200,4.318435302734375,0.2735042949903756,0.913090850099176,0.1281751290142536,-0.2854400277137756,-0.0600631050765514,-0.1476370096206665,walking,2026-03-04_14-00-18
1772632823162384400,4.32838427734375,0.2234089972122572,0.7837658203974366,-7.48188018798e-05,-0.304315984249115,-0.1006933525204658,-0.1786385923624038,walking,2026-03-04_14-00-18
1772632823172333600,4.33833349609375,0.159165675887838,0.6813457487560808,-0.169879596799612,-0.3190009295940399,-0.1455796062946319,-0.2075892835855484,walking,2026-03-04_14-00-18
1772632823182282500,4.348282470703125,0.1029872040048241,0.5948761104404926,-0.3573334287345409,-0.3356959521770477,-0.1914574205875396,-0.2305615693330764,walking,2026-03-04_14-00-18
1772632823192231400,4.3582314453125,0.0744365793629549,0.5330706655211747,-0.5267103367090225,-0.3527345657348633,-0.2085434645414352,-0.2464116364717483,walking,2026-03-04_14-00-18
1772632823202181400,4.368181396484375,0.080893244689051,0.4625378703974187,-0.7298001291930675,-0.3482674956321716,-0.156656801700592,-0.2466862499713897,walking,2026-03-04_14-00-18
1772632823212130300,4.37813037109375,0.0781092582600191,0.4217744828544557,-1.0899813485741614,-0.3135095238685608,-0.0160392336547374,-0.227461963891983,walking,2026-03-04_14-00-18
1772632823222079200,4.388079345703125,0.0291523168620653,0.4869266078531741,-1.3614198701411484,-0.2509731650352478,0.1571971774101257,-0.1796584129333496,walking,2026-03-04_14-00-18
1772632823232028400,4.3980283203125,0.053225047171209,0.5183135336332023,-1.4243430670440196,-0.1701920479536056,0.2888731956481933,-0.122852124273777,walking,2026-03-04_14-00-18
1772632823241977300,4.407977294921875,0.1417597830567508,0.4563374083220958,-1.200362462222576,-0.0853426083922386,0.3382185697555542,-0.0793293192982673,walking,2026-03-04_14-00-18
1772632823251926500,4.417926513671875,0.1970723588254302,0.3373321125827729,-0.7373346163511276,-0.0016391887329518,0.3112324774265289,-0.0528833381831646,walking,2026-03-04_14-00-18
1772632823261875500,4.42787548828125,0.2396742503745481,0.2076839884065091,-0.1875426792621612,0.0585382841527462,0.2166500836610794,-0.0418258868157863,walking,2026-03-04_14-00-18
1772632823271825400,4.437825439453125,0.253908235171251,0.09842559517771,0.3723404437303543,0.0919633582234382,0.0968741402029991,-0.0446315258741378,walking,2026-03-04_14-00-18
1772632823281774300,4.4477744140625,0.2415311668202281,-0.0050106677688658,0.7820067017704248,0.1061099022626876,-0.0018879559356719,-0.0634661391377449,walking,2026-03-04_14-00-18
1772632823291723500,4.4577236328125,0.1954563384635373,-0.0689183456644415,1.011805052959919,0.0974887162446975,-0.0896497666835784,-0.0967002660036087,walking,2026-03-04_14-00-18
1772632823301672400,4.46767236328125,0.2070706422811374,-0.0722697019189596,1.1405828240424394,0.0756093561649322,-0.1608565896749496,-0.1206598728895187,walking,2026-03-04_14-00-18
1772632823311621400,4.477621337890625,0.3179823922075331,-0.0346196240909397,1.096264374366403,0.0566372647881507,-0.1790041625499725,-0.1242444887757301,walking,2026-03-04_14-00-18
1772632823321570300,4.4875703125,0.3386206545559689,0.0714759211927652,0.9285428323835134,0.0284571424126625,-0.1561896055936813,-0.1194821819663047,walking,2026-03-04_14-00-18
1772632823331519500,4.49751953125,0.2470463865777477,0.1725657671436667,0.8160282138377427,-0.008876116015017,-0.1190670132637023,-0.1193455681204795,walking,2026-03-04_14-00-18
1772632823341469200,4.50746923828125,0.1423707910945638,0.1748530012980103,0.7252624857634306,-0.047605738043785,-0.0814714431762695,-0.1249724254012107,walking,2026-03-04_14-00-18
1772632823351418400,4.51741845703125,0.0261988921502605,0.1189271159365773,0.6611328356802463,-0.0752227157354354,-0.0498035289347171,-0.1446265578269958,walking,2026-03-04_14-00-18
1772632823361367600,4.527367431640625,-0.0931373160438612,0.0640567309774458,0.5960878243178129,-0.0931638479232788,-0.0291740261018276,-0.1776011288166046,walking,2026-03-04_14-00-18
1772632823371316500,4.53731640625,-0.2398331307306885,-0.0005180325247347,0.5608581055045128,-0.0992094874382019,-0.024949986487627,-0.2280328869819641,walking,2026-03-04_14-00-18
1772632823381265400,4.547265380859375,-0.447612542335689,-0.0402554380208253,0.5005915605902671,-0.0942748412489891,-0.0110229710116982,-0.2976025640964508,walking,2026-03-04_14-00-18
1772632823391214300,4.55721435546875,-0.563689310342446,-0.0685312460429966,0.4333551766633987,-0.0829297751188278,0.0118847414851188,-0.3754523396492004,walking,2026-03-04_14-00-18
1772632823401164300,4.567164306640625,-0.568303233878687,-0.1112532203078269,0.4145364944249391,-0.0785669609904289,0.0302407331764698,-0.448740690946579,walking,2026-03-04_14-00-18
1772632823411113200,4.57711328125,-0.4361910211438313,-0.1523826646842062,0.4897106856137513,-0.0908734276890754,0.0333752743899822,-0.4988840222358703,walking,2026-03-04_14-00-18
1772632823421062400,4.5870625,-0.1900612014217302,-0.1967484606333076,0.5886392618775368,-0.1130169555544853,0.0367560163140296,-0.5205235481262207,walking,2026-03-04_14-00-18
1772632823431011300,4.59701123046875,-0.0028513708431273,-0.2314649692274629,0.6541460455328225,-0.1399340480566024,0.0219363253563642,-0.5266120433807373,walking,2026-03-04_14-00-18
1772632823440960500,4.60696044921875,0.1456085674393922,-0.2646452081650495,0.6941115606963634,-0.1678349673748016,-0.00770796649158,-0.5268705487251282,walking,2026-03-04_14-00-18
1772632823450909400,4.616909423828125,0.1513295389020815,-0.333909736918658,0.6516939762055873,-0.1929318010807037,-0.0324695035815238,-0.544583797454834,walking,2026-03-04_14-00-18
1772632823460858400,4.6268583984375,0.0285073517557233,-0.4536426162801683,0.4981815768390893,-0.2098695188760757,-0.0439102612435817,-0.582486093044281,walking,2026-03-04_14-00-18
1772632823470807300,4.636807373046875,-0.1798116831513121,-0.563480709093064,0.2426093174457549,-0.2146637439727783,-0.0352267585694789,-0.6291974186897278,walking,2026-03-04_14-00-18
1772632823480757500,4.646757568359375,-0.3019048253707587,-0.6176045134685934,-0.0080365914613008,-0.2054795622825622,-0.0115243606269359,-0.6639828085899353,walking,2026-03-04_14-00-18
1772632823490706400,4.65670654296875,-0.2441534416152164,-0.6485533400923014,-0.2370861701101064,-0.180782213807106,0.0133791249245405,-0.6709067821502686,walking,2026-03-04_14-00-18
1772632823500655400,4.6666552734375,-0.0728280664540827,-0.6840668442830443,-0.3907078750699758,-0.1440239995718002,0.033668752759695,-0.6527801156044006,walking,2026-03-04_14-00-18
1772632823510604300,4.676604248046875,0.1088578130712732,-0.7231351183459163,-0.4802373393476009,-0.0989039242267608,0.0375076979398727,-0.6250419616699219,walking,2026-03-04_14-00-18
1772632823520553500,4.686553466796875,0.2838968019280583,-0.7523211730808019,-0.4636854329973459,-0.057133674621582,0.0123324040323495,-0.594012975692749,walking,2026-03-04_14-00-18
1772632823530502400,4.69650244140625,0.4121046641681343,-0.8261872042804956,-0.3399035705059766,-0.0222172327339649,-0.0400751419365406,-0.5666947960853577,walking,2026-03-04_14-00-18
1772632823540452600,4.70645263671875,0.5184785514691844,-0.9199170428574084,-0.2105482917964458,-0.0002542198635637,-0.1130004897713661,-0.5518022775650024,walking,2026-03-04_14-00-18
1772632823550401500,4.716401611328125,0.5571791247308254,-0.9906848157808184,-0.133713473919034,0.018459279090166,-0.1654003262519836,-0.5481622815132141,walking,2026-03-04_14-00-18
1772632823560350500,4.7263505859375,0.5489061672303825,-1.0256287033900615,-0.1581201854228973,0.0406189933419227,-0.1973525732755661,-0.5536794066429138,walking,2026-03-04_14-00-18
1772632823570299400,4.73629931640625,0.5933910960471257,-0.9927766734935344,-0.2696405322343111,0.0716847628355026,-0.2046190053224563,-0.5521182417869568,walking,2026-03-04_14-00-18
1772632823580248300,4.746248291015625,0.7416597860738635,-0.936152722865343,-0.409074137365818,0.1037373021245002,-0.1837045550346374,-0.5382606387138367,walking,2026-03-04_14-00-18
1772632823590197200,4.756197265625,0.908441855249554,-0.8345800618335604,-0.4624041610151529,0.130088210105896,-0.1603845804929733,-0.5005500316619873,walking,2026-03-04_14-00-18
1772632823600146200,4.766146240234375,1.1352052226573228,-0.7812181817412376,-0.4566162252634763,0.1466317921876907,-0.1385526210069656,-0.4505098164081573,walking,2026-03-04_14-00-18
1772632823610096400,4.776096435546875,1.3309620419047772,-0.8010502788059413,-0.4200678250670432,0.1465037018060684,-0.1280408650636673,-0.4148191809654236,walking,2026-03-04_14-00-18
1772632823620045300,4.78604541015625,1.3581465475589036,-0.8113060076214372,-0.3654045069873333,0.1390601992607116,-0.1271701604127884,-0.3891743421554565,walking,2026-03-04_14-00-18
1772632823629994500,4.795994384765625,1.4122732745438813,-0.8513077631421386,-0.3233317904114723,0.1293734759092331,-0.1387077718973159,-0.3632175624370575,walking,2026-03-04_14-00-18
1772632823639943400,4.805943359375,1.5260264949738978,-0.8880550469115376,-0.3713140232920646,0.115581601858139,-0.1379089951515197,-0.3411468267440796,walking,2026-03-04_14-00-18
1772632823649892400,4.815892333984375,1.5261775938823818,-0.8956037087254226,-0.4428711930274963,0.0926267504692077,-0.1231585443019867,-0.3220945596694946,walking,2026-03-04_14-00-18
1772632823659841300,4.82584130859375,1.4803154218956829,-0.8486445352822541,-0.4971949038892984,0.0706805884838104,-0.1318618059158325,-0.2946347594261169,walking,2026-03-04_14-00-18
1772632823669790200,4.835790283203125,1.494511412769556,-0.799507579408586,-0.6141133103519678,0.0619243867695331,-0.1411389261484146,-0.2714311778545379,walking,2026-03-04_14-00-18
1772632823679740400,4.845740478515625,1.4683065658025445,-0.7811179362371563,-0.7908785750120878,0.0750868618488311,-0.1558351069688797,-0.2547216117382049,walking,2026-03-04_14-00-18
1772632823689689300,4.855689453125,1.3930629626393318,-0.6857489521510899,-1.028026704442501,0.109260007739067,-0.1511857658624649,-0.2404369413852691,walking,2026-03-04_14-00-18
1772632823699638300,4.86563818359375,1.2825076614677906,-0.583325373378396,-1.2309089916557072,0.1432125717401504,-0.1367810070514679,-0.2226926535367965,walking,2026-03-04_14-00-18
1772632823709587500,4.87558740234375,1.1921520485643298,-0.4552633493497967,-1.3276947106719017,0.1742117702960968,-0.1117329224944114,-0.1996661573648452,walking,2026-03-04_14-00-18
1772632823719536400,4.885536376953125,1.1694286870375274,-0.3193456433847546,-1.3536410528331997,0.1936127543449401,-0.0791224539279937,-0.1675505340099334,walking,2026-03-04_14-00-18
1772632823729485300,4.8954853515625,1.1737490344546735,-0.2154854559376835,-1.2887146994143723,0.1881804317235946,-0.0553100667893886,-0.1332546025514602,walking,2026-03-04_14-00-18
1772632823739434500,4.9054345703125,1.134078264454007,-0.1252661096997559,-1.0970657538771629,0.1525243073701858,-0.0773142948746681,-0.1007819026708602,walking,2026-03-04_14-00-18
1772632823749384400,4.915384521484375,0.9899872619707136,0.0097749595612287,-0.8555477387994528,0.0900406911969184,-0.160787358880043,-0.0773410275578498,walking,2026-03-04_14-00-18
1772632823759333400,4.92533349609375,0.7522191740110517,0.1918256172783672,-0.6706739864856004,0.0127174155786633,-0.2605226635932922,-0.0804129987955093,walking,2026-03-04_14-00-18
1772632823769282300,4.9352822265625,0.3640767655149102,0.3559165476739406,-0.7337690328240394,-0.0344072170555591,-0.2984543442726135,-0.1064635068178176,walking,2026-03-04_14-00-18
1772632823779232000,4.94523193359375,-0.0071839384210295,0.5772336323745548,-1.1185217988818883,-0.0354774184525013,-0.2524465024471283,-0.1363212466239929,walking,2026-03-04_14-00-18
1772632823789181000,4.955180908203125,-0.1700258916688151,0.8523385674946009,-1.533318405547738,0.035202607512474,-0.1070996820926666,-0.1229457780718803,walking,2026-03-04_14-00-18
1772632823799129900,4.9651298828125,-0.1497213913193903,1.224475159215927,-1.836078532573581,0.140601560473442,0.0959316194057464,-0.0778512209653854,walking,2026-03-04_14-00-18
1772632823809079000,4.9750791015625,0.0451179660232737,1.4528561909534037,-1.7058844649523497,0.2634662389755249,0.2775786519050598,0.0102879637852311,walking,2026-03-04_14-00-18
1772632823819029000,4.985029052734375,0.3910541312243789,1.5041485712952911,-1.257580725482106,0.3682815432548523,0.3931549191474914,0.0941539406776428,walking,2026-03-04_14-00-18
1772632823828978200,4.994978271484375,0.5164023297170177,1.5599835635028778,-0.4919938281148672,0.4353708326816559,0.4056214392185211,0.1645863056182861,walking,2026-03-04_14-00-18
1772632823838927000,5.004927001953125,0.6322943522740155,1.4639901639081536,0.3430675874948501,0.4787592589855194,0.3498464822769165,0.2304497808218002,walking,2026-03-04_14-00-18
1772632823848876000,5.0148759765625,0.646077305367589,1.2893822234123944,0.9884434665948152,0.4920039474964142,0.2454199492931366,0.2659217715263366,walking,2026-03-04_14-00-18
1772632823858825000,5.024824951171875,0.5417279096314683,1.187882043094933,1.5320692822694777,0.4796665608882904,0.09871406853199,0.2697275876998901,walking,2026-03-04_14-00-18
1772632823868774000,5.03477392578125,0.3839844850990921,1.1139876625835894,1.9533505747795104,0.4275378584861755,-0.0719436854124069,0.25106281042099,walking,2026-03-04_14-00-18
1772632823878722800,5.044722900390625,0.22936996970959,1.0407231044083831,2.2127467763751745,0.3478440344333648,-0.2152895927429199,0.2208203375339508,walking,2026-03-04_14-00-18
1772632823888673000,5.054673095703125,0.0583672506315633,0.979414210834354,2.2508488357543945,0.252273827791214,-0.3043275773525238,0.1934265345335006,walking,2026-03-04_14-00-18
1772632823898622000,5.0646220703125,-0.1965146701437421,0.9563166822329164,2.0447043318748475,0.1566317081451416,-0.3191617429256439,0.1477780938148498,walking,2026-03-04_14-00-18
1772632823908571000,5.07457080078125,-0.5324146492978558,0.9397375956147908,1.6729110006332395,0.0714148133993148,-0.2870818376541137,0.0869914442300796,walking,2026-03-04_14-00-18
1772632823918520000,5.08452001953125,-0.7692290532618761,0.969467255707085,1.2960492800861596,0.0022880071774125,-0.2475070655345916,0.0238733403384685,walking,2026-03-04_14-00-18
1772632823928469000,5.094468994140625,-0.904316957339272,1.017159565730393,0.9584411270409822,-0.0542293302714824,-0.1989206075668335,-0.0384358428418636,walking,2026-03-04_14-00-18
1772632823938418000,5.10441796875,-1.014213356210664,1.080049152624607,0.6640759033948183,-0.1056913956999778,-0.1305702030658722,-0.0916067585349083,walking,2026-03-04_14-00-18
1772632823948367000,5.1143671875,-1.0349812728207557,1.2123977679312228,0.4158434853702783,-0.1467967629432678,-0.0645456463098526,-0.1147213950753212,walking,2026-03-04_14-00-18
1772632823958317000,5.124317138671875,-0.9548273204579948,1.3594966469936072,0.2306213580101728,-0.1810274124145507,-0.0008442779071629,-0.1028309389948844,walking,2026-03-04_14-00-18
1772632823968266000,5.134265869140625,-0.8464879417702555,1.4586711608424785,0.1127519344329834,-0.2088822126388549,0.0460755601525306,-0.0798196271061897,walking,2026-03-04_14-00-18
1772632823978215000,5.14421484375,-0.8005662946812808,1.493130333674699,0.0589700753629207,-0.2259681224822998,0.0651849433779716,-0.0597740411758422,walking,2026-03-04_14-00-18
1772632823988163800,5.154163818359375,-0.7423162772212177,1.4453807405062018,0.048422962385416,-0.229029431939125,0.0538867488503456,-0.0335251279175281,walking,2026-03-04_14-00-18
1772632823998113000,5.164113037109375,-0.6808858761593699,1.3601592025555669,0.0081043960005044,-0.2135162651538849,0.0333850495517253,0.0018677718471735,walking,2026-03-04_14-00-18
1772632824008062000,5.17406201171875,-0.6054391151068732,1.2630104954458772,-0.0364946241825819,-0.1888058632612228,0.0226154923439025,0.0396010354161262,walking,2026-03-04_14-00-18
1772632824018011100,5.18401123046875,-0.5466157912708819,1.091621516996622,-0.0857850170522928,-0.1643430590629577,0.0209225285798311,0.0727396830916404,walking,2026-03-04_14-00-18
1772632824027961000,5.193961181640625,-0.5296111727170646,0.8796221496090293,-0.0487789362162351,-0.1568116247653961,0.0143791418522596,0.0949701517820358,walking,2026-03-04_14-00-18
1772632824037910000,5.203909912109375,-0.4874373338542878,0.6106769061625004,0.0496340917408466,-0.1718335151672363,-0.0087805511429905,0.1069555431604385,walking,2026-03-04_14-00-18
1772632824047859000,5.21385888671875,-0.4631560022957622,0.3308635010905563,0.2202513551652431,-0.2099010050296783,-0.0368457399308681,0.1085361316800117,walking,2026-03-04_14-00-18
1772632824057808000,5.223807861328125,-0.4113390135578811,0.0701617698542773,0.3447679616719484,-0.251104474067688,-0.0540382899343967,0.1010374128818512,walking,2026-03-04_14-00-18
1772632824067756800,5.2337568359375,-0.381572674717009,-0.1454851602554321,0.3091840225934982,-0.2807318866252899,-0.054663598537445,0.0920055732131004,walking,2026-03-04_14-00-18
1772632824077706000,5.2437060546875,-0.381971209047921,-0.2744638607375324,0.1910807902604341,-0.2849989235401153,-0.0468819811940193,0.0785435885190963,walking,2026-03-04_14-00-18
1772632824087655200,5.2536552734375,-0.2739309046383015,-0.3314624898970127,0.0260123931348323,-0.2580988705158233,-0.0461456105113029,0.0801137834787368,walking,2026-03-04_14-00-18
1772632824097604900,5.26360498046875,-0.0771129772316664,-0.3440225501321255,-0.1246954702049493,-0.2064832001924514,-0.0463388971984386,0.0988453775644302,walking,2026-03-04_14-00-18
1772632824107554000,5.273553955078125,0.1095129342454485,-0.2983269668839872,-0.2178647522896528,-0.1491008698940277,-0.0670849233865737,0.1295063495635986,walking,2026-03-04_14-00-18
1772632824117503000,5.2835029296875,0.2494139559593051,-0.2642614695444703,-0.1875228055179119,-0.1035732254385948,-0.0960083976387977,0.1633564978837967,walking,2026-03-04_14-00-18
1772632824127452000,5.293451904296875,0.3021461598459631,-0.2870182218842208,-0.1347650287985801,-0.0725039914250373,-0.11414185911417,0.1860948354005813,walking,2026-03-04_14-00-18
1772632824138645000,5.30464501953125,0.2517881742773577,-0.3398401498809457,-0.0291208805441856,-0.0755109637975692,-0.1219490617513656,0.1937556266784668,walking,2026-03-04_14-00-18
1772632824149216000,5.315216064453125,0.1579766487663611,-0.3810213244445621,0.0455260719001293,-0.0996676385402679,-0.0942390188574791,0.1751802265644073,walking,2026-03-04_14-00-18
1772632824159165000,5.3251650390625,-0.0860484628946054,-0.4715728252463042,0.1026829603612422,-0.1323819160461425,-0.0452341958880424,0.1483009457588195,walking,2026-03-04_14-00-18
1772632824169115100,5.335115234375,-0.22536150125321,-0.4932555186137556,0.0995569372951984,-0.164245992898941,0.0017006080597639,0.1282040625810623,walking,2026-03-04_14-00-18
1772632824179064000,5.34506396484375,-0.2298370757646858,-0.4449332401238381,0.097991003152728,-0.1843485981225967,0.0275465846061706,0.1236151605844497,walking,2026-03-04_14-00-18
1772632824189013000,5.355012939453125,-0.1557711746113374,-0.3317361922718584,0.0637900428652763,-0.1863563656806945,0.0341648086905479,0.1305705457925796,walking,2026-03-04_14-00-18
1772632824198962000,5.3649619140625,-0.0724664757332298,-0.1891315558888018,-0.002623918762803,-0.1665861159563064,0.0341030210256576,0.1494579464197158,walking,2026-03-04_14-00-18
1772632824208910800,5.374910888671875,-0.0254015312274917,-0.0388370956555008,-0.0802262138813734,-0.1353428810834884,0.0284725446254014,0.1813211143016815,walking,2026-03-04_14-00-18
1772632824218860000,5.384860107421875,-0.0107218576230574,0.0818874250918626,-0.1476233413279056,-0.0968119949102401,0.0322116240859031,0.2077380716800689,walking,2026-03-04_14-00-18
1772632824228809200,5.394809326171875,-0.0341697614315897,0.1602889077641069,-0.1660918949544429,-0.0567398853600025,0.0352531522512435,0.227820336818695,walking,2026-03-04_14-00-18
1772632824238759200,5.40475927734375,-0.0216301959952339,0.1969488055109977,-0.1351315240234136,-0.0290094502270221,0.047856293618679,0.2484353333711624,walking,2026-03-04_14-00-18
1772632824248708000,5.4147080078125,0.0174802184426225,0.2166001391813158,-0.0240706114172935,-0.026626668870449,0.0633831024169921,0.2760274410247803,walking,2026-03-04_14-00-18
1772632824258657000,5.424656982421875,0.0471442476864904,0.2196153953492641,0.1810965718626976,-0.0466017089784145,0.0765148848295211,0.309969425201416,walking,2026-03-04_14-00-18
1772632824268606000,5.43460595703125,0.0627932047144975,0.2383487373918295,0.3815916716784238,-0.0835949555039405,0.074712373316288,0.3451837301254272,walking,2026-03-04_14-00-18
1772632824278555000,5.444554931640625,0.0786749658513814,0.1982650026760995,0.5368593902796507,-0.1198424398899078,0.0703506469726562,0.3756502866744995,walking,2026-03-04_14-00-18
1772632824288504000,5.454504150390625,0.1062959814929403,0.143837539178878,0.622423458057642,-0.1460964530706405,0.0737202614545822,0.4104078114032745,walking,2026-03-04_14-00-18
1772632824298454000,5.4644541015625,0.1077582086657639,0.0782822402067482,0.5718734205156565,-0.1508219540119171,0.1023377925157547,0.4443737864494324,walking,2026-03-04_14-00-18
1772632824308403000,5.47440283203125,0.0744984016859438,0.043264264447987,0.4559130454301834,-0.1355646550655365,0.1384939849376678,0.4787172079086303,walking,2026-03-04_14-00-18
1772632824318352000,5.484351806640625,0.0092738507718313,-0.0097667762547731,0.3858639421701431,-0.1127283126115799,0.1481154561042785,0.4955009818077087,walking,2026-03-04_14-00-18
1772632824328301000,5.494301025390625,-0.0418573293926659,-0.1102937276259064,0.4377215551793575,-0.091441810131073,0.1497363150119781,0.4954453706741333,walking,2026-03-04_14-00-18
1772632824338250000,5.50425,-0.0912255184726323,-0.258346108020842,0.5150491250097752,-0.0792549178004264,0.1473852694034576,0.4794054329395294,walking,2026-03-04_14-00-18
1772632824348199000,5.514198974609375,-0.1594122345274314,-0.3348815045602619,0.6172901868224143,-0.0814470052719116,0.1436185240745544,0.4572924971580505,walking,2026-03-04_14-00-18
1772632824358148000,5.524148193359375,-0.1648332001302391,-0.3646268006131052,0.6845569658875466,-0.0889805555343627,0.139841616153717,0.4433207511901855,walking,2026-03-04_14-00-18
1772632824368097000,5.534096923828125,-0.116962994523067,-0.3725592010475695,0.6934411140888929,-0.0988945364952087,0.1372992098331451,0.4417422413825989,walking,2026-03-04_14-00-18
1772632824378047000,5.544046875,-0.0400159667091444,-0.3390994145162403,0.6792021608561277,-0.1232558041810989,0.1280298084020614,0.4466504454612732,walking,2026-03-04_14-00-18
1772632824387996000,5.553995849609375,0.0071787507892586,-0.3025476533189415,0.6831856775343418,-0.1550303697586059,0.0921133011579513,0.464316189289093,walking,2026-03-04_14-00-18
1772632824397944800,5.56394482421875,0.029090540204849,-0.2956009029209613,0.6542611963450908,-0.1838987618684768,0.0643170848488807,0.4815114140510559,walking,2026-03-04_14-00-18
1772632824407894000,5.57389404296875,0.0439643572750501,-0.2408202420718967,0.4888596217423677,-0.197801873087883,0.0494734123349189,0.5048494338989258,walking,2026-03-04_14-00-18
1772632824417843200,5.58384326171875,-0.0130887237517163,-0.2007844381511211,0.2178898867309093,-0.1979001462459564,0.0520718581974506,0.530839204788208,walking,2026-03-04_14-00-18
1772632824427792100,5.593792236328125,-0.1412657707284204,-0.171069391106069,-0.0850929431349039,-0.185547187924385,0.0812171772122383,0.5492900609970093,walking,2026-03-04_14-00-18
1772632824437741000,5.603740966796875,-0.3022586437771096,-0.2033485895507037,-0.3689706750363111,-0.1597155928611755,0.1239475980401039,0.5575155019760132,walking,2026-03-04_14-00-18
1772632824447691000,5.61369091796875,-0.4711255564028397,-0.2705399652920663,-0.6021691900581121,-0.1269203722476959,0.1751918792724609,0.5598548650741577,walking,2026-03-04_14-00-18
1772632824457640000,5.623639892578125,-0.5850822269830852,-0.3811544493049383,-0.7569102544367313,-0.0900526344776153,0.2052541673183441,0.5556502342224121,walking,2026-03-04_14-00-18
1772632824467588900,5.6335888671875,-0.6902621917918325,-0.4764199730165303,-0.8135831587731838,-0.0514224544167518,0.2171926945447921,0.5486994981765747,walking,2026-03-04_14-00-18
1772632824477538000,5.6435380859375,-0.7436189573176205,-0.5990232932478189,-0.8134563175231218,-0.0159446205943822,0.2150893211364746,0.5418176054954529,walking,2026-03-04_14-00-18
1772632824488108000,5.65410791015625,-0.7680654893752187,-0.7395341722220182,-0.7576929292470216,0.0209216959774494,0.1848065555095672,0.5320093631744385,walking,2026-03-04_14-00-18
1772632824498057000,5.664056884765625,-0.8215876015305519,-0.8236135544002056,-0.7598170817941426,0.0623828507959842,0.1631180346012115,0.5313501954078674,walking,2026-03-04_14-00-18
1772632824508006100,5.674006103515625,-0.8078381853803992,-0.8777642467826604,-0.8250976554781198,0.1160556450486183,0.173980638384819,0.5453316569328308,walking,2026-03-04_14-00-18
1772632824517956000,5.6839560546875,-0.8074875453118234,-0.9285289499886332,-0.9105886580199004,0.1667297333478927,0.2023393213748932,0.56736820936203,walking,2026-03-04_14-00-18
1772632824527905000,5.693905029296875,-0.8290838025048375,-0.9922292687438428,-0.8985930997997522,0.2021364718675613,0.2048459649085998,0.5821402072906494,walking,2026-03-04_14-00-18
1772632824537854000,5.70385400390625,-0.8762376217372715,-1.1214746573381125,-0.7658727285712957,0.2184198349714279,0.1519009917974472,0.5771566033363342,walking,2026-03-04_14-00-18
1772632824547803000,5.713802978515625,-0.953811932870373,-1.3041039917260409,-0.5673363616079091,0.2252088487148285,0.0753333270549774,0.5605465769767761,walking,2026-03-04_14-00-18
1772632824557751800,5.723751708984375,-0.9876956439021974,-1.4683432445511222,-0.485190577840805,0.2221693843603134,-0.0088483933359384,0.5107497572898865,walking,2026-03-04_14-00-18
1772632824567701000,5.733700927734375,-1.1958292027071118,-1.5054025168791412,-0.5408294629544019,0.2151021212339401,-0.053596656769514,0.4526233971118927,walking,2026-03-04_14-00-18
1772632824577650200,5.743650146484375,-1.276588354421407,-1.5485061839379368,-0.6927899567037821,0.2039115130901336,-0.0787850990891456,0.3732454776763916,walking,2026-03-04_14-00-18
1772632824587600000,5.753599853515625,-1.413552354568988,-1.5649747959189115,-0.8938678248435258,0.1911275684833526,-0.0569488890469074,0.2886042892932892,walking,2026-03-04_14-00-18
1772632824597549000,5.763549072265625,-1.49202792539075,-1.4254396301090717,-1.089053127813339,0.1788671761751175,-0.0168715082108974,0.1981218010187149,walking,2026-03-04_14-00-18
1772632824607498000,5.773498046875,-1.5420007475666702,-1.2600615825124084,-1.247963002309203,0.1628921031951904,0.0411787666380405,0.1052392199635505,walking,2026-03-04_14-00-18
1772632824617447000,5.783447021484375,-1.466557968569547,-1.0464841521531345,-1.3650643641233444,0.1519291996955871,0.0766933485865593,0.0312544703483581,walking,2026-03-04_14-00-18
1772632824627396000,5.79339599609375,-1.2899623613879083,-0.7042733276180922,-1.4008791893482206,0.1438435465097427,0.0931168273091316,-0.0204547084867954,walking,2026-03-04_14-00-18
1772632824637345000,5.803344970703125,-1.0660162433579563,-0.3369077496908605,-1.4291162727952005,0.1329607963562011,0.0912414267659187,-0.0566755644977092,walking,2026-03-04_14-00-18
1772632824647294000,5.8132939453125,-0.8558380269829183,-0.0024557225890457,-1.4077800547778605,0.1200488805770874,0.0838372558355331,-0.0695056468248367,walking,2026-03-04_14-00-18
1772632824657244000,5.823243896484375,-0.657870472883433,0.3179702633783221,-1.436472480776906,0.1186139658093452,0.0832284614443779,-0.0699511989951133,walking,2026-03-04_14-00-18
1772632824667192800,5.83319287109375,-0.5596651693928987,0.6221487327694892,-1.4951123012721537,0.1400432586669922,0.0946443900465965,-0.0666342750191688,walking,2026-03-04_14-00-18
1772632824677142000,5.84314208984375,-0.5064985196117311,0.8759649422757327,-1.556751888105273,0.1870453804731369,0.1089612767100334,-0.0575555600225925,walking,2026-03-04_14-00-18
1772632824687091200,5.85309130859375,-0.412230701700598,1.059529365556687,-1.5972984180271623,0.2566446959972381,0.1407831162214279,-0.0414825826883316,walking,2026-03-04_14-00-18
1772632824697040100,5.8630400390625,-0.3472512663876637,1.2271559227325022,-1.543637554988265,0.3353725075721741,0.1952857822179794,-0.019135732203722,walking,2026-03-04_14-00-18
1772632824706989000,5.872989013671875,-0.3249436825875192,1.3493388255946337,-1.3349918819427489,0.4038717150688171,0.2534209489822387,0.0141569441184401,walking,2026-03-04_14-00-18
1772632824716938000,5.88293798828125,-0.2948839137580245,1.3993920195303855,-0.9544161093086004,0.4510834515094757,0.2914372980594635,0.0526611916720867,walking,2026-03-04_14-00-18
1772632824726888000,5.892887939453125,-0.2444981268670409,1.3249815061904489,-0.4185620966792106,0.4712865352630615,0.3131946921348572,0.0877707675099372,walking,2026-03-04_14-00-18
1772632824736836900,5.9028369140625,-0.2016816061865538,1.1336400191672145,0.11626432646811,0.475998193025589,0.3256135582923889,0.1094787269830703,walking,2026-03-04_14-00-18
1772632824746786000,5.9127861328125,-0.2205410222942009,0.895148804564774,0.560738278517127,0.4670656025409698,0.3057956099510193,0.1056354865431785,walking,2026-03-04_14-00-18
1772632824756735000,5.92273486328125,-0.3044672597372904,0.7029717435002326,0.970015829500556,0.4342069625854492,0.261545330286026,0.074499137699604,walking,2026-03-04_14-00-18
1772632824766684200,5.93268408203125,-0.3386648590238764,0.5404596067287027,1.3428642227530478,0.3843883872032165,0.1866403371095657,0.0279692448675632,walking,2026-03-04_14-00-18
1772632824776633000,5.942633056640625,-0.3672581720300019,0.4093536849595606,1.6279308721780776,0.3259935081005096,0.117062859237194,-0.0195189118385314,walking,2026-03-04_14-00-18
1772632824786582800,5.952582763671875,-0.3480254656305536,0.3742079911679029,1.7764356725156307,0.2714501619338989,0.080262616276741,-0.064640961587429,walking,2026-03-04_14-00-18
1772632824796531700,5.96253173828125,-0.3298000731101259,0.4236361850731074,1.756650775593519,0.2239063531160354,0.0559972263872623,-0.1184836849570274,walking,2026-03-04_14-00-18
1772632824806480600,5.972480712890625,-0.320223303002119,0.57733110139966,1.722129497310519,0.1935182809829712,0.0470274239778518,-0.1678417772054672,walking,2026-03-04_14-00-18
1772632824816429600,5.9824296875,-0.1950285049729049,0.7341549634017049,1.6116010841459034,0.1780237406492233,0.039274163544178,-0.1919431239366531,walking,2026-03-04_14-00-18
1772632824826378500,5.99237841796875,-0.0086123455226421,0.9355316683575512,1.5219646523624657,0.1707482784986496,0.0253948736935853,-0.2003150731325149,walking,2026-03-04_14-00-18
1772632824836327700,6.00232763671875,0.1931410837911069,1.1211932100482285,1.471642578357458,0.1694153696298599,0.0114913089200854,-0.191486969590187,walking,2026-03-04_14-00-18
1772632824846276600,6.012276611328125,0.3698398956188932,1.245774406223744,1.472435190039873,0.1568543612957,-0.0210780408233404,-0.1807848811149597,walking,2026-03-04_14-00-18
1772632824856226600,6.0222265625,0.5081029226010665,1.3157362695917487,1.5532114390194416,0.1159242317080497,-0.0969389826059341,-0.1733615845441818,walking,2026-03-04_14-00-18
1772632824866175700,6.03217578125,0.5846223543863743,1.3345258718661963,1.6790169162929056,0.045035682618618,-0.1780764311552047,-0.176820233464241,walking,2026-03-04_14-00-18
1772632824876124700,6.042124755859375,0.5465525898415595,1.2951157986283302,1.762103780302405,-0.0561729632318019,-0.2427529096603393,-0.2000717669725418,walking,2026-03-04_14-00-18
1772632824886073600,6.052073486328125,0.4230519554443657,1.2700320646457373,1.7218243768841026,-0.1728071272373199,-0.308690994977951,-0.2278089374303817,walking,2026-03-04_14-00-18
1772632824896022500,6.0620224609375,0.323335151412338,1.2840432004719973,1.5379776295304295,-0.2864753603935241,-0.3570699989795685,-0.2589607238769531,walking,2026-03-04_14-00-18
1772632824905971500,6.071971435546875,0.1654803023947402,1.2855009980648755,1.163331246945262,-0.3756978511810303,-0.3718776404857635,-0.3046106398105621,walking,2026-03-04_14-00-18
1772632824915920600,6.081920654296875,0.0070515990119427,1.3248054189711809,0.6294149243801832,-0.4374320805072784,-0.3585096299648285,-0.3462142944335937,walking,2026-03-04_14-00-18
1772632824925870600,6.09187060546875,-0.058345988647826,1.3659065140359103,0.0801730223894119,-0.4705288112163543,-0.3258587121963501,-0.3785809278488159,walking,2026-03-04_14-00-18
1772632824935819500,6.101819580078125,-0.0603730009634047,1.3956309134311973,-0.4013046724081039,-0.4711439907550812,-0.2441470772027969,-0.3939915895462036,walking,2026-03-04_14-00-18
1772632824945768700,6.111768798828125,-0.0158345518611371,1.4017716081432998,-0.8492857557952403,-0.4526325464248657,-0.1579840779304504,-0.3861926794052124,walking,2026-03-04_14-00-18
1772632824955717600,6.121717529296875,0.0503566338617354,1.4561340435802936,-1.1480606125772,-0.416447639465332,-0.0883805081248283,-0.3511017858982086,walking,2026-03-04_14-00-18
1772632824965666600,6.13166650390625,0.1665804821889847,1.468203836080432,-1.2854185804784295,-0.3726715445518493,-0.0520109981298446,-0.2993900775909424,walking,2026-03-04_14-00-18
1772632824975615700,6.14161572265625,0.2572445399871096,1.3523090735770762,-1.3110229773342608,-0.3235918879508972,-0.0231524519622325,-0.2651388943195343,walking,2026-03-04_14-00-18
1772632824985564700,6.151564697265625,0.2023646930798888,1.1571341458708049,-1.3040315110117195,-0.2625649869441986,0.0312815308570861,-0.2413545250892639,walking,2026-03-04_14-00-18
1772632824995514600,6.1615146484375,0.1501431421291083,0.9032584612622856,-1.2730880912154912,-0.2056247442960739,0.1053957045078277,-0.2205816060304641,walking,2026-03-04_14-00-18
1772632825005463600,6.171463623046875,0.1350458550339564,0.7100500113233924,-1.0858125384569168,-0.1583122164011001,0.1721240878105163,-0.1951260864734649,walking,2026-03-04_14-00-18
1772632825015412500,6.18141259765625,0.1525639030026271,0.4856801149234175,-0.7145031913399696,-0.1301016211509704,0.2162832915782928,-0.1641868203878402,walking,2026-03-04_14-00-18
1772632825025361700,6.191361572265625,0.2064155759058892,0.2385286240033805,-0.2983054857045412,-0.1250241845846176,0.2273111492395401,-0.1484437435865402,walking,2026-03-04_14-00-18
1772632825035310800,6.201310791015625,0.1970620566271245,-0.0162146372199058,0.1692337001115083,-0.1352802813053131,0.2014739513397216,-0.1440801620483398,walking,2026-03-04_14-00-18
1772632825045259800,6.211259765625,0.2163414517125114,-0.2150242681667208,0.5719160906136036,-0.1554556488990783,0.1460374742746353,-0.1471349596977234,walking,2026-03-04_14-00-18
1772632825055208700,6.221208740234375,0.2175772405851632,-0.3932240956746041,0.8533896839827299,-0.1748147010803222,0.0722063928842544,-0.1608569025993347,walking,2026-03-04_14-00-18
1772632825065158700,6.23115869140625,0.2202700598657131,-0.4984552792139351,1.0030892470628023,-0.1883443295955658,-0.0163438152521848,-0.1814344227313995,walking,2026-03-04_14-00-18
1772632825075107600,6.241107666015625,0.2604283941876143,-0.5138330272182822,1.0430646990984678,-0.1930951327085495,-0.1022813618183136,-0.1998589783906936,walking,2026-03-04_14-00-18
1772632825085056500,6.251056396484375,0.3414061570886522,-0.4878615506157279,0.9504612342029808,-0.1825517416000366,-0.1619309484958648,-0.203139066696167,walking,2026-03-04_14-00-18
1772632825095005400,6.26100537109375,0.4270521675290539,-0.4121684501193463,0.7554483651906252,-0.1665863543748855,-0.189862459897995,-0.1920363456010818,walking,2026-03-04_14-00-18
1772632825104954600,6.27095458984375,0.4285658965602517,-0.2710422157257795,0.5765601170271635,-0.1576230525970459,-0.1951232552528381,-0.175310418009758,walking,2026-03-04_14-00-18
1772632825114903800,6.28090380859375,0.4164608866162598,-0.2010673467457294,0.4511117826282977,-0.1569727063179016,-0.1883295327425003,-0.1663201302289962,walking,2026-03-04_14-00-18
1772632825124852700,6.290852783203125,0.3776843255089596,-0.1972881204679608,0.3536813359677791,-0.1610317379236221,-0.1622205823659896,-0.1649084389209747,walking,2026-03-04_14-00-18
1772632825134802700,6.300802734375,0.2685623085435479,-0.2162777753591537,0.2538572721689939,-0.1779800951480865,-0.139013797044754,-0.183931678533554,walking,2026-03-04_14-00-18
1772632825144751600,6.310751708984375,0.1448206319320946,-0.2500669399753212,0.2179179437816143,-0.2019389867782592,-0.1062769815325737,-0.2130497992038726,walking,2026-03-04_14-00-18
1772632825154700500,6.320700439453125,0.0873847438665106,-0.3503479537613689,0.1727986991167068,-0.2168593555688858,-0.0664563328027725,-0.2457251846790313,walking,2026-03-04_14-00-18
1772632825164649700,6.330649658203125,0.1066731625085696,-0.4099728397712111,0.0876654239714145,-0.2212477773427963,-0.0416321419179439,-0.2728395164012909,walking,2026-03-04_14-00-18
1772632825174598700,6.3405986328125,0.1867109046131372,-0.4021358625352382,0.0049018005669116,-0.209374338388443,-0.032291904091835,-0.2972514033317566,walking,2026-03-04_14-00-18
1772632825184547600,6.350547607421875,0.227200078324601,-0.4009010600432753,-0.0410509723126888,-0.1826230436563491,-0.0341474264860153,-0.3167925477027893,walking,2026-03-04_14-00-18
1772632825194496500,6.36049658203125,0.2950526213884353,-0.4017817884005606,-0.1032061074525117,-0.1423736214637756,-0.0388449765741825,-0.3253293037414551,walking,2026-03-04_14-00-18
1772632825204446500,6.370446533203125,0.4181781388629227,-0.4060230792321264,-0.1368172851532697,-0.1074258610606193,-0.0578681007027626,-0.326106458902359,walking,2026-03-04_14-00-18
1772632825214395600,6.380395751953125,0.4673318266756832,-0.42211145972386,-0.1420598619818687,-0.0773513093590736,-0.0734052509069442,-0.3255133926868438,walking,2026-03-04_14-00-18
1772632825224344800,6.3903447265625,0.4636315473856404,-0.4692214398145675,-0.1528980668604374,-0.0513697266578674,-0.0732216387987136,-0.3307250142097473,walking,2026-03-04_14-00-18
1772632825234293800,6.400293701171875,0.3927170594679191,-0.5177838106706738,-0.2014794346779584,-0.0297006480395793,-0.0568408034741878,-0.3428085744380951,walking,2026-03-04_14-00-18
1772632825244242700,6.41024267578125,0.3457769195187836,-0.5774634956076741,-0.2201841351479291,-0.0109917987138032,-0.0318908393383026,-0.3540639579296112,walking,2026-03-04_14-00-18
1772632825254191600,6.420191650390625,0.3179785197500139,-0.6492299241796136,-0.1996405288130044,-0.0013865758664906,-0.0268231108784675,-0.3628095090389251,walking,2026-03-04_14-00-18
1772632825264141600,6.4301416015625,0.3308297084188089,-0.7036633790262043,-0.1423947930246591,0.0113713443279266,-0.0476005151867866,-0.3681670725345611,walking,2026-03-04_14-00-18
1772632825274090500,6.440090576171875,0.3820170209510252,-0.7437123346894979,-0.0725052642405033,0.0309799332171678,-0.0908979177474975,-0.3692419230937958,walking,2026-03-04_14-00-18
1772632825284039700,6.450039794921875,0.4301952878603711,-0.7381463711254298,-0.0538514171749353,0.0498649142682552,-0.1432971507310867,-0.366054356098175,walking,2026-03-04_14-00-18
1772632825293988600,6.459988525390625,0.4020386127058416,-0.7490563260659575,-0.0757224727213382,0.0727345421910286,-0.1716203987598419,-0.366993635892868,walking,2026-03-04_14-00-18
1772632825303937800,6.469937744140625,0.3430845020970329,-0.7795791823625564,-0.155804309695959,0.0826694369316101,-0.1890927851200103,-0.3771742880344391,walking,2026-03-04_14-00-18
1772632825313886700,6.47988671875,0.2261625154377892,-0.8123696913301944,-0.2176028864830732,0.0904557183384895,-0.1705196350812912,-0.4020753800868988,walking,2026-03-04_14-00-18
1772632825323835600,6.489835693359375,0.1044637428307905,-0.897519040827453,-0.3160410488814115,0.100161075592041,-0.1182897239923477,-0.4342700541019439,walking,2026-03-04_14-00-18
1772632825333785600,6.49978564453125,0.0988828739585354,-0.9228639099642634,-0.3924205242067575,0.1169866621494293,-0.069700613617897,-0.4521084427833557,walking,2026-03-04_14-00-18
1772632825343734800,6.50973486328125,0.2078275981282815,-0.883483208951354,-0.4240449120044708,0.1423141956329345,-0.0393615290522575,-0.4510670602321625,walking,2026-03-04_14-00-18
1772632825353683700,6.51968359375,0.3754491868680343,-0.8265031383618712,-0.4010293625980615,0.1691266298294067,-0.0347702428698539,-0.439859926700592,walking,2026-03-04_14-00-18
1772632825363632600,6.529632568359375,0.541575970472768,-0.7955202633380889,-0.287706934800744,0.1985906809568405,-0.0517442189157009,-0.4171599745750427,walking,2026-03-04_14-00-18
1772632825373581600,6.53958154296875,0.7220058951202779,-0.7601004287801683,-0.2063286282747984,0.2279781252145767,-0.0723847821354866,-0.3912775218486786,walking,2026-03-04_14-00-18
1772632825383530500,6.549530517578125,0.8768882676657289,-0.7864645579621196,-0.1624333724468946,0.2532635927200317,-0.0933858528733253,-0.3642905354499817,walking,2026-03-04_14-00-18
1772632825393479700,6.559479736328125,0.9499193093460052,-0.8283481817066669,-0.0783785401880741,0.26142218708992,-0.1139454543590545,-0.3539292216300964,walking,2026-03-04_14-00-18
1772632825403429600,6.5694296875,0.950815454468131,-0.9071978465378284,0.0266501065164804,0.2516950070858001,-0.131680428981781,-0.3513129949569702,walking,2026-03-04_14-00-18
1772632825413378800,6.57937890625,1.0041120873045175,-0.9875380421876908,0.080566405621171,0.2311961352825164,-0.1390230357646942,-0.3454606831073761,walking,2026-03-04_14-00-18
1772632825423327700,6.58932763671875,1.0729952885903418,-0.9959279771313072,0.0913689546644687,0.2053742855787277,-0.1243352591991424,-0.3320730328559875,walking,2026-03-04_14-00-18
1772632825433276700,6.599276611328125,1.1099601606331766,-0.9748252756088972,0.0063519993752241,0.1830175817012787,-0.1007020995020866,-0.3058355748653412,walking,2026-03-04_14-00-18
1772632825443225600,6.6092255859375,1.1470413525320589,-0.9103533879593014,-0.1175982054203748,0.1764659285545349,-0.0807927250862121,-0.2773568034172058,walking,2026-03-04_14-00-18
1772632825453174500,6.619174560546875,1.1975464549537749,-0.833917652402073,-0.2861176197826862,0.1898427158594131,-0.0744605213403701,-0.2384642660617828,walking,2026-03-04_14-00-18
