time,seconds_elapsed,acc_x,acc_y,acc_z,gyr_x,gyr_y,gyr_z,activity,session
1772633246667961300,0.07596142578125,-0.3509953848194331,-0.2921611377306282,0.0355167190611362,-0.103768803179264,-0.0657452642917633,0.038538210093975,walking,2026-03-04_14-07-26
1772633246677910300,0.08591015625,-0.3708031511604786,-0.2754118091121316,-0.0225619604200124,-0.0779494568705558,-0.0967415273189544,-0.0049109957180917,walking,2026-03-04_14-07-26
1772633246687859500,0.095859375,-0.3600316548425704,-0.2343570374071598,-0.1335217507392168,-0.0401965305209159,-0.1233611553907394,-0.0316913798451423,walking,2026-03-04_14-07-26
1772633246697809200,0.10580908203125,-0.2324662552244961,-0.1488686652138829,-0.2262315986186265,0.0030912850052118,-0.1266347020864486,-0.0292117111384868,walking,2026-03-04_14-07-26
1772633246707758000,0.115758056640625,-0.1031714014653116,-0.0194300921350717,-0.2509177115857601,0.0338312722742557,-0.1062525808811187,-0.0118202380836009,walking,2026-03-04_14-07-26
1772633246717707300,0.125707275390625,-0.0395817765429616,0.073221888077259,-0.1574871482163667,0.0299704857170581,-0.1360040754079818,-0.0096817193552851,walking,2026-03-04_14-07-26
1772633246727656200,0.13565625,-0.0140148621533066,0.10871113460958,-0.0389022698462009,0.0313494242727756,-0.1841873824596405,-0.0252250228077173,walking,2026-03-04_14-07-26
1772633246737605000,0.145605224609375,-0.0088377517763525,0.0546872834771871,-0.2083282776594162,0.0629710033535957,-0.1517908275127411,-0.0368726253509521,walking,2026-03-04_14-07-26
1772633246747555000,0.15555517578125,-0.0493991870064288,0.0998389691069722,-0.438166376337409,0.1066803559660911,-0.0932587310671806,-0.0331431478261947,walking,2026-03-04_14-07-26
1772633246757504300,0.165504150390625,-0.0585876519165933,0.183377522406727,-0.4641670790344476,0.1296889930963516,-0.0569023191928863,-0.0128040555864572,walking,2026-03-04_14-07-26
1772633246767453200,0.175453125,0.0224309544514864,0.184498343130201,-0.2612327693730593,0.1146647334098815,-0.0393082685768604,0.0123389577493071,walking,2026-03-04_14-07-26
1772633246777402000,0.185402099609375,0.0759776895914226,0.1353692783020436,0.0517740263789892,0.0619663707911968,-0.0244656726717948,0.0264928583055734,walking,2026-03-04_14-07-26
1772633246787351000,0.19535107421875,0.1042956562548875,0.0048760816037654,0.3020399960577488,0.0040287235751748,0.010509967803955,0.0287211090326309,walking,2026-03-04_14-07-26
1772633246797300200,0.20530029296875,0.137371192708984,-0.128870856193453,0.4085317010521888,-0.0384012907743454,0.057466022670269,0.0327235758304595,walking,2026-03-04_14-07-26
1772633246807249200,0.215249267578125,0.1312700262896716,-0.1423231890931725,0.4261515288949012,-0.0655899122357368,0.0837605074048042,0.0330637097358703,walking,2026-03-04_14-07-26
1772633246817198000,0.225197998046875,0.1380007227841764,-0.1500869549624622,0.4442652777343988,-0.0829457342624664,0.0737518146634101,0.03683527931571,walking,2026-03-04_14-07-26
1772633246827147300,0.235147216796875,0.2008396024044603,-0.1686515163093805,0.4541635714143514,-0.0856500789523124,0.050595074892044,0.0456879399716854,walking,2026-03-04_14-07-26
1772633246837096200,0.24509619140625,0.247975301458314,-0.1427325005464255,0.4607569783300161,-0.0915218144655227,0.0127486269921064,0.0544521361589431,walking,2026-03-04_14-07-26
1772633246847045000,0.255045166015625,0.2138924876578152,-0.1032388406783342,0.5023334358215332,-0.1062126159667968,-0.0450815856456756,0.0475541427731514,walking,2026-03-04_14-07-26
1772633246856994000,0.264994140625,0.1440199100084602,-0.1312231184080243,0.5127151291042567,-0.1112127006053924,-0.0674023404717445,0.0343970619142055,walking,2026-03-04_14-07-26
1772633246866943200,0.274943115234375,0.1166729803342372,-0.1913894178181886,0.3360264368116855,-0.10581886023283,-0.0525953918695449,0.017197910696268,walking,2026-03-04_14-07-26
1772633246876892200,0.28489208984375,0.0476582616232335,-0.1618067649811506,0.1120697973877191,-0.0962826162576675,-0.0342803001403808,0.0082217268645763,walking,2026-03-04_14-07-26
1772633246886841000,0.294841064453125,0.0268209330387413,-0.0748418904945254,-0.0239513689517974,-0.082849845290184,-0.0184179209172725,0.0118471179157495,walking,2026-03-04_14-07-26
1772633246896791300,0.304791259765625,0.1441347685597837,-0.0499964953124523,-0.1366875212937593,-0.0728339627385139,-0.0002394507173448,0.0377484895288944,walking,2026-03-04_14-07-26
1772633246906740200,0.314740234375,0.2707899945303798,-0.0057156011678278,-0.1531383053570985,-0.0703262463212013,0.0158376358449459,0.0669634267687797,walking,2026-03-04_14-07-26
1772633246916689200,0.324689208984375,0.2909522733975201,0.0395377912707626,-0.0945323871314525,-0.0768427327275276,0.0195985529571771,0.0852721258997917,walking,2026-03-04_14-07-26
1772633246926638000,0.33463818359375,0.2540008453581482,0.0099843645282089,-0.0263256968677043,-0.0878146067261695,0.0179626066237688,0.0903362706303596,walking,2026-03-04_14-07-26
1772633246936587000,0.3445869140625,0.2479689447827637,-0.0606586129717528,0.0338707054197788,-0.1032622754573822,0.0165426097810268,0.0972871258854866,walking,2026-03-04_14-07-26
1772633246946536200,0.3545361328125,0.251154735212028,-0.0737397744715213,0.1006938323706388,-0.1238028332591056,0.0057333428412675,0.1035763993859291,walking,2026-03-04_14-07-26
1772633246956485000,0.364485107421875,0.2456993924155831,-0.0431657725095748,0.1403852067679166,-0.1377713680267334,-0.0080519774928689,0.1050169020891189,walking,2026-03-04_14-07-26
1772633246966434300,0.374434326171875,0.183161249307543,-0.0327197818189859,0.0910918912887573,-0.1433278322219848,-0.0050972583703696,0.1006932258605957,walking,2026-03-04_14-07-26
1772633246976383200,0.38438330078125,0.1598478129331022,-0.0162498546637594,-0.0089811788350343,-0.1435824334621429,0.012628742493689,0.1097165495157241,walking,2026-03-04_14-07-26
1772633246986332200,0.394332275390625,0.1929393506739288,-0.0559166791416704,-0.0319733473658561,-0.1459024548530578,0.028092423453927,0.1185330152511596,walking,2026-03-04_14-07-26
1772633246996281000,0.404281005859375,0.1852167205326259,-0.0655738575421273,-0.0563619386911392,-0.1368559598922729,0.0461515821516513,0.1286178827285766,walking,2026-03-04_14-07-26
1772633247006230000,0.41422998046875,0.1556755687497556,-0.0615492782011628,-0.0777981099516153,-0.1198731139302253,0.0577738508582115,0.13263039290905,walking,2026-03-04_14-07-26
1772633247016179200,0.42417919921875,0.0729069769091904,-0.057872927775979,-0.095318569073081,-0.0911487936973571,0.0503606759011745,0.1324058920145034,walking,2026-03-04_14-07-26
1772633247026128100,0.434128173828125,0.0665851534765213,-0.0851250918388366,-0.0985240871161222,-0.0644135922193527,0.0242513734847307,0.1275020688772201,walking,2026-03-04_14-07-26
1772633247036078300,0.444078369140625,0.0463177337344735,-0.1008582291521131,-0.0748942052036523,-0.0365633219480514,0.0071118022315204,0.1162403523921966,walking,2026-03-04_14-07-26
1772633247046027300,0.45402734375,-0.020360724048689,-0.1057991926856339,-0.0772188487589359,-0.0043219733051955,0.0255448631942272,0.101870372891426,walking,2026-03-04_14-07-26
1772633247055976200,0.46397607421875,-0.0337399917121976,-0.1358849727392196,-0.098205522686243,0.0080856941640377,0.0450732931494712,0.0928816720843315,walking,2026-03-04_14-07-26
1772633247065925000,0.473925048828125,0.0065694415181875,-0.1026537342667579,0.0340834713876247,-0.01051502302289,0.032630369067192,0.0938527211546897,walking,2026-03-04_14-07-26
1772633247075874000,0.4838740234375,0.084722867713496,-0.0928401962608098,0.2256915003925561,-0.0342267416417598,0.0139613449573516,0.0969145596027374,walking,2026-03-04_14-07-26
1772633247085823000,0.493822998046875,0.1380686734538525,-0.1038311074830591,0.2647510066270828,-0.0480520091950893,0.0143251325935125,0.103391632437706,walking,2026-03-04_14-07-26
1772633247095772000,0.50377197265625,0.1447998814050108,-0.0679912939473986,0.181306415221095,-0.0556028671562671,0.0384664200246334,0.1198843270540237,walking,2026-03-04_14-07-26
1772633247105721300,0.513721435546875,0.1540123847778886,-0.0126703887417912,0.0831669435083866,-0.0635062903165817,0.0484362877905368,0.1429116427898407,walking,2026-03-04_14-07-26
1772633247115670300,0.523670166015625,0.1235221886418759,-0.0258361597850918,0.0989998879343271,-0.0801979154348373,0.0301291868090629,0.1438019275665283,walking,2026-03-04_14-07-26
1772633247125619200,0.533619140625,0.0156385908976197,-0.0918700360544025,0.1139700780510902,-0.0881335660815239,0.016982477158308,0.1298319399356842,walking,2026-03-04_14-07-26
1772633247135568100,0.543568115234375,-0.0928657690934836,-0.1825108225747942,0.0520171874850988,-0.0911157727241516,0.0101290987804532,0.1092502325773239,walking,2026-03-04_14-07-26
1772633247145517000,0.55351708984375,-0.1993203569479286,-0.2206559904433786,0.0196598092377185,-0.0929431170225143,0.000754268374294,0.0815219804644584,walking,2026-03-04_14-07-26
1772633247155466000,0.563466064453125,-0.2525082687128335,-0.2121468130342662,-0.0322504107415676,-0.0858844071626663,0.0144945811480283,0.0597759373486042,walking,2026-03-04_14-07-26
1772633247165415200,0.573415283203125,-0.1738002043094486,-0.1962538089841604,-0.0903852043241262,-0.0790915489196777,0.0328469201922416,0.0557687990367412,walking,2026-03-04_14-07-26
1772633247175364000,0.583364013671875,-0.0997212610114365,-0.1596207992441952,-0.1168237139165401,-0.0771556943655014,0.0437685437500476,0.0663468688726425,walking,2026-03-04_14-07-26
1772633247185314300,0.593314208984375,-0.0186623956982046,-0.1129503796145319,-0.1092675994485616,-0.0734048187732696,0.0471977367997169,0.0816209390759468,walking,2026-03-04_14-07-26
1772633247195263200,0.60326318359375,0.0356362537875771,-0.1038883906282484,-0.0404927539080381,-0.0713525861501693,0.0286118015646934,0.0879201143980026,walking,2026-03-04_14-07-26
1772633247205212200,0.613212158203125,-0.0051302024953067,-0.1021300026535987,-0.011437924337387,-0.0617865622043609,-0.0003804904408752,0.0838118866086006,walking,2026-03-04_14-07-26
1772633247215161000,0.6231611328125,-0.0658285629555582,-0.0902342515461146,-0.036029929280281,-0.0489570461213588,-0.0328646637499332,0.0730729550123214,walking,2026-03-04_14-07-26
1772633247225110000,0.633110107421875,-0.1153396128386259,-0.0685467358730733,-0.0647036505788564,-0.0351727530360221,-0.0437956899404525,0.0602391995489597,walking,2026-03-04_14-07-26
1772633247235059000,0.643058837890625,-0.1452962135545909,-0.0109491179071366,-0.0926911431789398,-0.0219051502645015,-0.0343065783381462,0.0466837100684642,walking,2026-03-04_14-07-26
1772633247245008100,0.653008056640625,-0.1798341507114469,0.0190951610922813,-0.1261854165017605,-0.0162323005497455,-0.0094584291800856,0.0357312262058258,walking,2026-03-04_14-07-26
1772633247254957300,0.662957275390625,-0.1422838799960911,0.0515105531372129,-0.1266314067035913,-0.0115003958344459,0.020649405196309,0.0326339676976203,walking,2026-03-04_14-07-26
1772633247264906200,0.67290625,-0.0481154308062046,0.0670265405684709,-0.0635194092303514,-0.009102925658226,0.0318260751664638,0.0336426943540573,walking,2026-03-04_14-07-26
1772633247274855200,0.682855224609375,-0.0145925889760255,0.098081457915157,-0.0055190556824207,-0.0117706134915351,0.0301496163010597,0.0293305031955242,walking,2026-03-04_14-07-26
1772633247284804000,0.69280419921875,-0.0251228238839656,0.1250618192993104,0.0547983426362276,-0.0174851827323436,0.0252035111188888,0.0292490292340517,walking,2026-03-04_14-07-26
1772633247294753000,0.7027529296875,-0.04748999238424,0.1386563371486961,0.1316857674837112,-0.034514233469963,0.0080303838476538,0.0266367327421903,walking,2026-03-04_14-07-26
1772633247304702000,0.712701904296875,-0.0573247923739254,0.1530634865552186,0.1919675099670887,-0.0584954656660556,-0.0037418531719595,0.0143475765362381,walking,2026-03-04_14-07-26
1772633247314651100,0.722651123046875,-0.1176446018453687,0.1100695634812116,0.1632201389104128,-0.0727191492915153,0.0053584342822432,-0.0035310224629938,walking,2026-03-04_14-07-26
1772633247324600300,0.732600341796875,-0.1918287590835243,0.1087571657083928,0.0270844062805175,-0.0716073140501976,0.0380468219518661,-0.0085010174661874,walking,2026-03-04_14-07-26
1772633247334550000,0.742550048828125,-0.1898380236577242,0.1624668363250792,-0.009744564422965,-0.0705801323056221,0.0480350069701671,-0.0039752409793436,walking,2026-03-04_14-07-26
1772633247344499200,0.752499267578125,-0.1422033621057868,0.2077769273869693,-0.0119429512500762,-0.0602001138031482,0.0439541526138782,0.0101599125191569,walking,2026-03-04_14-07-26
1772633247354448100,0.7624482421875,-0.1121317567080259,0.1868281012520194,-0.0283534033030271,-0.0359192751348018,0.0552131980657577,0.0173610989004373,walking,2026-03-04_14-07-26
1772633247364397000,0.77239697265625,-0.1906515319976955,0.196473735345155,-0.0258481424838304,-0.0186790283769369,0.055480983108282,0.0211971309036016,walking,2026-03-04_14-07-26
1772633247374346000,0.782345947265625,-0.2872811836693436,0.1563990607187151,0.0672165101826191,-0.0083978958427906,0.0328358598053455,0.0114899082109332,walking,2026-03-04_14-07-26
1772633247384295200,0.792295166015625,-0.3370210008069872,0.0924067732796073,0.2139069545745849,-0.0006177858449518,0.012604895979166,-0.0010468256659805,walking,2026-03-04_14-07-26
1772633247394244000,0.802244140625,-0.3833825006179511,0.04093216823861,0.2767062328368425,-0.0038082529790699,0.0037256504874676,-0.0184484533965587,walking,2026-03-04_14-07-26
1772633247404193300,0.812193359375,-0.4479098447818309,0.0585090337224304,0.3501549154073,-0.007599753793329,-0.0128390248864889,-0.0439527295529842,walking,2026-03-04_14-07-26
1772633247414142200,0.82214208984375,-0.4965513452887535,0.035237317597866,0.4059656499564647,-0.0141508635133504,-0.0198894757777452,-0.0621927231550216,walking,2026-03-04_14-07-26
1772633247424091100,0.832091064453125,-0.4717917286939919,0.0522832910753786,0.4225695787549018,-0.0224722158163785,-0.0238759480416774,-0.0664858818054199,walking,2026-03-04_14-07-26
1772633247434040000,0.8420400390625,-0.4764981528192758,0.10437968127653,0.4324509213000536,-0.027567908167839,-0.0319788828492164,-0.0704590454697609,walking,2026-03-04_14-07-26
1772633247443989000,0.851989013671875,-0.4631944346100091,0.1058005078598856,0.3735656016111374,-0.0225398670881986,-0.032211247831583,-0.064454436302185,walking,2026-03-04_14-07-26
1772633247453938200,0.861938232421875,-0.4391503458734601,0.0696589348986744,0.2801625107705593,-0.0095758661627769,-0.0120844068005681,-0.0543149784207344,walking,2026-03-04_14-07-26
1772633247463887000,0.87188720703125,-0.4358015469022095,0.044756256571412,0.2322206099003553,-0.0046965014189481,0.0101410336792469,-0.0418878905475139,walking,2026-03-04_14-07-26
1772633247473837000,0.881837158203125,-0.4543119669090956,-0.023399141896516,0.2888011597782373,-0.0091290669515728,0.0106401098892092,-0.0344422273337841,walking,2026-03-04_14-07-26
1772633247483786000,0.891785888671875,-0.45667708860524,-0.167648038355261,0.3674842358708381,-0.0126513792201876,0.0017790310084819,-0.0312380772083997,walking,2026-03-04_14-07-26
1772633247493735200,0.901735107421875,-0.5055500597804784,-0.2855652465969324,0.3881576060652733,-0.0145976180210709,0.0105275148525834,-0.033767282962799,walking,2026-03-04_14-07-26
1772633247503684000,0.91168408203125,-0.5737630336545407,-0.4267424805253744,0.3673170626103877,-0.0274989791214466,-0.0041710110381245,-0.0450666397809982,walking,2026-03-04_14-07-26
1772633247513633300,0.92163330078125,-0.5654658915609121,-0.6117370827399193,0.4192752133846282,-0.0458095446228981,-0.0570392832159996,-0.0520816706120967,walking,2026-03-04_14-07-26
1772633247523582200,0.931582275390625,-0.508610470264405,-0.7671298890255391,0.3925175548404455,-0.058369867503643,-0.092992216348648,-0.0598966218531131,walking,2026-03-04_14-07-26
1772633247533531100,0.94153125,-0.4718728311061859,-0.8700662396259605,0.2371896304845809,-0.0624226629734039,-0.0971267744898796,-0.0549199730157852,walking,2026-03-04_14-07-26
1772633247543480000,0.95147998046875,-0.4230134500648826,-0.984918068947643,0.101765845516324,-0.0804067626595497,-0.1053516045212745,-0.0425759702920913,walking,2026-03-04_14-07-26
1772633247553429200,0.96142919921875,-0.4068760427996516,-1.1101833018645644,0.0810527278333902,-0.1231270655989646,-0.1278430670499801,-0.0456897392868995,walking,2026-03-04_14-07-26
1772633247563378200,0.971378173828125,-0.4285604897327721,-1.2494783753082157,0.1238309623301029,-0.1727386862039566,-0.1331966370344162,-0.0577822625637054,walking,2026-03-04_14-07-26
1772633247573327000,0.9813271484375,-0.4564871189910918,-1.3906336896657945,0.0420990200608968,-0.2160488665103912,-0.1133398488163948,-0.0755801722407341,walking,2026-03-04_14-07-26
1772633247583276000,0.991276123046875,-0.3891179024647921,-1.4495913439385593,-0.1136415767490863,-0.2377387583255767,-0.0821843743324279,-0.0780345425009727,walking,2026-03-04_14-07-26
1772633247593225200,1.00122509765625,-0.2398605301942676,-1.438761906888336,-0.306910816964507,-0.2377590090036392,-0.0597799979150295,-0.0724970251321792,walking,2026-03-04_14-07-26
1772633247603174100,1.011174072265625,-0.0557516247730702,-1.4416750178560611,-0.3819786251693964,-0.2111811488866806,-0.056506659835577,-0.0653312653303146,walking,2026-03-04_14-07-26
1772633247613124000,1.0211240234375,0.0745602240089327,-1.4719390770860017,-0.511013585883379,-0.1653252393007278,-0.0587849952280521,-0.0689161419868469,walking,2026-03-04_14-07-26
1772633247623073000,1.031072998046875,0.0953664998680353,-1.4239236725881694,-0.6049620356470347,-0.1108045205473899,-0.0712248831987381,-0.0723680332303047,walking,2026-03-04_14-07-26
1772633247633022000,1.04102197265625,0.129044824520871,-1.3254901863649486,-0.5667179374486208,-0.064995490014553,-0.0927163287997245,-0.0724822804331779,walking,2026-03-04_14-07-26
1772633247642971100,1.05097119140625,0.1393898390550166,-1.222341654318571,-0.4813572832882404,-0.0244971066713333,-0.1035105735063552,-0.0733744651079177,walking,2026-03-04_14-07-26
1772633247652920300,1.06092041015625,0.1323723615083843,-1.0909301737315953,-0.4088555261790752,0.0034748737234622,-0.0960859432816505,-0.0832555890083313,walking,2026-03-04_14-07-26
1772633247662869200,1.070869140625,0.0857276608418673,-0.9808237853713332,-0.33739830968678,0.0230937153100967,-0.0635646507143974,-0.0954103171825409,walking,2026-03-04_14-07-26
1772633247672818200,1.080818115234375,0.0583835807118564,-0.8414519934296607,-0.2454705520957708,0.0340936370193958,-0.0190962497144937,-0.095408983528614,walking,2026-03-04_14-07-26
1772633247682767000,1.09076708984375,0.0760880911633372,-0.6839255361162125,-0.0556862313866615,0.0361615680158138,0.0011628763750195,-0.0872401595115661,walking,2026-03-04_14-07-26
1772633247692716000,1.100716064453125,0.12493899663724,-0.5413530484370886,0.1097217729568481,0.0434450507164001,0.0077704456634819,-0.0760684683918953,walking,2026-03-04_14-07-26
1772633247702664700,1.110664794921875,0.1644541376847773,-0.3857119664788246,0.1870236238241195,0.0554511211812496,0.0445013046264648,-0.0451387502253055,walking,2026-03-04_14-07-26
1772633247712613600,1.120613525390625,0.1440172796599567,-0.2201690837092697,0.2607213127195835,0.0642768368124961,0.0909007564187049,-0.0087245497852563,walking,2026-03-04_14-07-26
1772633247722562800,1.130562744140625,0.0697111765425652,-0.1131159454397857,0.4065583551526069,0.0644584149122238,0.1062725931406021,0.0159578509628772,walking,2026-03-04_14-07-26
1772633247732511700,1.14051171875,0.0061012394845485,-0.1248613282911479,0.6279390066087246,0.0544808804988861,0.0725931972265243,0.025825660675764,walking,2026-03-04_14-07-26
1772633247742460700,1.150460693359375,-0.0217013250026851,-0.1918994131669402,0.7928507518678903,0.0488935746252536,0.029813976958394,0.0348951965570449,walking,2026-03-04_14-07-26
1772633247752409600,1.16040966796875,-0.0609078384924679,-0.2175400503799319,0.8386451193153858,0.0401666611433029,0.0093193538486957,0.0454157479107379,walking,2026-03-04_14-07-26
1772633247762359600,1.170359619140625,-0.1384217246752232,-0.1907328536055982,0.8668179053544998,0.0129376593977212,0.0050991866737604,0.0627184137701988,walking,2026-03-04_14-07-26
1772633247772308500,1.18030859375,-0.2331462733779102,-0.2056236948758363,0.9333324047476051,-0.031675349920988,0.0032882366795092,0.0754046514630317,walking,2026-03-04_14-07-26
1772633247782257700,1.190257568359375,-0.2517585463240742,-0.3358911199942231,1.0138456188768148,-0.0873688757419586,0.0099973883479833,0.0839984640479087,walking,2026-03-04_14-07-26
1772633247792206800,1.200206787109375,-0.3190878692314028,-0.488199842659384,1.0445406168699265,-0.1376134157180786,0.0313274450600147,0.0828599631786346,walking,2026-03-04_14-07-26
1772633247802155800,1.21015576171875,-0.4386990949746221,-0.6314252412892878,0.992977602893114,-0.172654390335083,0.0645518153905868,0.077551782131195,walking,2026-03-04_14-07-26
1772633247812104700,1.220104736328125,-0.4670712760433554,-0.7553495809912681,0.9137275405675171,-0.1952414661645889,0.0859066396951675,0.071992702782154,walking,2026-03-04_14-07-26
1772633247822053600,1.2300537109375,-0.4687829022668301,-0.8757384400434791,0.8461123864561318,-0.2060943841934204,0.0826804861426353,0.073454774916172,walking,2026-03-04_14-07-26
1772633247832002600,1.24000244140625,-0.3932680078815668,-0.9764952546477316,0.8364251051783561,-0.2097192108631134,0.0489118695259094,0.0765522941946983,walking,2026-03-04_14-07-26
1772633247841951500,1.249951416015625,-0.3134360540147871,-1.0364552178308366,0.8155038977026939,-0.2111798524856567,0.0037743798457086,0.0777148008346557,walking,2026-03-04_14-07-26
1772633247851900700,1.259900634765625,-0.3176419082067906,-1.083914815076813,0.7721341270536184,-0.2133263498544693,-0.0367565378546714,0.0674922615289688,walking,2026-03-04_14-07-26
1772633247861849900,1.269849853515625,-0.4082347639322281,-1.1072319777783006,0.6902770971000194,-0.2215603291988372,-0.066813625395298,0.0534301064908504,walking,2026-03-04_14-07-26
1772633247871798800,1.279798828125,-0.4589204105526208,-1.1470177524607628,0.5922405012398958,-0.2392010986804962,-0.0827856659889221,0.0430538989603519,walking,2026-03-04_14-07-26
1772633247881747700,1.289747802734375,-0.4172771714352071,-1.1499632313281296,0.4797580313980579,-0.2574449181556701,-0.0864572674036026,0.0469406209886074,walking,2026-03-04_14-07-26
1772633247891696600,1.299696533203125,-0.3961074690911919,-1.1005405903808771,0.3181295455932617,-0.2711828351020813,-0.0708540752530098,0.055915743112564,walking,2026-03-04_14-07-26
1772633247901645600,1.3096455078125,-0.3973658716544508,-1.1159669998325408,0.0991296517938375,-0.2633444368839264,-0.0356310158967971,0.0689043253660202,walking,2026-03-04_14-07-26
1772633247911594800,1.3195947265625,-0.4302954237665981,-1.1607880652684717,-0.1464426071107387,-0.2438229322433471,0.0172106232494115,0.0847959369421005,walking,2026-03-04_14-07-26
1772633247921544700,1.329544677734375,-0.4895077834527939,-1.186846197241172,-0.2806587698549032,-0.2251153737306594,0.0482552498579025,0.0902820229530334,walking,2026-03-04_14-07-26
1772633247931493600,1.33949365234375,-0.5511001701433211,-1.265708794619143,-0.296979790058732,-0.2106823772192001,0.0478579066693782,0.0821500569581985,walking,2026-03-04_14-07-26
1772633247941442800,1.34944287109375,-0.5928308683484792,-1.3593404335185884,-0.3123293348819017,-0.1870886385440826,0.0511755384504795,0.0677628517150878,walking,2026-03-04_14-07-26
1772633247951391700,1.359391845703125,-0.6020582770295441,-1.4341561666585505,-0.4138695549488067,-0.1483492404222488,0.0744888484477996,0.0485356226563453,walking,2026-03-04_14-07-26
1772633247961340700,1.369340576171875,-0.6565400279972702,-1.4449518475696443,-0.5016512987762689,-0.0997401922941207,0.0914793610572815,0.0303084030747413,walking,2026-03-04_14-07-26
1772633247971289600,1.37928955078125,-0.6249682471696287,-1.3946990394085643,-0.5525035341352224,-0.0379039905965328,0.0886082053184509,0.0239722076803445,walking,2026-03-04_14-07-26
1772633247981238500,1.389238525390625,-0.4665955482903867,-1.352578976559639,-0.5704173764884471,0.0260989610105752,0.0752388760447502,0.0366491228342056,walking,2026-03-04_14-07-26
1772633247991187500,1.3991875,-0.3402251306105405,-1.2677354781411587,-0.5048024562835693,0.0778585597872734,0.0481811575591564,0.0566779561340808,walking,2026-03-04_14-07-26
1772633248001137000,1.409136962890625,-0.2905401854652911,-1.2006375528369098,-0.4255144000351428,0.1126180067658424,0.0259429272264242,0.0795070305466651,walking,2026-03-04_14-07-26
1772633248011085800,1.4190859375,-0.2678506531428545,-1.179461786078289,-0.3904530235260725,0.1440459638833999,0.0215175524353981,0.1030725464224815,walking,2026-03-04_14-07-26
1772633248021034800,1.42903466796875,-0.3114453916542232,-1.1553257082093509,-0.4143500319421291,0.1742412894964218,0.0201375391334295,0.125515341758728,walking,2026-03-04_14-07-26
1772633248030983700,1.438983642578125,-0.3223617763355374,-1.0988760181695223,-0.4963748196780681,0.2027909159660339,0.0275989174842834,0.1472664326429367,walking,2026-03-04_14-07-26
1772633248040932600,1.4489326171875,-0.3151744221147149,-1.1293366228848696,-0.6349123527526855,0.2331386059522628,0.0264071747660636,0.1623116582632064,walking,2026-03-04_14-07-26
1772633248050881500,1.458881591796875,-0.3380001480374485,-1.1607476601928473,-0.7300596569120884,0.2573014497756958,0.01489725895226,0.1676065474748611,walking,2026-03-04_14-07-26
1772633248060830700,1.468830810546875,-0.3313827757243067,-1.189068330270052,-0.7752683334261179,0.24734728038311,-0.0047525228001177,0.1617559343576431,walking,2026-03-04_14-07-26
1772633248070779600,1.478779541015625,-0.3961294617272913,-1.191305514737591,-0.7706184617936611,0.2027340084314346,-0.0014182452578097,0.1329397410154342,walking,2026-03-04_14-07-26
1772633248080729600,1.4887294921875,-0.4934938574142753,-1.2118553316175935,-0.786564218944311,0.1332530081272125,0.0235143117606639,0.0978293269872665,walking,2026-03-04_14-07-26
1772633248090678800,1.4986787109375,-0.5887030478287488,-1.1278750989649444,-0.8292349014133215,0.0340585224330425,0.0367321111261844,0.0463389754295349,walking,2026-03-04_14-07-26
1772633248100627700,1.508627685546875,-0.640563364251703,-1.0224109834525734,-0.8656956233263016,-0.068895511329174,-0.0013163466937839,-0.0106543824076652,walking,2026-03-04_14-07-26
1772633248110576600,1.51857666015625,-0.6998325686916709,-0.8732049029778689,-0.9982973366111516,-0.1496215164661407,-0.043411336839199,-0.070443145930767,walking,2026-03-04_14-07-26
1772633248120525600,1.528525634765625,-0.8080651990693062,-0.5449259384877979,-1.372353352087736,-0.1871422976255417,-0.0426565743982791,-0.122032955288887,walking,2026-03-04_14-07-26
1772633248130474500,1.538474609375,-0.9124668729819356,-0.1766148233387619,-1.8625135350346564,-0.1822415590286255,-0.002550165168941,-0.1639503091573715,walking,2026-03-04_14-07-26
1772633248140423700,1.548423583984375,-0.914408508569002,0.1421937174946069,-2.3073177419513464,-0.1372382640838623,0.0679545179009437,-0.1925206780433654,walking,2026-03-04_14-07-26
1772633248150372900,1.558372802734375,-0.860403654398024,0.4331600194174796,-2.5840005939126014,-0.066977672278881,0.1519564688205719,-0.2070479542016983,walking,2026-03-04_14-07-26
1772633248160321800,1.56832177734375,-0.764655315605551,0.6879675049833953,-2.6087866601228717,-0.0031207189895212,0.2027589529752731,-0.2044810950756073,walking,2026-03-04_14-07-26
1772633248170270700,1.578270751953125,-0.5838485935349017,0.8194521969370544,-2.4448230093687773,0.0575825758278369,0.2264469712972641,-0.1836264133453369,walking,2026-03-04_14-07-26
1772633248180219600,1.5882197265625,-0.3033108927763998,0.8224063705675303,-2.223045467549562,0.1315563470125198,0.2599241733551025,-0.1337084174156189,walking,2026-03-04_14-07-26
1772633248190168600,1.59816845703125,-0.0162106186319142,0.7501507702391594,-2.002383778017759,0.2246713787317276,0.2897997796535492,-0.0731310918927192,walking,2026-03-04_14-07-26
1772633248200117500,1.608117431640625,0.1514412191156297,0.6367160411737859,-1.7393313920021056,0.3320538699626922,0.3070911169052124,-0.0135603640228509,walking,2026-03-04_14-07-26
1772633248210066400,1.61806640625,0.1978190855395048,0.5063191444568336,-1.3878034346759318,0.4485503733158111,0.3139495551586151,0.0259601473808288,walking,2026-03-04_14-07-26
1772633248220015900,1.628015869140625,0.1871240154586732,0.3941111076422035,-0.97312314786613,0.5650861263275146,0.3013474643230438,0.0474384203553199,walking,2026-03-04_14-07-26
1772633248229965600,1.637965576171875,0.156838109723106,0.2779932039074599,-0.5176327117621898,0.669231653213501,0.2726165056228637,0.0413086228072643,walking,2026-03-04_14-07-26
1772633248239914800,1.647914794921875,0.1336630589060485,0.2234429908134043,-0.0491255576968193,0.7578925490379333,0.2480820566415786,0.0162988919764757,walking,2026-03-04_14-07-26
1772633248249863700,1.65786376953125,0.1852179626416414,0.2192711119562387,0.3852478560984134,0.815224289894104,0.2203180640935897,-0.0142955034971237,walking,2026-03-04_14-07-26
1772633248259812600,1.6678125,0.3059684215478599,0.284152164928615,0.8234124788701533,0.8366274237632751,0.167815163731575,-0.0461981371045112,walking,2026-03-04_14-07-26
1772633248269761500,1.677761474609375,0.3918303032286465,0.466108714621514,1.2466378911852836,0.8244106769561768,0.0976448655128479,-0.0728744938969612,walking,2026-03-04_14-07-26
1772633248279710700,1.687710693359375,0.4649558182593434,0.7363060039557516,1.6276707599371671,0.7778142690658569,-0.0115063562989234,-0.0931112617254257,walking,2026-03-04_14-07-26
1772633248289659600,1.69765966796875,0.60858417166695,0.9979330333434044,1.94044491597712,0.6976829767227173,-0.1424617022275924,-0.0876677632331848,walking,2026-03-04_14-07-26
1772633248299608800,1.70760888671875,0.7176830634851008,1.2365376451924444,2.1573387774080035,0.5799670219421387,-0.2698831856250763,-0.0676126480102539,walking,2026-03-04_14-07-26
1772633248309557800,1.717557861328125,0.7623125518716871,1.4056274067886172,2.2627181372463703,0.4272398054599762,-0.377909779548645,-0.0469140298664569,walking,2026-03-04_14-07-26
1772633248319506700,1.727506591796875,0.7271978377401829,1.4632720787666738,2.245478833153844,0.2625179290771484,-0.4451315701007843,-0.025797476992011,walking,2026-03-04_14-07-26
1772633248329455600,1.73745556640625,0.6652507923930883,1.4624676305159925,2.0622142696022987,0.1037703529000282,-0.4659071564674377,-0.0178617890924215,walking,2026-03-04_14-07-26
1772633248339404500,1.747404541015625,0.4401414027374237,1.4444680095754563,1.7105916197299955,-0.0424459241330623,-0.4440029263496399,-0.0323830358684062,walking,2026-03-04_14-07-26
1772633248349353700,1.757353759765625,0.185664537365362,1.386369017958641,1.3220587506115435,-0.1753927767276764,-0.4007065892219543,-0.0478304363787174,walking,2026-03-04_14-07-26
1772633248359302700,1.767302734375,0.0183260764159262,1.3379558463148773,0.9751870946586132,-0.2995870411396026,-0.3525308966636657,-0.0706443414092063,walking,2026-03-04_14-07-26
1772633248369251800,1.777251953125,-0.1538563174333423,1.3130178044132887,0.6883709712177515,-0.3998193442821502,-0.3017545342445373,-0.0941944122314453,walking,2026-03-04_14-07-26
1772633248379200800,1.78720068359375,-0.255500728527084,1.288692049191147,0.388579630869627,-0.450179785490036,-0.2542012631893158,-0.112160250544548,walking,2026-03-04_14-07-26
1772633248389150700,1.797150634765625,-0.2883579460553824,1.2686471861585973,-0.0055143795073032,-0.4346807301044464,-0.1878619045019149,-0.1267623603343963,walking,2026-03-04_14-07-26
1772633248399099600,1.807099609375,-0.2895058739814907,1.2855159033730623,-0.369144278037548,-0.3644697666168213,-0.087424099445343,-0.1237599775195121,walking,2026-03-04_14-07-26
1772633248409048600,1.817048583984375,-0.2563031309511512,1.2475944612577556,-0.5937205106645822,-0.2506856918334961,0.030990956351161,-0.1073671579360961,walking,2026-03-04_14-07-26
1772633248418997800,1.826997802734375,-0.1356052059497684,1.1275063387177884,-0.6379261476159095,-0.115422174334526,0.1227655634284019,-0.0840221494436264,walking,2026-03-04_14-07-26
1772633248428946700,1.83694677734375,0.0651378772776573,0.8913137564465403,-0.4313374071002006,0.012635925784707,0.1587651073932647,-0.073659524321556,walking,2026-03-04_14-07-26
1772633248438895600,1.8468955078125,0.1690538134999573,0.6124558985337615,-0.0570703792214393,0.1135839372873306,0.1503921896219253,-0.0725573375821113,walking,2026-03-04_14-07-26
1772633248448844500,1.856844482421875,0.2769372651137411,0.3168831987939774,0.4597960243433713,0.1689806133508682,0.1243544444441795,-0.064822182059288,walking,2026-03-04_14-07-26
1772633248458793700,1.866793701171875,0.3849311182994395,0.0921061828978359,1.0206716655045749,0.1708843857049942,0.0870944038033485,-0.0568596497178077,walking,2026-03-04_14-07-26
1772633248468742700,1.87674267578125,0.4265205814030021,-0.1233244741126894,1.517206644180417,0.1227437406778335,0.0611285828053951,-0.0540569387376308,walking,2026-03-04_14-07-26
1772633248478691600,1.886691650390625,0.4729631105609237,-0.3157034874901175,1.8982915353804823,0.045665830373764,0.0326556414365768,-0.0486573353409767,walking,2026-03-04_14-07-26
1772633248488640800,1.896640869140625,0.5190882443327456,-0.4932656016163527,2.133591406595707,-0.0601910948753356,-0.0252385511994361,-0.0552569143474102,walking,2026-03-04_14-07-26
1772633248498589700,1.906589599609375,0.4667452589593827,-0.6048936465859412,2.238891271457076,-0.1631717681884765,-0.0775122195482254,-0.070863552391529,walking,2026-03-04_14-07-26
1772633248508538600,1.91653857421875,0.4640707790531218,-0.7354561091281473,2.126931364184618,-0.2433065474033355,-0.0982095152139663,-0.0819646716117858,walking,2026-03-04_14-07-26
1772633248518487800,1.92648779296875,0.5217893930502235,-0.8082499810516833,1.8704466661214827,-0.3038178980350494,-0.1151167675852775,-0.0914824604988098,walking,2026-03-04_14-07-26
1772633248528436700,1.936436767578125,0.4819339141324162,-0.7762251957595347,1.5817641642868518,-0.3409136235713959,-0.1455460488796234,-0.0983923003077507,walking,2026-03-04_14-07-26
1772633248538385700,1.9463857421875,0.4392716341655701,-0.7499578049503266,1.2796470113396643,-0.3501137197017669,-0.1730862706899643,-0.1077655404806137,walking,2026-03-04_14-07-26
1772633248548335900,1.9563359375,0.4073562275320291,-0.7379084707163274,0.9712830729573964,-0.3447213470935821,-0.1876015663146972,-0.1242430508136749,walking,2026-03-04_14-07-26
1772633248558284800,1.966284912109375,0.2944495409287512,-0.7214335751250386,0.6640361559063196,-0.3369485437870025,-0.1853911131620407,-0.1500274538993835,walking,2026-03-04_14-07-26
1772633248568233700,1.976233642578125,0.1904893271733075,-0.6805423234187066,0.4372738114118575,-0.3312142193317413,-0.1676893383264541,-0.177565336227417,walking,2026-03-04_14-07-26
1772633248578182700,1.9861826171875,0.1563556599684059,-0.6518078118436038,0.2807178065657615,-0.338126540184021,-0.142354667186737,-0.1906787604093551,walking,2026-03-04_14-07-26
1772633248588131600,1.996131591796875,0.2175534943833947,-0.644381899626553,0.1627490142673253,-0.3489421904087066,-0.1159105375409126,-0.1947227716445922,walking,2026-03-04_14-07-26
1772633248598080500,2.00608056640625,0.3330315658446401,-0.6270744987338781,0.0339385099589824,-0.3447737395763397,-0.0961448401212692,-0.1734325289726257,walking,2026-03-04_14-07-26
1772633248608029700,2.01602978515625,0.5326322741039097,-0.6525146449387074,-0.1234749884992837,-0.310974508523941,-0.0811171531677246,-0.1278799474239349,walking,2026-03-04_14-07-26
1772633248617978600,2.025978515625,0.7583952322974801,-0.746066642730683,-0.3652911097407341,-0.2249773889780044,-0.0511000454425811,-0.0644098222255706,walking,2026-03-04_14-07-26
1772633248627927800,2.035927734375,0.9117333710756153,-0.9586310966551304,-0.6695119569689035,-0.1102204471826553,-0.0103531507775187,-0.021757697686553,walking,2026-03-04_14-07-26
1772633248637876700,2.045876708984375,0.8420479134961962,-1.2999163307778536,-0.8438029404699802,-0.0128865214064717,-0.0036789083387702,-0.0395616218447685,walking,2026-03-04_14-07-26
1772633248647825700,2.05582568359375,0.586179374570027,-1.6521974445588885,-0.7834954790234565,0.0498295910656452,-0.0349622629582881,-0.1068868711590766,walking,2026-03-04_14-07-26
1772633248657774600,2.065774658203125,0.3259500831510871,-1.8998618534371257,-0.5788263083934784,0.0564946830272674,-0.0899217203259468,-0.1961300522089004,walking,2026-03-04_14-07-26
1772633248667723800,2.075723876953125,0.1464101661458611,-2.004940184502304,-0.4428600871115922,0.0282824859023094,-0.1700130850076675,-0.318711370229721,walking,2026-03-04_14-07-26
1772633248677672700,2.085672607421875,0.0151254537437111,-1.960445793737471,-0.4448714269340038,-0.000830081757158,-0.2386163473129272,-0.4324909150600433,walking,2026-03-04_14-07-26
1772633248687621600,2.09562158203125,0.089230006407015,-1.8098172792442144,-0.7285229488641023,-0.0034623495303094,-0.2474029064178466,-0.4957295358181,walking,2026-03-04_14-07-26
1772633248697570300,2.1055703125,0.3529423541687428,-1.4891889025725424,-1.1475970867186784,0.0170494448393583,-0.2007187902927398,-0.4979611039161682,walking,2026-03-04_14-07-26
1772633248707520300,2.115520263671875,0.6712021750781685,-1.0732523320913314,-1.467677766379714,0.0597963780164718,-0.1125218197703361,-0.4423103332519531,walking,2026-03-04_14-07-26
1772633248717469200,2.12546923828125,0.9777087220907212,-0.7861646982327103,-1.6659925995469091,0.1289993375539779,0.0237546861171722,-0.3514313399791717,walking,2026-03-04_14-07-26
1772633248727418000,2.135418212890625,1.1853601964671163,-0.549697536803782,-1.8039783439576624,0.2227029204368591,0.1658436506986618,-0.2396826893091201,walking,2026-03-04_14-07-26
1772633248737367300,2.1453671875,1.2728694800287483,-0.3134161072053015,-1.7437328418314455,0.3243439197540283,0.2674613893032074,-0.1272303760051727,walking,2026-03-04_14-07-26
1772633248747316500,2.15531640625,1.332278969722241,-0.1607620782338082,-1.4656144041091204,0.4097469747066498,0.2833114564418793,-0.0287221781909465,walking,2026-03-04_14-07-26
1772633248757265400,2.165265380859375,1.3628016798883675,-0.1924897802755236,-0.9972492888629436,0.473251074552536,0.2366636097431183,0.0481515452265739,walking,2026-03-04_14-07-26
1772633248767214300,2.17521435546875,1.3966110105097294,-0.2813216176778078,-0.5796557449549437,0.535063624382019,0.1826690882444381,0.1109989508986473,walking,2026-03-04_14-07-26
1772633248777163300,2.185163330078125,1.3978960818842052,-0.3341764250308275,-0.2542074007809162,0.5752315521240234,0.1229590028524398,0.1607901006937027,walking,2026-03-04_14-07-26
1772633248787112200,2.1951123046875,1.408055072326958,-0.3846929986946285,0.0619347703874111,0.5756251811981201,0.049013677984476,0.1987135112285614,walking,2026-03-04_14-07-26
1772633248797061000,2.20506103515625,1.4545651868283749,-0.4965583595514297,0.3667658584684133,0.5303131341934204,-0.0134947225451469,0.2263053357601165,walking,2026-03-04_14-07-26
1772633248807010300,2.21501025390625,1.4461178226090967,-0.5505370563678443,0.5888409219294786,0.4375669360160827,-0.0864685326814651,0.2426171898841858,walking,2026-03-04_14-07-26
1772633248816959500,2.22495947265625,1.3194237259328363,-0.5248045030876994,0.7153326279014348,0.3121664822101593,-0.1437501460313797,0.2416921854019165,walking,2026-03-04_14-07-26
1772633248826908400,2.234908447265625,1.055859152611345,-0.4239079877518117,0.6097007546067238,0.1691257208585739,-0.1202770546078682,0.2320672571659088,walking,2026-03-04_14-07-26
1772633248836857300,2.244857421875,0.765128047683835,-0.2921275277219712,0.2878594950139522,0.0238958597183227,-0.0398579873144626,0.2162849903106689,walking,2026-03-04_14-07-26
1772633248846806300,2.25480615234375,0.4888965196866542,-0.0920294643998146,-0.0679378101944923,-0.1250438094139099,0.0145298857241868,0.2081136256456375,walking,2026-03-04_14-07-26
1772633248856755200,2.264755126953125,0.3162179398182779,0.1340650638356804,-0.3535591708928346,-0.2698937356472015,0.0118116699159145,0.2002665698528289,walking,2026-03-04_14-07-26
1772633248866705400,2.274705322265625,0.1346393565922975,0.4113211856402456,-0.5890104332774877,-0.4007516205310821,-0.0545337945222854,0.1912477761507034,walking,2026-03-04_14-07-26
1772633248876654300,2.284654296875,-0.0538073588375002,0.6515082443751394,-0.8767547774791717,-0.489943653345108,-0.1618470400571823,0.1946431249380111,walking,2026-03-04_14-07-26
1772633248886603300,2.294603271484375,-0.2073780642624944,0.8747248790867627,-1.3296645494401451,-0.5158695578575134,-0.2606092989444732,0.1975741982460022,walking,2026-03-04_14-07-26
1772633248896552400,2.304552490234375,-0.3902666341084986,1.1178481374040246,-1.865287675923109,-0.4776977896690368,-0.300650030374527,0.1956312209367752,walking,2026-03-04_14-07-26
1772633248906501400,2.31450146484375,-0.5813346014199778,1.334729285483807,-2.369852231797576,-0.3802372813224792,-0.2369362860918045,0.192651942372322,walking,2026-03-04_14-07-26
1772633248916450300,2.3244501953125,-0.7314362059623003,1.5045713267520069,-2.7659529058218,-0.2270034402608871,-0.0838595479726791,0.2132976055145263,walking,2026-03-04_14-07-26
1772633248926399200,2.334399169921875,-0.792861711653322,1.687237339888513,-2.9617811828702685,-0.0204598475247621,0.0938941985368728,0.2472502440214157,walking,2026-03-04_14-07-26
1772633248936348200,2.34434814453125,-0.8032005887076258,1.8060726858884093,-2.862716997528076,0.2174096256494522,0.2333574593067169,0.2975293397903442,walking,2026-03-04_14-07-26
1772633248946297300,2.35429736328125,-0.7006458578359335,1.7862454111292958,-2.426601123979688,0.4399614632129669,0.2912417948246002,0.334903359413147,walking,2026-03-04_14-07-26
1772633248956246300,2.364246337890625,-0.6087615740604698,1.6560165644556284,-1.6663088258892296,0.6285653114318848,0.2620969116687774,0.3627820611000061,walking,2026-03-04_14-07-26
1772633248966195500,2.374195556640625,-0.5693915771046653,1.5086371148861943,-0.8806956240594387,0.792393147945404,0.1916280835866928,0.3837648332118988,walking,2026-03-04_14-07-26
1772633248976144400,2.384144287109375,-0.5987032309805974,1.3995257289126517,-0.2458458151489496,0.91541850566864,0.1180272698402404,0.3783284425735473,walking,2026-03-04_14-07-26
1772633248986093300,2.39409326171875,-0.7608154451817274,1.318794926510006,0.378349913278222,0.9756088256835938,0.0494591295719146,0.3514938950538635,walking,2026-03-04_14-07-26
1772633248996042200,2.404042236328125,-0.917638138139993,1.172837472567707,0.9418775302529334,0.9765107035636902,-0.0029831831343472,0.3152420222759247,walking,2026-03-04_14-07-26
1772633249005991200,2.4139912109375,-1.0564100644923746,1.0229964551903308,1.4037310716480016,0.9172295331954956,-0.0248474702239036,0.2718295753002167,walking,2026-03-04_14-07-26
1772633249015940000,2.423940185546875,-1.218803835581243,0.9105354665279388,1.7736510102331635,0.8051826357841492,-0.0230271238833665,0.2083013653755188,walking,2026-03-04_14-07-26
1772633249025890300,2.433890380859375,-1.381989049308747,0.7464609027452767,2.0473796885639426,0.6569803357124329,-0.0042915209196507,0.1291825771331787,walking,2026-03-04_14-07-26
1772633249035839200,2.443839111328125,-1.4934782703295348,0.53340106651932,2.201318788909912,0.4815069139003753,0.0503997802734375,0.0134465666487813,walking,2026-03-04_14-07-26
1772633249045788400,2.453788330078125,-1.6136315670602022,0.3487314584754407,2.2370932821244,0.2807900607585907,0.1279049515724182,-0.1076891794800758,walking,2026-03-04_14-07-26
1772633249055737300,2.4637373046875,-1.6947734344817698,0.3042119332693517,2.270606260147691,0.08012655377388,0.2006585747003555,-0.2241551280021667,walking,2026-03-04_14-07-26
1772633249065686300,2.473686279296875,-1.6308746705450117,0.2552816058836877,2.236781731957197,-0.1044472828507423,0.2290201634168625,-0.3093262314796448,walking,2026-03-04_14-07-26
1772633249075635200,2.48363525390625,-1.484067906296998,0.2923857402667403,2.16696760649681,-0.25642991065979,0.1978377699851989,-0.3676650524139404,walking,2026-03-04_14-07-26
1772633249085584400,2.49358447265625,-1.3240335578158495,0.4082375404112041,2.0353058044105765,-0.3735994100570678,0.1354841142892837,-0.4052023291587829,walking,2026-03-04_14-07-26
1772633249095533300,2.503533203125,-1.1525316935766488,0.4623904247507452,1.78313195528388,-0.4475180804729461,0.0514401197433471,-0.4326765537261963,walking,2026-03-04_14-07-26
1772633249105482200,2.513482177734375,-0.9605360534936188,0.5042253870479763,1.409679750919342,-0.4824129641056061,-0.0359728150069713,-0.4422844648361206,walking,2026-03-04_14-07-26
1772633249115431400,2.523431396484375,-0.7872415336839854,0.564244533072412,1.0042501075357195,-0.4791129529476166,-0.0898375287652015,-0.416611760854721,walking,2026-03-04_14-07-26
1772633249125380400,2.53338037109375,-0.6099284989479928,0.600040507466346,0.6280927358657121,-0.4383822977542877,-0.0834507346153259,-0.3663970828056335,walking,2026-03-04_14-07-26
1772633249135329300,2.543329345703125,-0.4611735963068902,0.5844761508487165,0.277151053994894,-0.3645497262477875,-0.0421569943428039,-0.2956646382808685,walking,2026-03-04_14-07-26
1772633249145278200,2.5532783203125,-0.3224157715450972,0.54495019614622,0.0254985983937978,-0.271855741739273,0.0117059713229537,-0.2068018913269043,walking,2026-03-04_14-07-26
1772633249155227100,2.56322705078125,-0.2011030756462365,0.4269378569670021,-0.0875128637582063,-0.175851970911026,0.0453300289809703,-0.1271952092647552,walking,2026-03-04_14-07-26
1772633249165176300,2.57317626953125,-0.1698542431626468,0.2027693283580243,-0.0332411753445863,-0.0999321714043617,0.0381983518600463,-0.0836693048477172,walking,2026-03-04_14-07-26
1772633249175125200,2.583125244140625,-0.255442860860005,-0.0538533168710768,0.2121346842050552,-0.0546924248337745,0.002534742699936,-0.0676833465695381,walking,2026-03-04_14-07-26
1772633249185075200,2.5930751953125,-0.3033558278966695,-0.3294204626753926,0.5650812761574984,-0.0480789951980114,-0.0609755218029022,-0.0703851282596588,walking,2026-03-04_14-07-26
1772633249195024100,2.603024169921875,-0.3459374438427388,-0.5327181988216936,0.8437047407925129,-0.0630808472633361,-0.1338312178850174,-0.093852087855339,walking,2026-03-04_14-07-26
1772633249204973300,2.612973388671875,-0.3869534909725189,-0.6348705594375729,0.9353262089133262,-0.0759801343083381,-0.162549152970314,-0.112595684826374,walking,2026-03-04_14-07-26
1772633249214922200,2.622922119140625,-0.3874094180464744,-0.6476248270705341,0.8748433908998966,-0.0885211825370788,-0.1551256030797958,-0.1245856210589408,walking,2026-03-04_14-07-26
1772633249224871400,2.632871337890625,-0.3374618033770472,-0.6293146788761019,0.844239578321576,-0.1196998655796051,-0.1686970740556717,-0.1375088840723037,walking,2026-03-04_14-07-26
1772633249234820400,2.6428203125,-0.2975652617964893,-0.6072241353601217,0.8569675424695015,-0.148159310221672,-0.1812142431735992,-0.1426508128643036,walking,2026-03-04_14-07-26
1772633249244769300,2.652769287109375,-0.23548487239331,-0.5978462122924626,0.677019556120038,-0.1573581248521804,-0.1366236060857772,-0.1347167193889618,walking,2026-03-04_14-07-26
1772633249254718200,2.66271826171875,-0.268171044203639,-0.4667999117560684,0.432131187826395,-0.1612515747547149,-0.0793543383479118,-0.1179483607411384,walking,2026-03-04_14-07-26
1772633249264667400,2.67266748046875,-0.367243339787051,-0.3410824050270021,0.3345937736600637,-0.1817275583744049,-0.0728804618120193,-0.1064261943101883,walking,2026-03-04_14-07-26
1772633249274616300,2.6826162109375,-0.4051341675683855,-0.3113463151939213,0.3470890980958938,-0.1957845687866211,-0.0865100398659706,-0.0934901610016822,walking,2026-03-04_14-07-26
1772633249284565200,2.692565185546875,-0.3768968649256974,-0.3064756404176354,0.2726175022184848,-0.1833358854055404,-0.062617227435112,-0.0646904706954956,walking,2026-03-04_14-07-26
1772633249294514400,2.702514404296875,-0.3465595212638377,-0.2659443080648779,0.1157616376429796,-0.1510105282068252,-0.0175150465220212,-0.030718058347702,walking,2026-03-04_14-07-26
1772633249304463400,2.71246337890625,-0.3774561793088912,-0.2353786355398595,0.0534042579293251,-0.1137371957302093,0.0317526347935199,0.0009125715587288,walking,2026-03-04_14-07-26
1772633249314412300,2.722412353515625,-0.4437620043873787,-0.278492970123142,0.124392103344202,-0.080936811864376,0.0565061718225479,0.0174865610897541,walking,2026-03-04_14-07-26
1772633249324361200,2.732361328125,-0.4427984931174665,-0.3917245047666132,0.3460743680953979,-0.0590251237154006,0.0589229874312877,0.0253881607204675,walking,2026-03-04_14-07-26
1772633249334310400,2.742310302734375,-0.3781497145310044,-0.5351483485780656,0.6084416944563389,-0.0542444363236427,0.0395831614732742,0.0326141193509101,walking,2026-03-04_14-07-26
1772633249344260000,2.752260009765625,-0.2767052099235356,-0.5905123622730374,0.83432900968194,-0.0631535053253173,0.0124111976474523,0.0431674271821975,walking,2026-03-04_14-07-26
1772633249354209300,2.762209228515625,-0.2180585943613201,-0.6151216106116771,0.9879343480288982,-0.0859253108501434,-0.0059991916641592,0.0586355067789554,walking,2026-03-04_14-07-26
1772633249364158500,2.772158447265625,-0.1190070493049919,-0.6224164437949657,1.039569258198142,-0.1091392859816551,-0.0253526493906974,0.0834772065281868,walking,2026-03-04_14-07-26
1772633249374107400,2.782107421875,0.0054785044763237,-0.6429699870020151,1.0233908613353968,-0.1270287185907364,-0.0346519611775875,0.1114056929945945,walking,2026-03-04_14-07-26
1772633249384056300,2.792056396484375,0.0625973259493708,-0.6576489390872419,0.923341756609082,-0.1509588211774826,-0.0418020151555538,0.1361043900251388,walking,2026-03-04_14-07-26
1772633249394005200,2.802005126953125,0.068252063775435,-0.6927016938984394,0.8125275122404098,-0.1740539222955703,-0.0525309108197689,0.1506560891866684,walking,2026-03-04_14-07-26
1772633249403954200,2.8119541015625,0.077750179156661,-0.755195997864753,0.6791875478088856,-0.1907093375921249,-0.0632669180631637,0.1550841182470321,walking,2026-03-04_14-07-26
1772633249413903400,2.8219033203125,0.0620708543898537,-0.7801492373354733,0.4137538196146488,-0.190328449010849,-0.073198452591896,0.1548335403203964,walking,2026-03-04_14-07-26
1772633249423852300,2.831852294921875,0.0038610593423247,-0.7394130300603806,0.0486491723567247,-0.1759830713272094,-0.0628004074096679,0.1527461558580398,walking,2026-03-04_14-07-26
1772633249433801500,2.841801513671875,-0.0987155545676127,-0.6888543708205223,-0.3125666507691145,-0.1580171734094619,-0.0306108277291059,0.1412471383810043,walking,2026-03-04_14-07-26
1772633249443750400,2.85175048828125,-0.2125171807166188,-0.6658161711908877,-0.6267267082095146,-0.1515808552503585,-0.0241590533405542,0.1195447817444801,walking,2026-03-04_14-07-26
1772633249453699300,2.86169921875,-0.2587402219049632,-0.622765549493581,-0.8461673315137624,-0.1538843512535095,-0.0385582149028778,0.1056899726390838,walking,2026-03-04_14-07-26
1772633249463648300,2.871648193359375,-0.2357411121767014,-0.5616420954890549,-1.0835188745617863,-0.1556356400251388,-0.0239550378173589,0.1125976890325546,walking,2026-03-04_14-07-26
1772633249473597200,2.88159716796875,-0.2002105472533032,-0.5099469795651733,-1.4003361685127018,-0.149607166647911,0.0504272878170013,0.1403184682130813,walking,2026-03-04_14-07-26
1772633249483546400,2.89154638671875,-0.1461393863804638,-0.5160268840007484,-1.7245751368969675,-0.1254054307937622,0.1706168055534362,0.1842009723186493,walking,2026-03-04_14-07-26
1772633249493495300,2.901495361328125,-0.0759330101994797,-0.6590174509614706,-1.9874755472213028,-0.0838830694556236,0.2693020403385162,0.2280333936214447,walking,2026-03-04_14-07-26
1772633249503445500,2.911445556640625,-0.0607421265367418,-0.7983532948069274,-2.1020640494316813,-0.0305945482105016,0.2913623452186584,0.2553808689117431,walking,2026-03-04_14-07-26
1772633249513394400,2.92139453125,-0.0957435895521193,-0.8913685553736984,-2.00365043695271,0.024819266051054,0.2489403635263443,0.2675066888332367,walking,2026-03-04_14-07-26
1772633249523343400,2.93134326171875,-0.1222172435231506,-1.016044736356288,-1.9072271215081211,0.0856258869171142,0.2026213407516479,0.2782669365406036,walking,2026-03-04_14-07-26
1772633249533292300,2.941292236328125,-0.1663064144879579,-1.0998305424153805,-1.9433125803679228,0.1409983336925506,0.1618567258119583,0.2645620107650757,walking,2026-03-04_14-07-26
1772633249543241200,2.9512412109375,-0.2712862536147237,-1.1540820648238062,-1.941217653915286,0.1658943742513656,0.1223607286810875,0.2422039955854416,walking,2026-03-04_14-07-26
1772633249553190100,2.961190185546875,-0.3776072782173753,-1.1156510657511651,-1.853382134073973,0.1570971757173538,0.0741569623351097,0.2066402733325958,walking,2026-03-04_14-07-26
1772633249563139300,2.971139404296875,-0.4432406839270144,-1.077336971056461,-1.7118541870117183,0.1089456379413604,0.0033818581141531,0.1484664529561996,walking,2026-03-04_14-07-26
1772633249573088500,2.981088623046875,-0.5272659978304058,-0.9233731746606528,-1.6154653583586216,0.0460009388625621,-0.0755887031555175,0.0662455782294273,walking,2026-03-04_14-07-26
1772633249583037400,2.991037353515625,-0.5949739447917789,-0.6794587659657001,-1.6918202837646006,-0.0037876539863646,-0.1309065520763397,-0.0042525525204837,walking,2026-03-04_14-07-26
1772633249592986400,3.000986328125,-0.4698375258862972,-0.3766451551869511,-1.9218004212617876,-0.0124928634613752,-0.1298975795507431,-0.0365784727036953,walking,2026-03-04_14-07-26
1772633249602935300,3.010935302734375,-0.2411945552770048,0.0660281771808862,-2.273297398927808,0.0169318709522485,-0.1026012450456619,-0.0364623591303825,walking,2026-03-04_14-07-26
1772633249612884200,3.02088427734375,-0.0534322419147938,0.5189107688739896,-2.460562430292368,0.0658197402954101,-0.0808243602514267,-0.0146614573895931,walking,2026-03-04_14-07-26
1772633249622833200,3.030833251953125,0.1392150670100003,0.831534264396876,-2.5005226847589013,0.1346014589071273,-0.0415456593036651,0.0238912608474493,walking,2026-03-04_14-07-26
1772633249632782300,3.0407822265625,0.2648688608530908,1.0766152326531708,-2.4710236185520884,0.2297149747610092,0.0404472611844539,0.0730793178081512,walking,2026-03-04_14-07-26
1772633249642731300,3.050731201171875,0.3183439189963042,1.3391498784050344,-2.344991346785426,0.3667854964733124,0.1629044562578201,0.1337011158466339,walking,2026-03-04_14-07-26
1772633249652680400,3.060680419921875,0.4159822362538427,1.5275211174458263,-2.118361104238033,0.530024528503418,0.2996206283569336,0.2095623612403869,walking,2026-03-04_14-07-26
1772633249662629400,3.07062939453125,0.6037541942272335,1.5819276842854917,-1.640690400508046,0.6974545121192932,0.4189225137233734,0.2786924242973327,walking,2026-03-04_14-07-26
1772633249672579300,3.080579345703125,0.735320134723559,1.4759953667394816,-0.9054600629597902,0.8381921052932739,0.4816021621227264,0.3200596570968628,walking,2026-03-04_14-07-26
1772633249682528300,3.0905283203125,0.8143387994460761,1.294478815899044,-0.0642974078655242,0.9347966909408568,0.474606305360794,0.3453240096569061,walking,2026-03-04_14-07-26
1772633249692477200,3.100477294921875,0.9282008870780468,1.146992837215215,0.7926812405198812,0.969096064567566,0.4055226445198059,0.3589139580726623,walking,2026-03-04_14-07-26
1772633249702427400,3.110427490234375,1.0130606059789655,1.1236170761942863,1.6274866355419155,0.9420359134674072,0.2875171899795532,0.3679553866386413,walking,2026-03-04_14-07-26
1772633249712376300,3.120376220703125,1.095512825346738,1.1018402748025953,2.2711107025384902,0.8527075052261353,0.1517333984375,0.3837272226810455,walking,2026-03-04_14-07-26
1772633249722325200,3.1303251953125,1.1407184331208466,1.0366082164354622,2.67566882378459,0.732957124710083,0.0318043418228626,0.3832838237285614,walking,2026-03-04_14-07-26
1772633249732274200,3.140274169921875,1.1116265594754366,1.071327355378121,2.9325270313352343,0.5693281292915344,-0.0601148158311843,0.350488007068634,walking,2026-03-04_14-07-26
1772633249742223400,3.150223388671875,0.9454941133148967,1.0788942835010586,3.023345950901508,0.3809643685817718,-0.1553590446710586,0.3126721680164337,walking,2026-03-04_14-07-26
1772633249752172300,3.16017236328125,0.8264939321421086,1.124151036940515,3.022738048136234,0.1730800718069076,-0.2197083234786987,0.2911162376403808,walking,2026-03-04_14-07-26
1772633249762121200,3.170121337890625,0.8698146760176867,1.124764492663741,2.8632985968083142,-0.0345192030072212,-0.2754554748535156,0.2960436344146728,walking,2026-03-04_14-07-26
1772633249772070400,3.1800703125,0.8893889989290386,1.1654486774906516,2.571130590945482,-0.2322870939970016,-0.3117299377918243,0.3050339519977569,walking,2026-03-04_14-07-26
1772633249782019300,3.190019287109375,0.6651389295164495,1.2503932981960475,2.11385385594666,-0.4133226573467254,-0.3439704179763794,0.2851350903511047,walking,2026-03-04_14-07-26
1772633249791968300,3.19996826171875,0.3206664436597377,1.2504254468999805,1.6152508388251066,-0.5720590353012085,-0.3695239424705505,0.2400985062122345,walking,2026-03-04_14-07-26
1772633249801917400,3.20991748046875,0.0711744905607774,1.193564764906466,1.1376917787760497,-0.698076069355011,-0.3779019713401794,0.1958362311124801,walking,2026-03-04_14-07-26
1772633249811866400,3.219866455078125,-0.0360968935692682,1.1896299096755685,0.6001584347575902,-0.7608873248100281,-0.3307732343673706,0.167185753583908,walking,2026-03-04_14-07-26
1772633249821815300,3.229815185546875,-0.0891450315373018,1.27214847227782,-0.0628261662691831,-0.7382225394248962,-0.2032296657562255,0.1568279266357422,walking,2026-03-04_14-07-26
1772633249831765500,3.239765625,-0.1266935121543705,1.3545080449260771,-0.732199591550231,-0.6334080696105957,-0.0211284290999174,0.162710428237915,walking,2026-03-04_14-07-26
1772633249841714400,3.24971435546875,-0.1531974881984293,1.390761115437746,-1.1983481997907162,-0.4695879220962524,0.1485578119754791,0.1788670271635055,walking,2026-03-04_14-07-26
1772633249851663400,3.259663330078125,-0.1176754719076678,1.380829065618664,-1.3398890063345432,-0.2751149833202362,0.2720818519592285,0.2149479836225509,walking,2026-03-04_14-07-26
1772633249861612300,3.2696123046875,0.041992344816029,1.2253639247491954,-1.1778542778164147,-0.0891030430793762,0.3279597759246826,0.2524157464504242,walking,2026-03-04_14-07-26
1772633249871561200,3.279561279296875,0.1832472836231812,0.9855940685130656,-0.6805828015595674,0.042668305337429,0.3049873411655426,0.2696141898632049,walking,2026-03-04_14-07-26
1772633249881510100,3.28951025390625,0.2227843077089637,0.7031077909700572,0.0400379958778619,0.1173095181584358,0.2412267178297042,0.2830293178558349,walking,2026-03-04_14-07-26
1772633249891459300,3.299459228515625,0.245465437529236,0.4255746057897805,0.6731938603520393,0.1389981359243393,0.1899870038032531,0.2951700091361999,walking,2026-03-04_14-07-26
1772633249901408300,3.309408203125,0.1908819797527045,0.2152666986204683,1.1483528735220432,0.1122898086905479,0.139654591679573,0.2892420887947082,walking,2026-03-04_14-07-26
1772633249911357400,3.319357421875,0.1011241866119205,0.0844639975816011,1.5303426046073436,0.0489882081747055,0.0896528586745262,0.2837454378604889,walking,2026-03-04_14-07-26
1772633249921306400,3.329306396484375,0.1019143871415406,-0.08711904213503,1.793066489320993,-0.033027034252882,0.0609647594392299,0.2846964597702026,walking,2026-03-04_14-07-26
1772633249931255300,3.33925537109375,0.1475344940006732,-0.2202712289094924,1.905336777716875,-0.1247567385435104,0.0581089183688163,0.2867524921894073,walking,2026-03-04_14-07-26
1772633249941204200,3.349204345703125,0.0934711145754903,-0.302002294395864,1.887654990553856,-0.2177833467721939,0.0660802945494651,0.2844581604003906,walking,2026-03-04_14-07-26
1772633249951153200,3.359153076171875,0.0245691355239599,-0.4088002888604998,1.8367805433630944,-0.2960408926010132,0.0717925876379013,0.2717905640602112,walking,2026-03-04_14-07-26
1772633249961102300,3.369102294921875,-0.0759713329158723,-0.5265292810536921,1.6972861479550598,-0.3540727794170379,0.0546167977154254,0.2416648864746093,walking,2026-03-04_14-07-26
1772633249971051300,3.37905126953125,-0.2278291700083762,-0.6105798755288123,1.4735042805761098,-0.3856480121612549,0.0082566235214471,0.190653920173645,walking,2026-03-04_14-07-26
1772633249981000200,3.389000244140625,-0.3347779711205512,-0.6552899548709392,1.182116611436009,-0.3831475675106048,-0.0413647256791591,0.1373337060213089,walking,2026-03-04_14-07-26
1772633249990950400,3.398950439453125,-0.288425019942224,-0.648060734269768,0.8553577691853046,-0.3540331721305847,-0.0755229592323303,0.1056943759322166,walking,2026-03-04_14-07-26
1772633250000899300,3.4088994140625,-0.2330854100361466,-0.5886863158896565,0.5677104556173086,-0.3179699778556824,-0.1007010117173194,0.0798095166683197,walking,2026-03-04_14-07-26
1772633250010848300,3.41884814453125,-0.2260267236962914,-0.5344684034898877,0.3799550103873014,-0.2689254879951477,-0.0944025591015815,0.053915586322546,walking,2026-03-04_14-07-26
1772633250020797200,3.428797119140625,-0.2440211570050567,-0.5322111260823905,0.162719788172841,-0.2135341465473175,-0.0529344752430915,0.0231757815927267,walking,2026-03-04_14-07-26
1772633250030746000,3.43874609375,-0.2734702831229195,-0.5830509403511881,-0.0561965189963579,-0.1549899578094482,0.0069995899684727,-0.0043767821043729,walking,2026-03-04_14-07-26
1772633250040695300,3.4486953125,-0.2245484313046559,-0.630498920224607,-0.1677326478987932,-0.1024433895945549,0.0640823170542717,-0.021812230348587,walking,2026-03-04_14-07-26
1772633250050644500,3.45864453125,-0.109234793157503,-0.7266152155466378,-0.1637900477528572,-0.0682098716497421,0.1006017327308654,-0.0399659797549247,walking,2026-03-04_14-07-26
1772633250060593400,3.468593505859375,0.0012310761649161,-0.8220232164688408,-0.0234323135137557,-0.0598467476665973,0.0964045897126197,-0.0684721916913986,walking,2026-03-04_14-07-26
1772633250070542300,3.478542236328125,0.0644757601071149,-0.9204689776517452,0.1787082154214382,-0.0767035856842994,0.0437890067696571,-0.0980965718626976,walking,2026-03-04_14-07-26
1772633250080491300,3.4884912109375,0.1423424783155322,-1.012025856103748,0.2748451151400804,-0.0905637443065643,-0.0265892837196588,-0.1227193623781204,walking,2026-03-04_14-07-26
1772633250090440200,3.498440185546875,0.2362266306713223,-1.0377145702421664,0.1405664085537195,-0.08158640563488,-0.0869745537638664,-0.136454164981842,walking,2026-03-04_14-07-26
1772633250100389000,3.50838916015625,0.3079672672148794,-0.9900063319973648,-0.1365115802049636,-0.0559785105288028,-0.1168160736560821,-0.1486866027116775,walking,2026-03-04_14-07-26
1772633250110338300,3.51833837890625,0.2923695197843015,-0.9942322791293264,-0.4496364493787288,-0.027583535760641,-0.106140412390232,-0.1722776293754577,walking,2026-03-04_14-07-26
1772633250120287500,3.52828759765625,0.294583250311017,-1.05830216184929,-0.6493173102021217,0.0004193382337689,-0.0899747535586357,-0.1959893554449081,walking,2026-03-04_14-07-26
1772633250130236400,3.538236328125,0.3563416412182152,-1.1149579689204692,-0.8118868762493133,0.0294223111122846,-0.072294995188713,-0.2224193513393402,walking,2026-03-04_14-07-26
1772633250140185300,3.548185302734375,0.4038855922793969,-1.0293633598737415,-0.9158674752056598,0.0449557304382324,-0.0476746037602424,-0.2311840802431106,walking,2026-03-04_14-07-26
1772633250150134300,3.55813427734375,0.4315154305482283,-0.9209363029025496,-0.938150034162402,0.0434964150190353,-0.0155192147940397,-0.2255026996135711,walking,2026-03-04_14-07-26
1772633250160084200,3.568084228515625,0.528045823096484,-0.8605166132532059,-0.9014736236721276,0.0386196337640285,0.0229845009744167,-0.2008388936519622,walking,2026-03-04_14-07-26
1772633250170033200,3.578033203125,0.650655500003323,-0.7800614129215478,-0.8861579811185598,0.0495011806488037,0.0666154399514198,-0.1594049632549286,walking,2026-03-04_14-07-26
1772633250179982000,3.587982177734375,0.808695167535916,-0.7406377495497465,-0.926840704640746,0.0781482681632042,0.106315977871418,-0.1010401919484138,walking,2026-03-04_14-07-26
1772633250189931500,3.597931640625,0.9677091599933804,-0.769140644326061,-0.9527584052294492,0.1227471157908439,0.110831581056118,-0.0353442728519439,walking,2026-03-04_14-07-26
1772633250199880400,3.60788037109375,1.1229371311061085,-0.8434121875867248,-0.9138748400837182,0.1706264913082122,0.0737345516681671,0.0187828782945871,walking,2026-03-04_14-07-26
1772633250209829400,3.617829345703125,1.0930227620966733,-0.8953199233479797,-0.8167150270581245,0.1984835118055343,0.0024078108835965,0.0532374195754528,walking,2026-03-04_14-07-26
1772633250219778300,3.6277783203125,0.9825709943648429,-0.9410045468106866,-0.6766898857742547,0.2052623182535171,-0.0983709990978241,0.0774527415633201,walking,2026-03-04_14-07-26
1772633250229727200,3.637727294921875,0.7993393101695925,-0.9310717663392424,-0.5904623856514692,0.1893870383501052,-0.1841835379600525,0.0797494873404502,walking,2026-03-04_14-07-26
1772633250239676200,3.64767626953125,0.5300306402381509,-0.8794000312909483,-0.621067367273569,0.1694237142801284,-0.2100755870342254,0.0747113153338432,walking,2026-03-04_14-07-26
1772633250249625000,3.657625,0.3590826470220461,-0.8038575913116336,-0.7898013011693954,0.1487019658088684,-0.1899317055940628,0.0817757919430732,walking,2026-03-04_14-07-26
1772633250259574500,3.667574462890625,0.2955430352538823,-0.6386169063590467,-0.9932043973863124,0.1279418319463729,-0.1655294299125671,0.0935496240854263,walking,2026-03-04_14-07-26
1772633250269523500,3.6775234375,0.2079848345166072,-0.4855665715463459,-1.1274480326592922,0.0966063290834426,-0.1515611559152603,0.1003269776701927,walking,2026-03-04_14-07-26
1772633250279472400,3.687472412109375,0.0717651499303057,-0.3301763956092298,-1.1960036824911833,0.0577068626880645,-0.1576603353023529,0.0993357524275779,walking,2026-03-04_14-07-26
1772633250289421300,3.69742138671875,-0.0990782869327813,-0.1496557239383459,-1.2554390372782944,0.0189109109342098,-0.1647295355796814,0.0892764255404472,walking,2026-03-04_14-07-26
1772633250299370200,3.707370361328125,-0.3138554484706372,0.062596010775119,-1.3504326121807098,-0.0119609832763671,-0.1720114201307296,0.0610418580472469,walking,2026-03-04_14-07-26
1772633250309319200,3.717319091796875,-0.5109338351780548,0.265127438724041,-1.4309136776059863,-0.0381965823471546,-0.1941179782152176,0.0234176442027091,walking,2026-03-04_14-07-26
1772633250319269400,3.727269287109375,-0.7076546406194567,0.5178780648253858,-1.535125747230649,-0.0420459173619747,-0.1916617453098297,-0.0174501612782478,walking,2026-03-04_14-07-26
1772633250329218300,3.73721826171875,-0.8554804457169025,0.8616675368539989,-1.7669459596365689,0.0054636355489492,-0.1367341428995132,-0.0411217473447322,walking,2026-03-04_14-07-26
1772633250339167200,3.747167236328125,-0.8834905885402112,1.283858053163439,-2.044111626678705,0.1154977306723594,-0.0590643808245658,-0.0435457564890384,walking,2026-03-04_14-07-26
1772633250349116400,3.757116455078125,-0.7700557864096015,1.6490179377399383,-2.195835389062762,0.2928589880466461,0.0376841835677623,-0.0156864114105701,walking,2026-03-04_14-07-26
1772633250359065300,3.7670654296875,-0.5586583304379135,1.846345221174508,-2.232757298746705,0.5036457777023315,0.1470378339290619,0.0420152321457862,walking,2026-03-04_14-07-26
1772633250369014300,3.77701416015625,-0.3835460571492091,1.9238275431752203,-2.037944336220622,0.6979825496673584,0.2233022898435592,0.0963060781359672,walking,2026-03-04_14-07-26
1772633250378963200,3.786963134765625,-0.3172807832768187,1.9306294782750308,-1.449262404245138,0.8315624594688416,0.2392714023590088,0.1416890025138855,walking,2026-03-04_14-07-26
1772633250388912000,3.796912109375,-0.3290417290234938,1.7760811599895356,-0.6179384215980768,0.9042659997940063,0.2077736109495163,0.16168974339962,walking,2026-03-04_14-07-26
1772633250398861300,3.806861328125,-0.4619275564793497,1.5002001259304585,0.160517309692502,0.905868411064148,0.1561964303255081,0.1444077044725418,walking,2026-03-04_14-07-26
1772633250408810500,3.816810546875,-0.6823983996141701,1.238173721961677,0.8142547744244336,0.8421424627304077,0.0872644856572151,0.089489996433258,walking,2026-03-04_14-07-26
1772633250418759400,3.826759521484375,-0.9622749330502004,0.983908161252737,1.3563725236237048,0.7177848219871521,0.009798988699913,0.0072092404589056,walking,2026-03-04_14-07-26
1772633250428708400,3.836708251953125,-1.2077039840918034,0.8061033244118094,1.7424410484552382,0.5585829019546509,-0.055331066250801,-0.0923972725868225,walking,2026-03-04_14-07-26
1772633250438657300,3.8466572265625,-1.3555810809850692,0.6473781588330865,1.943185154595971,0.3881227374076843,-0.0947836712002754,-0.2156078815460205,walking,2026-03-04_14-07-26
1772633250448606200,3.856606201171875,-1.4976375819660723,0.4858808981925249,1.95068398591876,0.2202153950929641,-0.0811423286795616,-0.3546660840511322,walking,2026-03-04_14-07-26
1772633250458555100,3.86655517578125,-1.5709017017498612,0.4395549080863595,1.8589473669856784,0.064171202480793,-0.0245341807603836,-0.4952383637428283,walking,2026-03-04_14-07-26
1772633250468504000,3.876504150390625,-1.4865810581617056,0.4073775625810026,1.748653931620717,-0.0843811258673667,0.0712753981351852,-0.5995318293571472,walking,2026-03-04_14-07-26
1772633250478453500,3.88645361328125,-1.230477760631591,0.4692755080893635,1.6260978115320204,-0.219030812382698,0.1829646378755569,-0.6536304354667664,walking,2026-03-04_14-07-26
1772633250488403200,3.8964033203125,-0.9358302859779448,0.5973480535119772,1.519043796479702,-0.3271484076976776,0.2863201797008514,-0.6621597409248352,walking,2026-03-04_14-07-26
1772633250498352400,3.906352294921875,-0.6270102013260126,0.6992196974903345,1.384416130325198,-0.3925497829914093,0.3461369276046753,-0.6411511301994324,walking,2026-03-04_14-07-26
1772633250508301300,3.91630126953125,-0.3822677443090826,0.75822747451514,1.2599041999936105,-0.4018934965133667,0.3504377007484436,-0.6063999533653259,walking,2026-03-04_14-07-26
1772633250518250200,3.926250244140625,-0.1397040195707231,0.7160800852678716,1.1341256107270716,-0.3663741052150726,0.3037285208702087,-0.5551550984382629,walking,2026-03-04_14-07-26
1772633250528199200,3.93619921875,0.1004874961435794,0.6039880760483444,1.0037304675757883,-0.2924131453037262,0.2152379602193832,-0.497081458568573,walking,2026-03-04_14-07-26
1772633250538148400,3.9461484375,0.2290555699981749,0.474456563989073,0.8953513413995504,-0.1964240372180938,0.1313017904758453,-0.4303724765777588,walking,2026-03-04_14-07-26
1772633250548097300,3.95609716796875,0.311314677946642,0.3272165228903293,0.8409452129513025,-0.1050329655408859,0.0703037083148956,-0.3645602166652679,walking,2026-03-04_14-07-26
1772633250558046500,3.96604638671875,0.3151838475301861,0.148002988295257,0.904311477446556,-0.0477568842470645,0.032476432621479,-0.3127108514308929,walking,2026-03-04_14-07-26
1772633250567995400,3.975995361328125,0.2619098649170249,-0.0729876409299671,1.1202519836753606,-0.0431090965867042,0.0129379443824291,-0.2710339725017547,walking,2026-03-04_14-07-26
1772633250577944300,3.9859443359375,0.1663243154708296,-0.3254826848350465,1.3614835830271244,-0.0751642286777496,0.0050675040110945,-0.2394565939903259,walking,2026-03-04_14-07-26
1772633250587893200,3.995893310546875,0.0363449865788221,-0.5453201985023916,1.5789987912267445,-0.1478498876094818,-0.0128607042133808,-0.2231366336345672,walking,2026-03-04_14-07-26
1772633250597842200,4.00584228515625,-0.0987912866849452,-0.6840855489835143,1.7679408158928154,-0.2406607866287231,-0.0468578189611434,-0.2270011454820633,walking,2026-03-04_14-07-26
1772633250607791000,4.015791015625,-0.2123695158742368,-0.8164249580703675,1.771074437743425,-0.3212646842002868,-0.0964850634336471,-0.2438435852527618,walking,2026-03-04_14-07-26
1772633250617740300,4.025740234375,-0.2559049254138023,-0.8518617437630891,1.569566361492872,-0.3737726211547851,-0.1584344506263733,-0.2537079453468323,walking,2026-03-04_14-07-26
1772633250627689500,4.035689453125,-0.1969452253144234,-0.7095683652862906,1.2292740839302538,-0.3913467824459076,-0.2137019634246826,-0.2377777695655822,walking,2026-03-04_14-07-26
1772633250637638400,4.045638427734375,-0.0578328880265355,-0.475037432616949,0.8190466848760842,-0.37887042760849,-0.2504368126392364,-0.1966591030359268,walking,2026-03-04_14-07-26
1772633250647588400,4.05558837890625,0.1011242596771568,-0.2504344581134617,0.4751134204626083,-0.3564720749855041,-0.2849226593971252,-0.1378993541002273,walking,2026-03-04_14-07-26
1772633250657537300,4.065537353515625,0.216744369957596,-0.1131527703188359,0.2737123117178678,-0.3247591555118561,-0.2980682849884033,-0.0662629902362823,walking,2026-03-04_14-07-26
1772633250667486200,4.075486328125,0.209685756682977,-0.0421460740730166,0.0807458538413047,-0.2830178439617157,-0.2662763893604278,-0.0008966566529124,walking,2026-03-04_14-07-26
1772633250677435400,4.085435302734375,0.1138872951384633,0.0464120609544217,-0.097853055986762,-0.2392261773347854,-0.2098759412765503,0.0534699112176895,walking,2026-03-04_14-07-26
1772633250687384300,4.09538427734375,-0.0013674158956855,0.0720714028678834,-0.195195239841938,-0.1916678994894027,-0.1332612335681915,0.1027312353253364,walking,2026-03-04_14-07-26
1772633250697332700,4.105332763671875,-0.0507170646719634,0.0475862193003296,-0.21108137575984,-0.1393178701400756,-0.0535501539707183,0.1457426100969314,walking,2026-03-04_14-07-26
1772633250707281700,4.11528173828125,-0.0435264225155115,-0.0093326226212084,-0.1471007787585258,-0.0878851264715194,0.0064463661983609,0.1835999637842178,walking,2026-03-04_14-07-26
1772633250717230600,4.125230712890625,-0.0047925680387765,-0.0924422829844057,0.0177075061261653,-0.0464900210499763,0.0354814827442169,0.2185792475938797,walking,2026-03-04_14-07-26
1772633250727179500,4.135179443359375,0.0307150909330695,-0.1854847238190472,0.2972346416026353,-0.028209863230586,0.0324960798025131,0.2302203029394149,walking,2026-03-04_14-07-26
1772633250737128400,4.14512841796875,0.008025923936814,-0.2974108749523759,0.567976413077116,-0.024433234706521,0.0101763950660824,0.2292514443397522,walking,2026-03-04_14-07-26
1772633250747077400,4.155077392578125,0.017431173402816,-0.3645753626868128,0.729884884867072,-0.0224862024188041,-0.0165034085512161,0.223694771528244,walking,2026-03-04_14-07-26
1772633250757026600,4.165026611328125,0.0851047066379338,-0.3513914714649319,0.7887070761919022,-0.0230553224682807,-0.035416379570961,0.2256210446357727,walking,2026-03-04_14-07-26
1772633250766975500,4.1749755859375,0.1544563291531056,-0.3085691055655479,0.7405179225623607,-0.0278448741883039,-0.037073902785778,0.241929218173027,walking,2026-03-04_14-07-26
1772633250776924700,4.184924560546875,0.2364873274341225,-0.2642310744062066,0.5798363622188568,-0.0334004983305931,-0.0130892097949981,0.2612331509590149,walking,2026-03-04_14-07-26
1772633250786873600,4.19487353515625,0.2891282728407531,-0.2209320309057831,0.3740349726885557,-0.0453539602458477,0.0263108909130096,0.2738694846630096,walking,2026-03-04_14-07-26
1772633250796822500,4.204822509765625,0.2480686057649552,-0.2341536237895488,0.2831733830243348,-0.076834388077259,0.0590059868991375,0.2792000770568847,walking,2026-03-04_14-07-26
1772633250806771500,4.214771484375,0.2456038961518555,-0.3198728821292519,0.2108084040373563,-0.1226052045822143,0.0850147157907486,0.2858870923519134,walking,2026-03-04_14-07-26
1772633250816721400,4.224721435546875,0.3031154432695359,-0.4146170123152434,0.1041612162202596,-0.1704076081514358,0.097831979393959,0.2980912923812866,walking,2026-03-04_14-07-26
1772633250826670300,4.23467041015625,0.3082661040309816,-0.3886266848817467,-0.035315643531084,-0.2108708471059799,0.0904679298400878,0.3051493763923645,walking,2026-03-04_14-07-26
1772633250836619500,4.24461962890625,0.1904388390950858,-0.3488368185460567,-0.2557791801422834,-0.2341990619897842,0.0949537605047226,0.30641970038414,walking,2026-03-04_14-07-26
1772633250846568700,4.254568603515625,0.117056938150525,-0.3954328577652573,-0.5617050777226686,-0.24008709192276,0.1189571022987365,0.3116291761398315,walking,2026-03-04_14-07-26
1772633250856517600,4.264517578125,0.1264636489212512,-0.511754905769974,-0.8694044147163629,-0.2328685969114303,0.1549167037010193,0.327396959066391,walking,2026-03-04_14-07-26
1772633250866466600,4.274466552734375,0.1522009514417499,-0.6076392920322716,-1.1154326006948947,-0.2258931994438171,0.1757757663726806,0.3547805547714233,walking,2026-03-04_14-07-26
1772633250876415500,4.28441552734375,0.1635541201051324,-0.67211074129045,-1.223743922331929,-0.2130634188652038,0.1597334146499633,0.3930083811283111,walking,2026-03-04_14-07-26
1772633250886364400,4.294364501953125,0.1477993554819375,-0.759091105607152,-1.3491069165349006,-0.1955516338348388,0.1309675127267837,0.4326664209365845,walking,2026-03-04_14-07-26
1772633250896313300,4.304313232421875,0.1192844049416482,-0.8970889788471161,-1.518909356445074,-0.1777103245258331,0.1036671847105026,0.4513306617736816,walking,2026-03-04_14-07-26
1772633250906262300,4.31426220703125,-0.0521073499865829,-1.0384675805665553,-1.679385749605298,-0.1639754176139831,0.0710994750261306,0.4444182217121124,walking,2026-03-04_14-07-26
1772633250916211700,4.324211669921875,-0.2264149923615157,-1.1350903641059995,-1.7758967433333397,-0.1718365252017974,0.0096909748390316,0.4265721142292022,walking,2026-03-04_14-07-26
1772633250926160600,4.33416064453125,-0.359251756511256,-1.212292115599662,-1.823331279203296,-0.198140799999237,-0.0994527712464332,0.3792639970779419,walking,2026-03-04_14-07-26
1772633250936109600,4.344109619140625,-0.5734521410744637,-1.2024132572725414,-1.925409843930602,-0.2181741595268249,-0.2118610739707946,0.309694766998291,walking,2026-03-04_14-07-26
1772633250946058500,4.35405859375,-0.7858361238654702,-1.0827229018785058,-2.1889760246872902,-0.2149462699890136,-0.295745700597763,0.2324077785015106,walking,2026-03-04_14-07-26
1772633250956007400,4.36400732421875,-0.8737919090855866,-0.8124700829647481,-2.521377841261029,-0.1866014450788498,-0.3273318409919739,0.1610142886638641,walking,2026-03-04_14-07-26
1772633250965956400,4.373956298828125,-0.8402506548158823,-0.4759378885880112,-2.818579165115952,-0.141994446516037,-0.314572274684906,0.0996171683073043,walking,2026-03-04_14-07-26
1772633250975906600,4.383906494140625,-0.7688434149451553,-0.0905633373700082,-2.9469419256567955,-0.0925701633095741,-0.2854330241680145,0.0630924478173255,walking,2026-03-04_14-07-26
1772633250985855500,4.39385546875,-0.586613272475265,0.2758449398323893,-2.939335542306304,-0.040823969990015,-0.2492783218622207,0.0508775599300861,walking,2026-03-04_14-07-26
1772633250995804700,4.4038046875,-0.4827600992908701,0.6367714246228336,-2.872138905867934,0.0290099717676639,-0.1701302379369735,0.0647270604968071,walking,2026-03-04_14-07-26
1772633251005753600,4.413753662109375,-0.3429716893723234,1.0060584721319377,-2.7987019137352704,0.1399020850658416,-0.0425497740507125,0.1104959920048713,walking,2026-03-04_14-07-26
1772633251015702500,4.42370263671875,-0.0971080097731202,1.2329916431486605,-2.6554233236134053,0.2858494222164154,0.1231422498822212,0.1778515875339508,walking,2026-03-04_14-07-26
1772633251025651500,4.4336513671875,0.1077718079328537,1.3834715429514646,-2.3479887750357387,0.4415834844112396,0.2855246067047119,0.2540843486785888,walking,2026-03-04_14-07-26
1772633251035600400,4.443600341796875,0.2801297044795006,1.3972623140253126,-1.7327274636924266,0.5909236669540405,0.4110045135021209,0.3131298124790191,walking,2026-03-04_14-07-26
1772633251045549300,4.45354931640625,0.4077683519968763,1.2474315257810056,-0.9515946221470832,0.7154237627983093,0.4758554100990295,0.3378300964832306,walking,2026-03-04_14-07-26
1772633251055498500,4.46349853515625,0.4395175717506557,1.0949417474605143,-0.1258048927515745,0.8033970594406128,0.4749094545841217,0.3435375094413757,walking,2026-03-04_14-07-26
1772633251065447700,4.47344775390625,0.4948638305932283,0.9471846967503428,0.7466834594547748,0.8308192491531372,0.3976663649082184,0.3272310793399811,walking,2026-03-04_14-07-26
1772633251075396600,4.483396728515625,0.4921454384800046,0.9137681648388504,1.5731185010164974,0.7927877306938171,0.2647402584552765,0.2882162928581238,walking,2026-03-04_14-07-26
1772633251085345500,4.493345458984375,0.4543474035486579,0.9180271374575794,2.2364432937830685,0.7011799216270447,0.1180072426795959,0.2428201138973236,walking,2026-03-04_14-07-26
1772633251095294500,4.50329443359375,0.4700581828996539,0.9372865492008626,2.63212018943727,0.5781226754188538,-0.0088353939354419,0.1999261826276779,walking,2026-03-04_14-07-26
1772633251105243400,4.513243408203125,0.4922581050742417,1.0017838635526597,2.8020044624119995,0.4327142238616943,-0.094122476875782,0.1618987023830413,walking,2026-03-04_14-07-26
1772633251115192300,4.5231923828125,0.5027214122258127,1.0955369368746877,2.83479029520452,0.2656522691249847,-0.1357410252094268,0.1432536393404007,walking,2026-03-04_14-07-26
1772633251125141500,4.5331416015625,0.5553865422256291,1.192543459034711,2.756234644883871,0.084335371851921,-0.155502587556839,0.1472936272621154,walking,2026-03-04_14-07-26
1772633251135090700,4.543090576171875,0.6332262993618846,1.237074674678594,2.584574009886384,-0.0934498012065887,-0.1786870062351226,0.1649847328662872,walking,2026-03-04_14-07-26
1772633251145040600,4.55304052734375,0.682635057914257,1.2497313271559771,2.335855269649625,-0.2468942999839782,-0.2068749368190765,0.189495101571083,walking,2026-03-04_14-07-26
1772633251154989600,4.562989501953125,0.5956866231057792,1.2817493904463946,1.9785563277065752,-0.3716855049133301,-0.2407807111740112,0.1970158666372299,walking,2026-03-04_14-07-26
1772633251164938500,4.5729384765625,0.322028598858416,1.3065994618035852,1.5858914733499287,-0.4851530194282532,-0.277685672044754,0.1787290871143341,walking,2026-03-04_14-07-26
1772633251174887400,4.582887451171875,-0.0029735724506899,1.245862084507197,1.221741350337863,-0.5807011723518372,-0.2979768216609955,0.1400189697742462,walking,2026-03-04_14-07-26
1772633251184836600,4.592836669921875,-0.2584222785295918,1.1381211101040245,0.8071183466732501,-0.6276288628578186,-0.2839391827583313,0.0810719579458236,walking,2026-03-04_14-07-26
1772633251194785500,4.60278564453125,-0.4481981967365369,1.1023534850217402,0.2485942370742559,-0.6100639700889587,-0.2341721504926681,0.0177603680640459,walking,2026-03-04_14-07-26
1772633251204734500,4.612734375,-0.4941374160148203,1.1178310401387512,-0.3480851233959198,-0.5216951966285706,-0.1385160833597183,-0.0176440719515085,walking,2026-03-04_14-07-26
1772633251214683600,4.62268359375,-0.3858533111782744,1.199368775010109,-0.8238695749878883,-0.3866731524467468,-0.0224368833005428,-0.0201921835541725,walking,2026-03-04_14-07-26
1772633251224632600,4.632632568359375,-0.1995300176432356,1.2271877791754902,-1.0410551128417254,-0.2347186058759689,0.0855698958039283,-0.0017562452703714,walking,2026-03-04_14-07-26
1772633251234581500,4.64258154296875,0.0169894209846854,1.182557340940833,-0.974361165228486,-0.0924296379089355,0.1552227437496185,0.0402260944247245,walking,2026-03-04_14-07-26
1772633251244530400,4.652530517578125,0.2550799458317458,1.0859015319146217,-0.6346890653908253,0.0044585103169083,0.1707432717084884,0.0858080983161926,walking,2026-03-04_14-07-26
1772633251254479400,4.662479248046875,0.4092376938970759,0.8967061170093714,-0.0355155500173568,0.0511959232389926,0.1449020802974701,0.1238702535629272,walking,2026-03-04_14-07-26
1772633251264428500,4.672428466796875,0.4694580250494182,0.6276850318476558,0.55060559155941,0.0566023215651512,0.1051069423556327,0.1526572257280349,walking,2026-03-04_14-07-26
1772633251274377500,4.68237744140625,0.4336933956418186,0.3718227034665644,0.9815583832561968,0.0217716339975595,0.0592587664723396,0.1554982811212539,walking,2026-03-04_14-07-26
1772633251284326700,4.69232666015625,0.2818168538488447,0.1423550455361604,1.3567051165789366,-0.0450412593781948,0.0132313659414649,0.1313310265541076,walking,2026-03-04_14-07-26
1772633251294275600,4.702275634765625,0.1519808058850467,-0.123101479011774,1.6032599567800758,-0.1231621578335762,-0.01523276604712,0.0966356322169303,walking,2026-03-04_14-07-26
1772633251304224500,4.712224609375,0.0972227221939712,-0.3513615147180855,1.65511815431118,-0.1926845163106918,-0.0206084940582513,0.0626787170767784,walking,2026-03-04_14-07-26
1772633251314174500,4.722174560546875,0.1351799662750214,-0.4539117886103689,1.563638140487671,-0.2449639737606048,0.0009050534572452,0.041741743683815,walking,2026-03-04_14-07-26
1772633251324123600,4.73212353515625,0.1724115994952618,-0.5052529765300452,1.376146899151802,-0.2673328220844269,0.0328849405050277,0.0318444333970546,walking,2026-03-04_14-07-26
1772633251334072600,4.742072509765625,0.228605780404061,-0.5444138973124325,1.1967822656482456,-0.2699986398220062,0.0305943563580513,0.0152119267731904,walking,2026-03-04_14-07-26
1772633251344021500,4.752021484375,0.3065630264401435,-0.6192278768867254,1.0712006602585316,-0.254750519990921,-0.0031381000299006,0.004024488851428,walking,2026-03-04_14-07-26
1772633251353970400,4.761970458984375,0.3589243511877953,-0.6566231031708419,0.9307353739917278,-0.2330579906702041,-0.0444892682135105,-0.0046081477776169,walking,2026-03-04_14-07-26
1772633251363919600,4.771919677734375,0.321802279289253,-0.6225931155361235,0.8088093685001134,-0.2187416404485702,-0.0844315588474273,-0.0140361441299319,walking,2026-03-04_14-07-26
1772633251373868500,4.78186865234375,0.2083134454164653,-0.6272624225214123,0.7005851406246423,-0.2133367657661438,-0.1067304760217666,-0.0461520031094551,walking,2026-03-04_14-07-26
1772633251383817500,4.7918173828125,0.0647195422677323,-0.6727060768350959,0.5914005432844162,-0.2122979313135147,-0.0964467898011207,-0.0848698690533638,walking,2026-03-04_14-07-26
1772633251393766400,4.801766357421875,-0.0025244769763201,-0.7279546474568546,0.437707526654005,-0.2073700278997421,-0.05775798112154,-0.1172035783529281,walking,2026-03-04_14-07-26
1772633251403715600,4.811715576171875,0.0421840314632281,-0.7421409937195479,0.2814753469347953,-0.1837469041347503,-0.0175611097365617,-0.1359871923923492,walking,2026-03-04_14-07-26
1772633251413664500,4.82166455078125,0.187492702640593,-0.7634747275188565,0.0849731161475181,-0.1360763311386108,0.0079005742445588,-0.1384093314409256,walking,2026-03-04_14-07-26
1772633251423613400,4.831613525390625,0.3210943867482245,-0.7691491198934615,-0.121065004748106,-0.074228398501873,0.0034046259243041,-0.1466321051120758,walking,2026-03-04_14-07-26
1772633251433562600,4.841562744140625,0.3591965922579169,-0.7884118926376104,-0.2048743378132581,-0.025156196206808,-0.0583290457725524,-0.1602653712034225,walking,2026-03-04_14-07-26
1772633251443511600,4.851511474609375,0.3425429425662383,-0.861727888739109,-0.1644172397404909,0.0065224156714975,-0.1643962562084198,-0.178254097700119,walking,2026-03-04_14-07-26
1772633251453460500,4.86146044921875,0.3099385307552292,-0.8824019895859062,-0.2298345915466547,0.0436311699450016,-0.2591962516307831,-0.1970892995595932,walking,2026-03-04_14-07-26
1772633251463409400,4.871409423828125,0.1845752442913129,-0.8903777907706797,-0.462700513613224,0.0794650688767433,-0.3284547626972198,-0.2313640415668487,walking,2026-03-04_14-07-26
1772633251473358300,4.8813583984375,0.0310748641561716,-0.909958835683763,-0.7153712063461541,0.1051192954182624,-0.3783884942531585,-0.2776777744293213,walking,2026-03-04_14-07-26
1772633251483308500,4.89130859375,-0.0434924471806734,-0.9356984032265842,-0.9388526294738052,0.1144695654511451,-0.3882481455802917,-0.3137106001377105,walking,2026-03-04_14-07-26
1772633251493257500,4.901257568359375,-0.0488158341605216,-0.9168693457245826,-1.1481699181705711,0.1065807491540908,-0.33659827709198,-0.3385275304317474,walking,2026-03-04_14-07-26
1772633251503206400,4.911206298828125,-0.0477226868952624,-0.8315648056656122,-1.345132167685032,0.100237138569355,-0.2193036079406738,-0.3473056852817535,walking,2026-03-04_14-07-26
1772633251513155600,4.921155517578125,-0.0025730105594731,-0.7768288607411086,-1.633734005498886,0.1110706105828285,-0.0576531998813152,-0.3377590477466583,walking,2026-03-04_14-07-26
1772633251523104500,4.9311044921875,0.1075652342437766,-0.7410911924056708,-1.8516478576272728,0.1430636197328567,0.0705555826425552,-0.3249007165431976,walking,2026-03-04_14-07-26
1772633251533053400,4.941053466796875,0.2662676582677289,-0.755163410769403,-1.85536366328001,0.1921925544738769,0.1217844113707542,-0.3111034333705902,walking,2026-03-04_14-07-26
1772633251543002600,4.951002685546875,0.4688353265738114,-0.8065557443544268,-1.6745388940960169,0.2506739795207977,0.1033621355891227,-0.2925907075405121,walking,2026-03-04_14-07-26
1772633251552951600,4.96095166015625,0.6486402877233922,-0.8337979715451598,-1.4275561838716269,0.3035707473754883,0.0322831682860851,-0.2716252505779266,walking,2026-03-04_14-07-26
1772633251562900500,4.970900390625,0.7795758213616907,-0.8280902614228427,-1.1597077957510948,0.3364978432655334,-0.073206789791584,-0.2492753118276596,walking,2026-03-04_14-07-26
1772633251572849400,4.980849365234375,0.7863604400005191,-0.779941878195107,-0.9619126025438308,0.3525780141353607,-0.1626975089311599,-0.2271787971258163,walking,2026-03-04_14-07-26
1772633251582798600,4.990798583984375,0.7017879405431449,-0.7411098971061408,-0.9221545926511288,0.3458398282527923,-0.1932751238346099,-0.2176830768585205,walking,2026-03-04_14-07-26
1772633251592747500,5.00074755859375,0.5690936170713976,-0.7560616747833788,-0.909306216993928,0.3038170337677002,-0.1925558000802993,-0.215043619275093,walking,2026-03-04_14-07-26
1772633251602696400,5.010696533203125,0.4202042013304308,-0.7403488496057689,-0.8513274907559156,0.2257264852523803,-0.1951474547386169,-0.2302055358886718,walking,2026-03-04_14-07-26
1772633251612645600,5.020645751953125,0.2206691604522056,-0.6658746233798563,-0.7254734981656074,0.0994074344635009,-0.2267985939979553,-0.2479485720396042,walking,2026-03-04_14-07-26
1772633251622594600,5.030594482421875,0.0214758091511204,-0.5001365102991462,-0.5902250697642565,-0.0735899955034256,-0.2916349470615387,-0.2756732106208801,walking,2026-03-04_14-07-26
1772633251632543500,5.04054345703125,-0.2188569416647776,-0.301396145196259,-0.5893260750979185,-0.2337748706340789,-0.3348471224308014,-0.3125851452350616,walking,2026-03-04_14-07-26
1772633251642492400,5.050492431640625,-0.4173655803710222,-0.0811542885117232,-0.9733324067026377,-0.3337815105915069,-0.3061902225017547,-0.3360865414142608,walking,2026-03-04_14-07-26
1772633251652442400,5.0604423828125,-0.5328244356751441,0.313957958997041,-1.5632482643872498,-0.3760488033294678,-0.2389515340328216,-0.3441761434078216,walking,2026-03-04_14-07-26
1772633251662391600,5.0703916015625,-0.564149913591519,0.8240205277658998,-1.9999550895661116,-0.3484611809253692,-0.1571575850248336,-0.3353705108165741,walking,2026-03-04_14-07-26
1772633251672340500,5.080340576171875,-0.5391062193583697,1.2395718983218074,-2.359795532685518,-0.2336381673812866,-0.0517368875443935,-0.3131144940853119,walking,2026-03-04_14-07-26
1772633251682289700,5.09028955078125,-0.4728125961743294,1.595062183407694,-2.668683202680945,-0.0304242838174104,0.0870837569236755,-0.2758161127567291,walking,2026-03-04_14-07-26
1772633251692238600,5.100238525390625,-0.3251409952579066,1.900822369032353,-2.804872126802802,0.2408727258443832,0.2326468080282211,-0.2092589437961578,walking,2026-03-04_14-07-26
1772633251702187300,5.110187255859375,-0.0912518128245137,2.1131151664085683,-2.5682728634268046,0.5119630098342896,0.3253564238548279,-0.1302798837423324,walking,2026-03-04_14-07-26
1772633251712136200,5.12013623046875,0.115084578631632,2.206383232692629,-1.898275753289461,0.7179387807846069,0.3241380453109741,-0.0607048012316226,walking,2026-03-04_14-07-26
1772633251722085000,5.130085205078125,0.1803900310285389,2.127940979618579,-0.9044815733164548,0.8529772758483887,0.2526126205921173,-0.0112524265423417,walking,2026-03-04_14-07-26
1772633251732034300,5.140034423828125,0.1116996489010751,1.986453218436241,0.0462678301781415,0.9117966294288636,0.153247982263565,0.0049856659024953,walking,2026-03-04_14-07-26
1772633251741983200,5.149983154296875,-0.0690550872540101,1.844500762351602,0.8806342492610215,0.8820806741714478,0.0269116349518299,-0.0188208129256963,walking,2026-03-04_14-07-26
1772633251751932200,5.15993212890625,-0.3029816608220338,1.638967960629612,1.560101783055067,0.789330780506134,-0.0793892368674278,-0.0548608414828777,walking,2026-03-04_14-07-26
1772633251761881300,5.16988134765625,-0.4997744355211034,1.440932821186632,1.933287445437908,0.6671761274337769,-0.0944500118494033,-0.0983384996652603,walking,2026-03-04_14-07-26
1772633251771830300,5.179830322265625,-0.7400058813869953,1.3284899527028202,2.0788468399733304,0.5192950367927551,-0.0414296761155128,-0.1593882739543914,walking,2026-03-04_14-07-26
1772633251781779200,5.189779296875,-0.9461075690381228,1.1935954523056744,2.2002999672561883,0.3544965386390686,0.0370746441185474,-0.2294969409704208,walking,2026-03-04_14-07-26
1772633251791728400,5.199728271484375,-1.0461911605559289,0.9511160448499024,2.2786060267299413,0.1704998165369033,0.1054792702198028,-0.3109558224678039,walking,2026-03-04_14-07-26
1772633251801677300,5.20967724609375,-1.113645717278123,0.7905201169632374,2.3688304875344035,-0.0260168369859457,0.1250818967819214,-0.3920415639877319,walking,2026-03-04_14-07-26
1772633251811626200,5.219626220703125,-1.1056883285328745,0.7167120995610952,2.458532970291376,-0.2242029011249542,0.0738221704959869,-0.4620744585990906,walking,2026-03-04_14-07-26
1772633251821576400,5.229576416015625,-1.0475462284266948,0.6736608933418988,2.405647183278203,-0.3980678021907806,-0.0378444604575634,-0.5314186215400696,walking,2026-03-04_14-07-26
1772633251831525400,5.239525390625,-1.0168509381726385,0.66759282547459,2.050838304585218,-0.5144575238227844,-0.1475166231393814,-0.5899839401245117,walking,2026-03-04_14-07-26
1772633251841474300,5.249474365234375,-0.9855137698184698,0.7976647280208766,1.3991951817840338,-0.5818130970001221,-0.210805669426918,-0.6196441650390625,walking,2026-03-04_14-07-26
1772633251851423200,5.25942333984375,-0.903053440209478,0.982319138495624,0.7789654343783855,-0.6089735627174377,-0.2242967188358307,-0.6123114228248596,walking,2026-03-04_14-07-26
1772633251861372200,5.2693720703125,-0.7988343563221395,1.0985593534357845,0.2583189277529716,-0.5719379186630249,-0.176368847489357,-0.5663622617721558,walking,2026-03-04_14-07-26
1772633251871321000,5.279321044921875,-0.6741340638116001,1.1624443811081349,-0.3094546562284231,-0.4600958228111267,-0.1031753197312355,-0.497457206249237,walking,2026-03-04_14-07-26
1772633251881270300,5.289270263671875,-0.5316490717528387,1.1366751490794125,-0.7652408604085444,-0.2824982404708862,0.0114302542060613,-0.4109462201595306,walking,2026-03-04_14-07-26
1772633251891219500,5.299219482421875,-0.3828991375477984,1.021228714865446,-1.028287985727191,-0.0802948102355003,0.1562857031822204,-0.3197659850120544,walking,2026-03-04_14-07-26
1772633251901168400,5.30916845703125,-0.3245599074343219,0.883398307146877,-0.9120832804918289,0.0873842015862464,0.2550789415836334,-0.2300039678812027,walking,2026-03-04_14-07-26
1772633251911117300,5.319117431640625,-0.2716693711807951,0.6222893102839588,-0.3506500054478645,0.1860492527484893,0.2557330131530761,-0.1459948122501373,walking,2026-03-04_14-07-26
1772633251924176100,5.332176025390625,-0.228161470702663,0.2641696996077895,0.3467617658376694,0.2246581614017486,0.149403303861618,-0.069817379117012,walking,2026-03-04_14-07-26
1772633251934125300,5.342125244140625,-0.2463739306762814,-0.2401047872789204,1.1134820511490109,0.188708558678627,0.0192259605973958,-0.0612532533705234,walking,2026-03-04_14-07-26
1772633251944074200,5.35207421875,-0.362530632051453,-0.7134928452536463,1.7671943814396858,0.1154122427105903,-0.1185619980096817,-0.0720790103077888,walking,2026-03-04_14-07-26
1772633251954023400,5.3620234375,-0.3555344895537942,-1.0043697883926332,1.9580945544362067,0.0294493474066257,-0.1876103579998016,-0.0963055118918418,walking,2026-03-04_14-07-26
1772633251963972400,5.371972412109375,-0.3840363248841836,-1.2273816943123936,1.947249919816852,-0.0529760196805,-0.1938131153583526,-0.1400564610958099,walking,2026-03-04_14-07-26
1772633251973921300,5.38192138671875,-0.4845922466214746,-1.3046486199967562,1.7968296412467957,-0.1294205039739608,-0.1532009840011596,-0.1904755979776382,walking,2026-03-04_14-07-26
1772633251983870200,5.3918701171875,-0.4867560735918581,-1.2833766993872822,1.5914157897293566,-0.1980320513248443,-0.110050581395626,-0.2249882966279983,walking,2026-03-04_14-07-26
1772633251993820200,5.401820068359375,-0.3390578769294545,-1.2328183324083686,1.3918284524083138,-0.2460982948541641,-0.095839112997055,-0.2288944572210312,walking,2026-03-04_14-07-26
1772633252003769000,5.41176904296875,-0.0770242395022884,-1.088665589800477,1.1908692422121765,-0.2579184770584106,-0.111579455435276,-0.2075332403182983,walking,2026-03-04_14-07-26
1772633252013718300,5.42171826171875,0.1771764027442783,-0.9344948726557196,0.8969330576330423,-0.2429806739091873,-0.1353814154863357,-0.1642799526453018,walking,2026-03-04_14-07-26
1772633252023667500,5.43166748046875,0.2915943341607228,-0.8212497478783131,0.5875964748263359,-0.2137082517147064,-0.1630639135837555,-0.1206443309783935,walking,2026-03-04_14-07-26
1772633252033616400,5.441616455078125,0.33349454371389,-0.7725947303026914,0.3438859181404113,-0.1874159425497055,-0.1724420338869094,-0.0840507671236991,walking,2026-03-04_14-07-26
1772633252043565300,5.4515654296875,0.2486944095131009,-0.7430009715497493,0.1573480320066213,-0.1628373712301254,-0.1487548202276229,-0.0608026981353759,walking,2026-03-04_14-07-26
1772633252053514200,5.46151416015625,0.1263024304775521,-0.6790443399459123,-0.0188192667603492,-0.130320206284523,-0.0915068909525871,-0.0405895859003067,walking,2026-03-04_14-07-26
1772633252063463200,5.471463134765625,0.1420444817496463,-0.5937864155076443,-0.1918774935960769,-0.0804461315274238,0.0015617979224771,-0.0019433926790952,walking,2026-03-04_14-07-26
1772633252073412000,5.481412109375,0.2569579781306907,-0.5438862201765179,-0.3602437632232904,-0.0173676460981369,0.10556111484766,0.0469134300947189,walking,2026-03-04_14-07-26
1772633252083361000,5.491361083984375,0.3405772685164585,-0.5023744984842836,-0.356191857483983,0.0394266620278358,0.1688495427370071,0.0804652646183967,walking,2026-03-04_14-07-26
1772633252093310500,5.501310546875,0.3787535987082868,-0.5352835192650556,-0.134526543867588,0.0772709771990776,0.1631074249744415,0.1072283089160919,walking,2026-03-04_14-07-26
1772633252103259400,5.51125927734375,0.4678414201656356,-0.6230046189464629,0.1646487104088068,0.0935652628540992,0.1188579499721527,0.1316652148962021,walking,2026-03-04_14-07-26
1772633252113208300,5.521208251953125,0.5136246086319908,-0.6819299783848226,0.4144020543903112,0.0821853503584861,0.074611984193325,0.1445048600435257,walking,2026-03-04_14-07-26
1772633252123157200,5.5311572265625,0.4882086470203474,-0.7183354629792272,0.5933037465572357,0.0386969968676567,0.0366022810339927,0.1501070857048034,walking,2026-03-04_14-07-26
1772633252133106200,5.541106201171875,0.4285295466052368,-0.7792476123206317,0.6244692846715449,-0.016084274277091,-0.0108708254992961,0.1416854709386825,walking,2026-03-04_14-07-26
1772633252143055000,5.55105517578125,0.3675317648069933,-0.807620158715546,0.4616963050067424,-0.0550194233655929,-0.0291931089013814,0.1277965456247329,walking,2026-03-04_14-07-26
1772633252153004300,5.56100439453125,0.2564342830501496,-0.7456696062371134,0.1085626660495996,-0.0749873965978622,-0.020149702206254,0.1135006621479988,walking,2026-03-04_14-07-26
1772633252162954200,5.570954345703125,0.1156802064372226,-0.5700844912722707,-0.2784054379701614,-0.0926769152283668,-0.0097143715247511,0.10640599578619,walking,2026-03-04_14-07-26
1772633252172903400,5.5809033203125,0.0271219252793118,-0.3667043375395238,-0.5518260732650756,-0.1049569249153137,-0.0012265683617442,0.1214903146028518,walking,2026-03-04_14-07-26
1772633252182852400,5.590852294921875,-0.0316027239551767,-0.1904538905337452,-0.8853653694361447,-0.1033734083175659,0.0296133682131767,0.1509302258491516,walking,2026-03-04_14-07-26
1772633252192801300,5.60080126953125,-0.1109010093366727,-0.0550393117852509,-1.2055606153875589,-0.081287145614624,0.1044809743762016,0.1948567330837249,walking,2026-03-04_14-07-26
1772633252202750200,5.610750244140625,-0.1802295067045837,0.023679858534038,-1.5078297440260648,-0.0283847898244857,0.2223700582981109,0.2466504275798797,walking,2026-03-04_14-07-26
1772633252212699100,5.62069921875,-0.2467609572324901,0.0069002809077501,-1.7865256893754005,0.0594092905521392,0.3587164878845215,0.311898410320282,walking,2026-03-04_14-07-26
1772633252222648000,5.63064794921875,-0.1642107939155772,-0.1238734862975776,-1.959582162645459,0.1761430948972702,0.4441698789596557,0.3831771314144134,walking,2026-03-04_14-07-26
1772633252232597200,5.64059716796875,-0.0542962383329868,-0.3563781738363206,-1.8262573957830663,0.2712822556495666,0.4041347503662109,0.4340685904026031,walking,2026-03-04_14-07-26
1772633252242546400,5.65054638671875,-0.0798468591749668,-0.6072396251901984,-1.3949398624271154,0.3202423453330993,0.2682371139526367,0.4581491649150848,walking,2026-03-04_14-07-26
1772633252252495400,5.660495361328125,-0.1865027782877907,-0.8522790923923254,-0.9439110819071532,0.3113916516304016,0.0933503881096839,0.4507454931735992,walking,2026-03-04_14-07-26
1772633252263065300,5.6710654296875,-0.4002103743653744,-0.9789492236711084,-0.6578934153676033,0.2523674666881561,-0.0683239996433258,0.4130567014217376,walking,2026-03-04_14-07-26
1772633252273014300,5.68101416015625,-0.7052997480563818,-1.0145691108457744,-0.5920324114471673,0.1753297597169876,-0.1748533993959427,0.342825174331665,walking,2026-03-04_14-07-26
1772633252282963200,5.690963134765625,-0.8842246749684214,-1.0914914608761668,-0.7703741316437721,0.0989063680171966,-0.2343838363885879,0.2547142207622528,walking,2026-03-04_14-07-26
1772633252292912000,5.700912109375,-1.0580494291972369,-0.9356050258547068,-1.1197820280760526,0.0325432792305946,-0.2285300642251968,0.1765473634004593,walking,2026-03-04_14-07-26
1772633252302861300,5.710861328125,-1.0460914995737374,-0.6762566089235246,-1.5403648169279098,-0.0225396808236837,-0.1902260780334472,0.125459149479866,walking,2026-03-04_14-07-26
1772633252312810200,5.720810302734375,-0.8669897547900676,-0.4198449760966002,-1.8745260443896052,-0.0536458492279052,-0.1370945870876312,0.0945782288908958,walking,2026-03-04_14-07-26
1772633252322759200,5.73075927734375,-0.7109244560703635,-0.0625089170135557,-2.1462030508875847,-0.0571995712816715,-0.0660078898072242,0.0807673409581184,walking,2026-03-04_14-07-26
1772633252332708400,5.740708251953125,-0.5796199795218184,0.3269454508639872,-2.348138997161388,-0.0246711000800132,0.0129289887845516,0.0824396163225174,walking,2026-03-04_14-07-26
1772633252342658300,5.750658203125,-0.4763455560734495,0.6794704564034938,-2.4413386743843555,0.0406280122697353,0.0641357153654098,0.0846913233399391,walking,2026-03-04_14-07-26
1772633252352607200,5.760607177734375,-0.3978853654839098,0.960349298749864,-2.413828736168146,0.128811314702034,0.0793235450983047,0.0868834480643272,walking,2026-03-04_14-07-26
1772633252362556200,5.77055615234375,-0.3535605591323226,1.1760523429609837,-2.2508500047981737,0.2491521090269088,0.096204787492752,0.0810700356960296,walking,2026-03-04_14-07-26
1772633252372505000,5.780505126953125,-0.1971136406838893,1.2671046328917146,-2.071195448437333,0.3906420469284057,0.1513935774564743,0.082484520971775,walking,2026-03-04_14-07-26
1772633252382454300,5.790454345703125,0.0118835126804187,1.276474372652918,-1.782790594500303,0.5243598818778992,0.225310131907463,0.0980014279484748,walking,2026-03-04_14-07-26
1772633252392403500,5.800403564453125,0.1805302066842093,1.3024172076828775,-1.2782383135855198,0.6475419998168945,0.3053339123725891,0.1184621080756187,walking,2026-03-04_14-07-26
1772633252402352400,5.810352294921875,0.3394923958892002,1.280312635641545,-0.6653355480670928,0.747409999370575,0.3690111637115478,0.1352669298648834,walking,2026-03-04_14-07-26
1772633252412301300,5.82030126953125,0.4114263995803892,1.199551438100636,0.0340899011284112,0.805444061756134,0.3885709345340729,0.1332201808691024,walking,2026-03-04_14-07-26
1772633252422250200,5.830250244140625,0.4440362182188779,1.0796335575610398,0.7733756515473127,0.801034152507782,0.3522949516773224,0.115893118083477,walking,2026-03-04_14-07-26
1772633252432199200,5.84019921875,0.5072811578894034,0.9897831907659768,1.5003110389590262,0.7232714891433716,0.2479848563671112,0.0960473716259002,walking,2026-03-04_14-07-26
1772633252442148000,5.850148193359375,0.5502009197486564,0.9622808513343334,2.127649157065153,0.5960176587104797,0.1065414473414421,0.0715478882193565,walking,2026-03-04_14-07-26
1772633252452097300,5.86009716796875,0.5836506598100066,0.97799952173084,2.497679570287466,0.4376950263977051,-0.0244454462081193,0.0501365438103675,walking,2026-03-04_14-07-26
1772633252462046200,5.870046142578125,0.5748229545036331,1.09108434138,2.6658266442060468,0.2523427307605743,-0.1287404298782348,0.0346859544515609,walking,2026-03-04_14-07-26
1772633252471995400,5.879995361328125,0.5243191307235509,1.1636232156291604,2.644572843775153,0.0546428076922893,-0.1905493438243866,0.0280086658895015,walking,2026-03-04_14-07-26
1772633252481944300,5.8899443359375,0.501576443441771,1.2054331896156072,2.447835050666332,-0.1417474746704101,-0.2183357030153274,0.0371883176267147,walking,2026-03-04_14-07-26
1772633252491893200,5.899893310546875,0.4317162868825718,1.269649348938465,2.114085326614976,-0.3183978796005249,-0.2413342297077179,0.0523073486983776,walking,2026-03-04_14-07-26
1772633252501843200,5.90984326171875,0.2875788514416664,1.3641738450244068,1.6792279286950826,-0.458147257566452,-0.254101425409317,0.0547718405723571,walking,2026-03-04_14-07-26
1772633252511792000,5.919792236328125,0.0869483617432415,1.4422081018194557,1.153458087706566,-0.5512242913246155,-0.2311301976442337,0.0616676695644855,walking,2026-03-04_14-07-26
1772633252521741000,5.929740966796875,-0.103344127683714,1.5149933520451186,0.6166244163900614,-0.5926819443702698,-0.1747204512357711,0.0719434842467308,walking,2026-03-04_14-07-26
1772633252531690200,5.939690185546875,-0.28692298134882,1.5343281671121716,0.0716816728979349,-0.5641577243804932,-0.0858620405197143,0.0669671595096588,walking,2026-03-04_14-07-26
1772633252541639400,5.949639404296875,-0.4392273931650444,1.4896001137219368,-0.5019675251185893,-0.4622039496898651,0.0552961453795433,0.0639338195323944,walking,2026-03-04_14-07-26
1772633252551588400,5.95958837890625,-0.4693527015114203,1.4379742636419832,-0.9181605545789004,-0.3021444976329803,0.2133538275957107,0.0756011381745338,walking,2026-03-04_14-07-26
1772633252561537300,5.969537353515625,-0.3988182989524677,1.3765085720710457,-1.0209820466279982,-0.1317911595106125,0.305816650390625,0.0853973105549812,walking,2026-03-04_14-07-26
1772633252571486200,5.979486328125,-0.3052870516875758,1.319192401394993,-0.6960439900636672,0.011405324563384,0.2934601902961731,0.1000852584838867,walking,2026-03-04_14-07-26
1772633252581435100,5.98943505859375,-0.1204175371574237,1.103881863632798,-0.1079132622301578,0.1128965243697166,0.2197212725877761,0.1211356818675994,walking,2026-03-04_14-07-26
1772633252591384000,5.999384033203125,0.0568618510372936,0.8546687640078365,0.5483902535974979,0.1544538289308548,0.1293524950742721,0.1453909575939178,walking,2026-03-04_14-07-26
1772633252601333200,6.009333251953125,0.1229335020337253,0.6249602830588817,1.0999696586251255,0.142573744058609,0.0578924193978309,0.1456066668033599,walking,2026-03-04_14-07-26
1772633252611282400,6.019282470703125,0.0916006079958751,0.4077858511209488,1.5442542255818843,0.0828540250658989,0.0050364453345537,0.1357568949460983,walking,2026-03-04_14-07-26
1772633252621231400,6.0292314453125,0.0474951800160109,0.184011728657037,1.900931820756197,0.0033370975870639,-0.0221251342445611,0.1230307146906852,walking,2026-03-04_14-07-26
1772633252631180300,6.03918017578125,0.0108413832163438,-0.0193725167289376,2.0368986265599727,-0.0757835954427719,-0.0270656216889619,0.1073207035660743,walking,2026-03-04_14-07-26
1772633252641129200,6.049129150390625,-0.0574064793080091,-0.1700827181562781,2.023596661916375,-0.1506546437740326,-0.036798145622015,0.0842041969299316,walking,2026-03-04_14-07-26
1772633252651079200,6.0590791015625,-0.0684152184478938,-0.3289481689885258,1.9874346306890247,-0.2162344008684158,-0.0608474314212799,0.0631142482161521,walking,2026-03-04_14-07-26
1772633252661028000,6.069028076171875,-0.0731264283461496,-0.4381603849880397,1.9024545002788305,-0.2772586047649383,-0.1056106463074684,0.035426165908575,walking,2026-03-04_14-07-26
1772633252670977300,6.078977294921875,-0.0947778497925028,-0.518708524300158,1.7391081046402452,-0.322175532579422,-0.1439061611890792,0.0029259815346449,walking,2026-03-04_14-07-26
1772633252680926200,6.08892626953125,-0.1295484997266903,-0.5771120518215,1.4026678263306618,-0.3503230214118957,-0.1373454630374908,-0.0338088646531105,walking,2026-03-04_14-07-26
1772633252690875400,6.09887548828125,-0.2751368646282702,-0.6124316408753395,1.0051303975015875,-0.3663581311702728,-0.0966254025697708,-0.0848541781306266,walking,2026-03-04_14-07-26
1772633252700824600,6.108824462890625,-0.3889036386596038,-0.6752461167067288,0.6589151596307754,-0.372472733259201,-0.0366310402750968,-0.1361860632896423,walking,2026-03-04_14-07-26
1772633252710773500,6.1187734375,-0.3602913652246817,-0.7801264409817755,0.3810585877150297,-0.3766600489616394,0.0238819662481546,-0.1774128824472427,walking,2026-03-04_14-07-26
1772633252720722400,6.128722412109375,-0.2685431654516607,-0.8436196928575634,0.2317337031662464,-0.390961229801178,0.075781911611557,-0.2093583047389984,walking,2026-03-04_14-07-26
1772633252730671400,6.13867138671875,-0.2230418626666069,-0.8836560813002288,0.1604787312477827,-0.4091546833515167,0.1125155165791511,-0.2420338839292526,walking,2026-03-04_14-07-26
1772633252740620500,6.14862060546875,-0.2490809976778924,-0.8827962496004998,0.1426665957033634,-0.4176437854766845,0.1104398444294929,-0.2922597527503967,walking,2026-03-04_14-07-26
1772633252750569500,6.158569580078125,-0.3205687919715419,-0.8912136570729314,0.0325514395147562,-0.3925585448741913,0.0988915488123893,-0.3543338477611542,walking,2026-03-04_14-07-26
1772633252760518700,6.1685185546875,-0.3270690041784196,-0.9154410664871334,-0.2349129177242517,-0.3221120536327362,0.1237580254673957,-0.4215565621852875,walking,2026-03-04_14-07-26
1772633252770467600,6.178467529296875,-0.2293881264207884,-0.9050507515065372,-0.5442115066081286,-0.2233492732048034,0.1760102361440658,-0.471286416053772,walking,2026-03-04_14-07-26
1772633252780416500,6.18841650390625,-0.0411438016952946,-0.8238100998856127,-0.7020166347324848,-0.1193842515349388,0.2137794494628906,-0.484995573759079,walking,2026-03-04_14-07-26
1772633252790365400,6.198365478515625,0.2579084837885573,-0.7619476640820503,-0.7104734974324702,-0.0120684672147035,0.2308052331209182,-0.4593473672866821,walking,2026-03-04_14-07-26
1772633252800314400,6.208314453125,0.5735973216988146,-0.6890683058321475,-0.6130377900749444,0.0782097652554512,0.2194766849279403,-0.4074287712574005,walking,2026-03-04_14-07-26
1772633252810264600,6.2182646484375,0.8250839192137122,-0.6632987815424799,-0.382633874207735,0.1347139924764633,0.1662513613700866,-0.3300957679748535,walking,2026-03-04_14-07-26
1772633252820213500,6.228213623046875,1.0297471715595572,-0.7257016078330576,-0.0558025512427091,0.1463594585657119,0.0839924588799476,-0.2492896169424057,walking,2026-03-04_14-07-26
1772633252830162400,6.238162353515625,1.0673537755720317,-0.8572641873285174,0.2016261496722698,0.1249946057796478,0.0062873163260519,-0.1809804141521453,walking,2026-03-04_14-07-26
1772633252840111600,6.248111572265625,0.9233093156442046,-0.994890012385696,0.3040437370955944,0.074906937777996,-0.0702676475048065,-0.1382691711187362,walking,2026-03-04_14-07-26
1772633252850060500,6.258060546875,0.7445058962199836,-1.1231988507822157,0.2952466826558113,0.0269424263387918,-0.1337615698575973,-0.1174275130033493,walking,2026-03-04_14-07-26
1772633252860009500,6.268009521484375,0.5995249591596424,-1.1780347489498555,0.0781160898596048,0.0069404896348714,-0.1650039106607437,-0.0988125503063201,walking,2026-03-04_14-07-26
1772633252869958400,6.27795849609375,0.5413980566225945,-1.1049807647854089,-0.3162643362432718,0.021015690639615,-0.1488555818796157,-0.0714848712086677,walking,2026-03-04_14-07-26
1772633252879907600,6.287907470703125,0.5978657937757671,-0.9929514455385504,-0.7046463987141848,0.0612997338175773,-0.1179402843117713,-0.0323126949369907,walking,2026-03-04_14-07-26
1772633252889856500,6.2978564453125,0.7431006325319409,-0.9568895136848092,-0.9911480493783952,0.1136281937360763,-0.1043527051806449,0.0116262789815664,walking,2026-03-04_14-07-26
1772633252899805400,6.307805419921875,0.9487672897666692,-0.9366476667754352,-1.1306593959212303,0.177180528640747,-0.1239184141159057,0.0603464134037494,walking,2026-03-04_14-07-26
1772633252909754600,6.317754638671875,1.1423995180755853,-0.9213603735335172,-1.1521569419801234,0.2186931669712066,-0.1617539077997207,0.1007291600108146,walking,2026-03-04_14-07-26
1772633252919703600,6.32770361328125,1.1877991140518336,-0.8939211624659598,-1.1018272691905495,0.2277143597602844,-0.2067810297012329,0.1407447606325149,walking,2026-03-04_14-07-26
1772633252929652500,6.337652587890625,1.1000310334235428,-0.8542914551280438,-1.0272247404098511,0.1989921778440475,-0.2340252995491027,0.1655052453279495,walking,2026-03-04_14-07-26
1772633252939601400,6.347601318359375,0.8727180693089962,-0.8293255023062228,-1.0834615914165973,0.1567259579896927,-0.2279644757509231,0.1543418020009994,walking,2026-03-04_14-07-26
1772633252949550300,6.35755029296875,0.5883320956245064,-0.8178827556632459,-1.1919891861528158,0.1059305444359779,-0.2167000025510788,0.1176676154136657,walking,2026-03-04_14-07-26
1772633252959499500,6.36749951171875,0.3874641073757782,-0.7605394047193229,-1.3220938219249248,0.0476123765110969,-0.2114016562700271,0.0795090422034263,walking,2026-03-04_14-07-26
1772633252969449500,6.377449462890625,0.2514241632705554,-0.605253273678571,-1.483871360811591,0.0006159711629152,-0.2301515340805053,0.0586156845092773,walking,2026-03-04_14-07-26
1772633252979398400,6.3873984375,0.1205414923306554,-0.3449482866749167,-1.679542401471734,-0.0249778069555759,-0.2580883502960205,0.0364105142652988,walking,2026-03-04_14-07-26
1772633252989347600,6.39734765625,-0.0977767028149217,-0.0166565357685089,-1.934381085893512,-0.032305534929037,-0.287373274564743,0.0042121950536966,walking,2026-03-04_14-07-26
1772633252999296500,6.407296630859375,-0.3195002494245767,0.2650105343461036,-2.126598771229386,-0.0338254012167453,-0.3061376214027405,-0.0357029996812343,walking,2026-03-04_14-07-26
1772633253009245400,6.417245361328125,-0.5557214732684195,0.5603239986278117,-2.1979332381248478,-0.0500204488635063,-0.2999323010444641,-0.0765934959053993,walking,2026-03-04_14-07-26
1772633253019194600,6.427194580078125,-0.7892562345072627,0.930849794151634,-2.185137469437718,-0.0646726265549659,-0.2606999576091766,-0.1151022762060165,walking,2026-03-04_14-07-26
1772633253029143600,6.4371435546875,-0.9538988074362278,1.3387784147441386,-2.1262772841900586,-0.0534268468618392,-0.1824207305908203,-0.135630801320076,walking,2026-03-04_14-07-26
1772633253039092500,6.447092529296875,-0.9859200855970384,1.70669008224681,-2.087270384925604,-0.0012725652195513,-0.0475595891475677,-0.1379016786813736,walking,2026-03-04_14-07-26
1772633253049041400,6.45704150390625,-0.887703749255836,2.005524560261517,-2.0186065985441206,0.096403032541275,0.1443666517734527,-0.1163648962974548,walking,2026-03-04_14-07-26
1772633253058990600,6.466990478515625,-0.7662316250115633,2.2432759162820872,-1.7919804476499557,0.2095367908477783,0.3363043963909149,-0.075686976313591,walking,2026-03-04_14-07-26
1772633253068939500,6.476939453125,-0.5553120887499302,2.3910861584842205,-1.2591390608400106,0.3208229541778564,0.4409541487693786,-0.0193240232765674,walking,2026-03-04_14-07-26
1772633253078888400,6.486888427734375,-0.2724886516744271,2.3394737524077294,-0.5778145010024309,0.4313771724700928,0.4620932638645172,0.0420282818377018,walking,2026-03-04_14-07-26
1772633253088837600,6.496837646484375,-0.0571634643323719,2.240394954018295,0.0430202265590429,0.5369842052459717,0.3986212313175201,0.1036805659532547,walking,2026-03-04_14-07-26
1772633253098786600,6.50678662109375,0.0283740076996386,2.158316682529449,0.6028150867462158,0.6239777207374573,0.2753727734088897,0.1567821353673935,walking,2026-03-04_14-07-26
1772633253108735500,6.516735595703125,-0.0074471742007881,1.9830049776785077,1.090530799150467,0.6704725623130798,0.1353212743997573,0.1852228343486786,walking,2026-03-04_14-07-26
1772633253118684400,6.526684326171875,-0.222867236752063,1.7624774359203874,1.5156033006370069,0.6553071737289429,0.0130571434274315,0.1600887179374694,walking,2026-03-04_14-07-26
1772633253128634400,6.53663427734375,-0.591148870078288,1.4394826223783197,1.82192433501482,0.5934527516365051,-0.0338949598371982,0.0893083661794662,walking,2026-03-04_14-07-26
1772633253138583300,6.546583251953125,-0.98778661012128,1.0816992579191922,1.9337626617342232,0.4899151921272278,-0.0078545724973082,-0.015848409384489,walking,2026-03-04_14-07-26
1772633253148532500,6.556532470703125,-1.2983813762955367,0.793901429964602,2.0611814194232223,0.336393654346466,0.036158662289381,-0.141048178076744,walking,2026-03-04_14-07-26
1772633253158481700,6.566481689453125,-1.4914555323302745,0.5465010788500309,2.2001497451305387,0.1338919699192047,0.0527283176779747,-0.2921141386032104,walking,2026-03-04_14-07-26
1772633253168430600,6.5764306640625,-1.5582922494150695,0.3251873551502823,2.350434414622188,-0.1002026498317718,0.0440897792577743,-0.4461091756820678,walking,2026-03-04_14-07-26
1772633253178379500,6.586379638671875,-1.5872481486558914,0.2374000583648681,2.3626024067997933,-0.331695556640625,0.024401830509305,-0.5740628838539124,walking,2026-03-04_14-07-26
1772633253188328400,6.596328369140625,-1.474481016653776,0.3124628981336951,2.149782662940025,-0.5268698930740356,0.0173571780323982,-0.6659576892852783,walking,2026-03-04_14-07-26
1772633253198277400,6.60627734375,-1.1915554709106684,0.4524192119650542,1.6579565926074982,-0.6611096858978271,0.0181039292365312,-0.7130146622657776,walking,2026-03-04_14-07-26
1772633253208226600,6.6162265625,-0.8869142063133418,0.6697973497815429,1.0404951408714056,-0.707990288734436,0.0451729521155357,-0.7121860384941101,walking,2026-03-04_14-07-26
1772633253218175500,6.626175537109375,-0.5767650650147348,0.8773059816211461,0.4082575602859258,-0.6805200576782227,0.1013209074735641,-0.6659881472587585,walking,2026-03-04_14-07-26
1772633253228124700,6.636124755859375,-0.2626188899692148,1.019825862330198,-0.1384428405284881,-0.5889297127723694,0.146421417593956,-0.5872898697853088,walking,2026-03-04_14-07-26
1772633253238073600,6.646073486328125,0.0256254396438598,1.0723844632156192,-0.5026654442548751,-0.447814404964447,0.1830697059631347,-0.4662007689476013,walking,2026-03-04_14-07-26
