time,seconds_elapsed,acc_x,acc_y,acc_z,gyr_x,gyr_y,gyr_z,activity,session
1772633262016843800,0.06684375,-0.0287410874463617,-0.8104422303989529,0.6297516089886427,-0.0266176462173461,0.130005344748497,0.1226378604769706,walking,2026-03-04_14-07-41
1772633262026792700,0.076792724609375,0.1445809048920869,-0.6801411952719092,0.6294242767304181,-0.0205879844725132,0.1167992651462555,0.1464806199073791,walking,2026-03-04_14-07-41
1772633262036741600,0.08674169921875,0.1799287153934128,-0.611246230483055,0.6326344709485769,-0.0319368205964565,0.0686746910214424,0.1681065261363983,walking,2026-03-04_14-07-41
1772633262046690800,0.09669091796875,0.1329414301006123,-0.6421545789659023,0.5898369472295045,-0.0483381673693656,-0.0036245370283722,0.1752192974090576,walking,2026-03-04_14-07-41
1772633262056639700,0.1066396484375,0.0170656828249804,-0.6877057853072881,0.3699585170298815,-0.0611703880131244,-0.0440103560686111,0.1770006716251373,walking,2026-03-04_14-07-41
1772633262066588700,0.116588623046875,-0.1292365477006882,-0.6808923059001565,0.0669119742780923,-0.0857761353254318,-0.0472708642482757,0.171058103442192,walking,2026-03-04_14-07-41
1772633262076539000,0.126538818359375,-0.3114589817881584,-0.6959966437906027,-0.180767486038804,-0.1257268041372299,-0.0116555979475378,0.1546265184879303,walking,2026-03-04_14-07-41
1772633262086487800,0.13648779296875,-0.4040633234664798,-0.72282035330832,-0.3563923484921455,-0.1808377206325531,0.0300130192190408,0.1404577046632766,walking,2026-03-04_14-07-41
1772633262096436700,0.146436767578125,-0.3580612315524369,-0.7618374817058443,-0.6213654734373092,-0.209703043103218,0.1283225119113922,0.1438987106084823,walking,2026-03-04_14-07-41
1772633262106385700,0.1563857421875,-0.1928550151250325,-0.7613445836223661,-0.913701821604371,-0.2068255096673965,0.2352681308984756,0.1828658133745193,walking,2026-03-04_14-07-41
1772633262116334600,0.16633447265625,-0.0202686801173724,-0.7750557135887444,-1.099935756355524,-0.1724262833595276,0.2877137660980224,0.2485202848911285,walking,2026-03-04_14-07-41
1772633262126283500,0.176283447265625,0.0597798573758453,-0.8626227917522191,-1.205713175600767,-0.1181444078683853,0.2758560478687286,0.3033528923988342,walking,2026-03-04_14-07-41
1772633262136232700,0.186232666015625,-0.0115344617807306,-1.0459418619699776,-1.2247405321538447,-0.0561343543231487,0.2272678166627884,0.3184887170791626,walking,2026-03-04_14-07-41
1772633262146182000,0.196181884765625,-0.0957898033140227,-1.2403029890753328,-1.219926409870386,0.0022144438698887,0.158796340227127,0.3112712800502777,walking,2026-03-04_14-07-41
1772633262156130800,0.206130859375,-0.1769435073038563,-1.3478697759553788,-1.1804618299663066,0.0516358762979507,0.0763958469033241,0.2909612357616424,walking,2026-03-04_14-07-41
1772633262166079700,0.216079833984375,-0.2953803189728409,-1.447667828530073,-1.1204068819761277,0.0663069710135459,-0.014217403717339,0.2477913945913314,walking,2026-03-04_14-07-41
1772633262176028700,0.226028564453125,-0.4239993192970752,-1.5148996824122964,-1.0848340488135817,0.0413890071213245,-0.075147770345211,0.1912730932235717,walking,2026-03-04_14-07-41
1772633262185977600,0.2359775390625,-0.6095283937145024,-1.4387857261553405,-1.117839661836624,-0.0192636866122484,-0.1116189658641815,0.1264935582876205,walking,2026-03-04_14-07-41
1772633262195926800,0.2459267578125,-0.8497279466047882,-1.2639882544368504,-1.150658227854967,-0.1165671050548553,-0.1308550387620926,0.0473638288676738,walking,2026-03-04_14-07-41
1772633262205875700,0.255875732421875,-1.119416190438345,-1.0005451155379417,-1.302701139190793,-0.230181023478508,-0.1226186752319336,-0.0432614088058471,walking,2026-03-04_14-07-41
1772633262215824600,0.26582470703125,-1.3775003595873712,-0.6193683082707226,-1.628683151850104,-0.3193205893039703,-0.0572794042527675,-0.1434524059295654,walking,2026-03-04_14-07-41
1772633262225773800,0.27577392578125,-1.4179377300463616,-0.1937579005151987,-2.046385416829586,-0.3581689000129699,0.0671946182847023,-0.2214537262916565,walking,2026-03-04_14-07-41
1772633262235722800,0.28572265625,-1.244554070648551,0.227354319038242,-2.365287700361013,-0.3396868109703064,0.1986643522977829,-0.2609603703022003,walking,2026-03-04_14-07-41
1772633262245672700,0.295672607421875,-0.8932168135888874,0.6085597678780555,-2.4762130038887262,-0.2684789597988128,0.2774499952793121,-0.2567911744117737,walking,2026-03-04_14-07-41
1772633262255621600,0.30562158203125,-0.4993593884468078,0.964081178754568,-2.397716390278936,-0.1682040840387344,0.2812877595424652,-0.2065121978521347,walking,2026-03-04_14-07-41
1772633262265570600,0.315570556640625,-0.207954622041434,1.3174081483267246,-2.2142834844231603,-0.0510577447712421,0.2224539965391159,-0.1237225085496902,walking,2026-03-04_14-07-41
1772633262275519500,0.32551953125,0.0133854782085865,1.5720624160923062,-1.9947440769195557,0.0964628234505653,0.1422644555568695,-0.0147099439054727,walking,2026-03-04_14-07-41
1772633262285469000,0.335468994140625,0.0795375374974683,1.5955163569159805,-1.7926041325062512,0.2595926225185394,0.1100554019212722,0.0905621498823165,walking,2026-03-04_14-07-41
1772633262295417900,0.34541796875,0.1116980779984965,1.4669070742681622,-1.495928293830156,0.4243838191032409,0.1578375995159149,0.2071475237607956,walking,2026-03-04_14-07-41
1772633262305366800,0.35536669921875,0.1998016376588493,1.3452198459684848,-0.9938982248693704,0.5611365437507629,0.2421186566352844,0.2966552972793579,walking,2026-03-04_14-07-41
1772633262315315700,0.365315673828125,0.1625130135543644,0.942896644167602,-0.3525204754948616,0.6497675180435181,0.3228019177913666,0.3330317437648773,walking,2026-03-04_14-07-41
1772633262325264600,0.3752646484375,-0.0459494484113529,0.5442912938460708,0.2978530657619238,0.6925261616706848,0.4069921672344208,0.2971906363964081,walking,2026-03-04_14-07-41
1772633262335213600,0.385213623046875,-0.2605687890389934,0.3472971878886222,0.8981149608939886,0.6930200457572937,0.4488439559936523,0.2176215946674347,walking,2026-03-04_14-07-41
1772633262345162800,0.395162841796875,-0.3954925520632416,0.3259372967347502,1.4428198039770126,0.6574589014053345,0.4128510653972626,0.1162630245089531,walking,2026-03-04_14-07-41
1772633262355111700,0.405111572265625,-0.5153053647931665,0.4303223848387599,1.9483195948749776,0.5758017301559448,0.3233570158481598,-0.0038076182827353,walking,2026-03-04_14-07-41
1772633262365060900,0.415060791015625,-0.6722293992340564,0.5496083972156047,2.2855267659038305,0.4723739326000213,0.2076983153820037,-0.1552445441484451,walking,2026-03-04_14-07-41
1772633262375009800,0.425009765625,-0.7484910203333943,0.7360463301062583,2.475355510276556,0.3377740383148193,0.0809523612260818,-0.3214593529701233,walking,2026-03-04_14-07-41
1772633262384958700,0.434958740234375,-0.6509596705816686,0.982543010379374,2.5461259135484693,0.175270602107048,-0.0303054582327604,-0.4690674245357513,walking,2026-03-04_14-07-41
1772633262394907600,0.44490771484375,-0.4310901543408632,1.3052382564529776,2.4678116707682607,-0.0019054664298892,-0.1095405668020248,-0.5609310269355774,walking,2026-03-04_14-07-41
1772633262404857600,0.454857666015625,-0.066910805234313,1.7171268667176365,2.180702701860666,-0.1643092930316925,-0.1611251980066299,-0.5744708180427551,walking,2026-03-04_14-07-41
1772633262414806500,0.464806640625,0.2742141968254,2.148160614696145,1.7132646383315324,-0.292592316865921,-0.2035586982965469,-0.5280108451843262,walking,2026-03-04_14-07-41
1772633262424755700,0.474755615234375,0.514969337771833,2.493488840599358,1.2506798600524662,-0.3832476735115051,-0.2134914845228195,-0.4194415211677551,walking,2026-03-04_14-07-41
1772633262434705000,0.484704833984375,0.7002655532814562,2.600103295190632,0.8345692481786012,-0.4335123896598816,-0.2244603186845779,-0.2802561521530151,walking,2026-03-04_14-07-41
1772633262444653800,0.49465380859375,0.7888247112222015,2.6295237432032823,0.5437175856113433,-0.4589309394359588,-0.2215281873941421,-0.1016065254807472,walking,2026-03-04_14-07-41
1772633262454602800,0.504602783203125,0.8760968980923295,2.420131343443692,0.180258367472887,-0.4433250427246094,-0.1408262252807617,0.0873397141695022,walking,2026-03-04_14-07-41
1772633262464551700,0.5145517578125,0.7922482559300958,1.908824035310745,-0.1726022997617721,-0.3951780200004577,-0.0154195763170719,0.2109391540288925,walking,2026-03-04_14-07-41
1772633262474500600,0.52450048828125,0.4999565140897408,1.252250762630999,-0.254192787733674,-0.3387688100337982,0.0640571415424346,0.2389481514692306,walking,2026-03-04_14-07-41
1772633262484449500,0.534449462890625,0.203372591480799,0.6461527086913585,-0.158745623844862,-0.2845854759216308,0.0896487832069397,0.1985778212547302,walking,2026-03-04_14-07-41
1772633262494398700,0.544398681640625,0.0449732968555763,0.2110761150628328,0.000637713381648,-0.2324372977018356,0.0800468251109123,0.1336181163787841,walking,2026-03-04_14-07-41
1772633262504348000,0.554347900390625,0.003991480788961,-0.0367836702570319,0.1781365530133247,-0.1930065304040908,0.0383361279964447,0.0604464374482631,walking,2026-03-04_14-07-41
1772633262514296800,0.564296875,0.1844244741763919,-0.1426911456227302,0.3325415173053741,-0.1553501039743423,-0.0238162837922573,0.0202008374035358,walking,2026-03-04_14-07-41
1772633262524245800,0.574245849609375,0.4279619027851149,-0.1149912377923726,0.3808955061078071,-0.119995042681694,-0.0784912481904029,0.0216458700597286,walking,2026-03-04_14-07-41
1772633262534194700,0.584194580078125,0.6271021173931658,-0.0779122378505766,0.3969885627746581,-0.0918319374322891,-0.108940877020359,0.0442773550748825,walking,2026-03-04_14-07-41
1772633262544143600,0.5941435546875,0.7525742710590362,-0.0810481977887451,0.4087766157239675,-0.0703996196389198,-0.1023194640874862,0.0793660953640937,walking,2026-03-04_14-07-41
1772633262554092500,0.604092529296875,0.8025545458890497,-0.1338731945253908,0.4240642012268305,-0.0613494850695133,-0.0524892397224903,0.1198981553316116,walking,2026-03-04_14-07-41
1772633262564042800,0.614042724609375,0.7670322738699614,-0.1494184080511331,0.5419231034100055,-0.066923476755619,0.0071466607041656,0.1667492836713791,walking,2026-03-04_14-07-41
1772633262573991700,0.62399169921875,0.6535692685581743,-0.1959482501663267,0.6959837843090295,-0.0891544446349144,0.0231824852526187,0.2007324695587158,walking,2026-03-04_14-07-41
1772633262583940900,0.63394091796875,0.4620942182831466,-0.2891683856554329,0.8070470350027084,-0.1213406175374984,-0.0044536697678267,0.2000608295202255,walking,2026-03-04_14-07-41
1772633262593889800,0.643889892578125,0.2611926565583795,-0.4061791465766727,0.8250672603398561,-0.1556316167116165,-0.0403290130198001,0.1723931729793548,walking,2026-03-04_14-07-41
1772633262603838700,0.653838623046875,0.0443964468156918,-0.4814391163527965,0.788026692712307,-0.197788655757904,-0.0698709264397621,0.130478486418724,walking,2026-03-04_14-07-41
1772633262613787600,0.66378759765625,-0.0889429696265608,-0.5046119021475315,0.6566974835813045,-0.2288722544908523,-0.1037848815321922,0.0936790481209755,walking,2026-03-04_14-07-41
1772633262623736600,0.673736572265625,-0.1312173097217455,-0.4735162143990397,0.3410854737669229,-0.2250255942344665,-0.1009275764226913,0.0717125013470649,walking,2026-03-04_14-07-41
1772633262633685800,0.683685791015625,-0.141271159289591,-0.3812894738614559,-0.0022059856116771,-0.1830233335494995,-0.0487568490207195,0.0661035850644111,walking,2026-03-04_14-07-41
1772633262643634700,0.693634765625,-0.0545597846399992,-0.3443392148658633,-0.1610539007872343,-0.131765991449356,0.0050017237663269,0.0771905928850174,walking,2026-03-04_14-07-41
1772633262653584000,0.703583984375,0.0558392299912869,-0.3832151812270283,-0.1211427461594343,-0.0850317850708961,0.0297487527132034,0.0897372886538505,walking,2026-03-04_14-07-41
1772633262663532800,0.71353271484375,0.175477088013105,-0.4792611877918243,-0.0478723427653312,-0.0341518297791481,0.0595926716923713,0.1071109473705291,walking,2026-03-04_14-07-41
1772633262673481700,0.723481689453125,0.222676609550789,-0.5842502331383526,0.0295084185570478,0.0126725900918245,0.0864657759666442,0.1199325397610664,walking,2026-03-04_14-07-41
1772633262683430700,0.7334306640625,0.2374600814564153,-0.6831459300458431,0.2038561006814241,0.0502963960170745,0.0849970430135726,0.1231898590922355,walking,2026-03-04_14-07-41
1772633262693379600,0.743379638671875,0.2111315715771168,-0.8252360410355031,0.3974965122967958,0.0744370594620704,0.0696629136800766,0.1109210178256034,walking,2026-03-04_14-07-41
1772633262703328500,0.75332861328125,0.2076844998631626,-0.96783527059108,0.5143307476073503,0.096153013408184,0.0568738840520381,0.0842760875821113,walking,2026-03-04_14-07-41
1772633262713277700,0.763277587890625,0.1838446284618228,-1.041603248243779,0.6361819342970848,0.1001045554876327,0.026066256687045,0.0515266768634319,walking,2026-03-04_14-07-41
1772633262723227000,0.773226806640625,0.1509428046068176,-1.1092295082710684,0.7506991248369217,0.087304338812828,-0.0072203269228339,0.0155447060242295,walking,2026-03-04_14-07-41
1772633262733176800,0.7831767578125,0.1963482458019629,-1.1643005303688347,0.7816308541953563,0.0653192028403282,-0.0248706452548503,-0.0165778044611215,walking,2026-03-04_14-07-41
1772633262743126000,0.7931259765625,0.2275779717262834,-1.1541593678437172,0.7513543738752603,0.0386913195252418,-0.0288512725383043,-0.0506825149059295,walking,2026-03-04_14-07-41
1772633262753075000,0.803074951171875,0.3424304586350917,-1.108858629132062,0.7003758817881345,0.010535355657339,-0.0423507764935493,-0.0682156682014465,walking,2026-03-04_14-07-41
1772633262763024000,0.81302392578125,0.5026510869359597,-1.038494614703953,0.5959954698592425,-0.0182552803307771,-0.0721411630511283,-0.0758522823452949,walking,2026-03-04_14-07-41
1772633262772972800,0.822972900390625,0.5141814387971535,-0.90532547679469,0.4181383183091878,-0.0466630868613719,-0.0861346423625946,-0.0794926211237907,walking,2026-03-04_14-07-41
1772633262782921700,0.832921630859375,0.3686051661921665,-0.7794597937665879,0.2068921073764562,-0.0780921205878257,-0.0889730378985405,-0.0880642682313919,walking,2026-03-04_14-07-41
1772633262792870700,0.84287060546875,0.3004125409863889,-0.6100941378384829,0.0494160650759935,-0.108225829899311,-0.1230136826634407,-0.090519867837429,walking,2026-03-04_14-07-41
1772633262802819800,0.85281982421875,0.3554180235672742,-0.5338618158988654,-0.2057528742134571,-0.121229775249958,-0.1284734308719635,-0.0822563469409942,walking,2026-03-04_14-07-41
1772633262812769000,0.86276904296875,0.4343338489698246,-0.4316682464897632,-0.571976880890131,-0.1045403629541397,-0.0895742252469062,-0.0584517456591129,walking,2026-03-04_14-07-41
1772633262822718000,0.872718017578125,0.54687093507573,-0.3437345269709825,-0.9298930779486894,-0.05509664863348,-0.0207442939281463,-0.0124546959996223,walking,2026-03-04_14-07-41
1772633262832667000,0.8826669921875,0.7365989224877209,-0.356063993320614,-1.2554057195305823,0.034604825079441,0.095953069627285,0.065824307501316,walking,2026-03-04_14-07-41
1772633262842615800,0.89261572265625,0.8694121596314013,-0.4420401490308344,-1.3906635002821683,0.1374965757131576,0.2152110189199447,0.150322139263153,walking,2026-03-04_14-07-41
1772633262852564700,0.902564697265625,0.9391698787294328,-0.6557106645010411,-1.266691668176651,0.2246054857969284,0.2591233849525451,0.2146640419960022,walking,2026-03-04_14-07-41
1772633262862513700,0.912513671875,0.9751439861692488,-0.960463280518353,-0.8649182092130183,0.2793030738830566,0.2200617492198944,0.2560274600982666,walking,2026-03-04_14-07-41
1772633262872463000,0.922463134765625,0.9593315000094472,-1.2137056356593965,-0.470526092672348,0.28177011013031,0.1567284166812896,0.2779228389263153,walking,2026-03-04_14-07-41
1772633262882412000,0.932412109375,0.8639921804092824,-1.3038099772155285,-0.1726531531661748,0.2283750474452972,0.0548902079463005,0.2987003028392792,walking,2026-03-04_14-07-41
1772633262892361000,0.94236083984375,0.6413211968816817,-1.3148026420034469,-0.0341062677413225,0.1452782452106475,-0.06473970413208,0.2916761934757232,walking,2026-03-04_14-07-41
1772633262902311000,0.952310791015625,0.4379787082782015,-1.3372485748283565,-0.3108849812924861,0.0613173097372055,-0.0969596952199935,0.2862713038921356,walking,2026-03-04_14-07-41
1772633262912259800,0.962259765625,0.2255384287226945,-1.3555425025403498,-0.6709288380295038,-0.0195048358291387,-0.1226618587970733,0.2242023348808288,walking,2026-03-04_14-07-41
1772633262922208800,0.972208740234375,-0.1148655290534719,-1.2696955261677505,-0.9532675237953664,-0.1010103449225425,-0.1712072938680648,0.1462114006280899,walking,2026-03-04_14-07-41
1772633262932158000,0.982157958984375,-0.2751553501330316,-0.9083720048837364,-1.2905536052793265,-0.1681829094886779,-0.2021202892065048,0.0934184193611145,walking,2026-03-04_14-07-41
1772633262942107000,0.99210693359375,-0.3362611588830128,-0.5102158596344292,-1.6310025347083803,-0.2230866402387619,-0.2188803553581237,0.0713551938533783,walking,2026-03-04_14-07-41
1772633262952055800,1.002055908203125,-0.3669167016485706,-0.080887015877664,-1.8985224215269088,-0.2631208598613739,-0.2392289191484451,0.0654147341847419,walking,2026-03-04_14-07-41
1772633262962005000,1.0120048828125,-0.4443163868671282,0.3130868752509355,-2.183321944448352,-0.2697342932224273,-0.2380467355251312,0.0757672414183616,walking,2026-03-04_14-07-41
1772633262971954000,1.021953857421875,-0.559394280029647,0.7444448867477477,-2.4394547603338954,-0.2400436848402023,-0.1750229895114898,0.0973845571279525,walking,2026-03-04_14-07-41
1772633262981902800,1.03190283203125,-0.7197574586063623,1.1306684560105205,-2.571753691279888,-0.1668477654457092,-0.0707378536462783,0.1275762766599655,walking,2026-03-04_14-07-41
1772633262991851800,1.041851806640625,-0.8710608766864985,1.3719118919305502,-2.5734558190226555,-0.0646241530776023,0.0490658320486545,0.1626573354005813,walking,2026-03-04_14-07-41
1772633263001800700,1.05180078125,-0.9638552610442042,1.4775256450466812,-2.302982343095541,0.0499205365777015,0.1483048051595688,0.1832792609930038,walking,2026-03-04_14-07-41
1772633263011750000,1.06175,-1.0347815124649553,1.4239393085487186,-1.76634682469964,0.1591110676527023,0.1931537985801696,0.196468636393547,walking,2026-03-04_14-07-41
1772633263021699000,1.071698974609375,-1.040616283033043,1.29658455600664,-1.1946534369260071,0.2599276900291443,0.173662394285202,0.2064922302961349,walking,2026-03-04_14-07-41
1772633263031648000,1.08164794921875,-1.0920556706301867,1.1769257647946476,-0.8218909683912992,0.3789930045604706,0.1417256593704223,0.2175696045160293,walking,2026-03-04_14-07-41
1772633263041597000,1.091596923828125,-1.1506599814206362,1.1569573279991745,-0.5775614030241966,0.5194476246833801,0.1052677705883979,0.2255950421094894,walking,2026-03-04_14-07-41
1772633263051545900,1.1015458984375,-1.3016660970546303,1.1350129149556158,-0.3279565276026726,0.6636442542076111,0.0769307166337966,0.2223424166440963,walking,2026-03-04_14-07-41
1772633263061494800,1.111494873046875,-1.5522466856405135,0.9860583250239492,-0.0277525148004293,0.7849810719490051,0.0594302825629711,0.1991398930549621,walking,2026-03-04_14-07-41
1772633263071445000,1.121445068359375,-1.8293625221915544,0.8190949079319835,0.3060346186518669,0.8687770962715149,0.0381874814629554,0.1378965824842453,walking,2026-03-04_14-07-41
1772633263081394000,1.131393798828125,-2.055377263189107,0.7208648353263736,0.6843757641017436,0.9040847420692444,0.0056556370109319,0.0432395823299884,walking,2026-03-04_14-07-41
1772633263091342800,1.1413427734375,-2.114813056367636,0.5762079425886273,0.966507529118657,0.8831131458282471,0.0116860838606953,-0.0694324895739555,walking,2026-03-04_14-07-41
1772633263101291800,1.151291748046875,-2.162024889397621,0.4481242912501096,1.2626906158417464,0.7928082942962646,0.0585641078650951,-0.2057458609342575,walking,2026-03-04_14-07-41
1772633263111241000,1.161240966796875,-2.1933932566076515,0.3337400794401765,1.6312860278248786,0.6297661662101746,0.1208744198083877,-0.3467367589473724,walking,2026-03-04_14-07-41
1772633263121190000,1.17118994140625,-2.1005609513923527,0.2989721329197287,1.9596365231812,0.4106945097446441,0.1663068979978561,-0.498596042394638,walking,2026-03-04_14-07-41
1772633263131138800,1.181138916015625,-1.9807196432203051,0.2529676298528909,2.21445241124928,0.1670246124267578,0.1754852086305618,-0.6440315246582031,walking,2026-03-04_14-07-41
1772633263141087700,1.191087646484375,-1.734730912469327,0.3562318972334266,2.3112322850465774,-0.0630631893873214,0.1576686650514602,-0.7487630248069763,walking,2026-03-04_14-07-41
1772633263151037000,1.201036865234375,-1.308028763954341,0.5279430933743715,2.1178046393990515,-0.2347631603479385,0.1182664185762405,-0.7969014644622803,walking,2026-03-04_14-07-41
1772633263160985900,1.21098583984375,-0.865234143294394,0.7250386138796806,1.6120149256438017,-0.3228522837162018,0.0782931745052337,-0.8056379556655884,walking,2026-03-04_14-07-41
1772633263170935000,1.22093505859375,-0.5653755463963375,0.9484998710021376,1.072038864648342,-0.3339595198631286,0.0455392152070999,-0.7903341054916382,walking,2026-03-04_14-07-41
1772633263180884000,1.230884033203125,-0.2641654618240893,1.1009341197431086,0.7104097845464944,-0.30082768201828,-0.0241237506270408,-0.7315589189529419,walking,2026-03-04_14-07-41
1772633263190833000,1.2408330078125,0.0115386082328855,1.1000178816810249,0.4988970316320657,-0.2509450018405914,-0.1048490405082702,-0.6473008394241333,walking,2026-03-04_14-07-41
1772633263200781800,1.25078173828125,0.046356019918248,1.1151461849689484,0.4107552223205566,-0.2072544991970062,-0.1606268137693405,-0.5728551149368286,walking,2026-03-04_14-07-41
1772633263210730800,1.260730712890625,-0.0451869761388748,1.0122104188904166,0.3513900101602077,-0.1975851207971573,-0.1741004735231399,-0.5088855028152466,walking,2026-03-04_14-07-41
1772633263220679700,1.2706796875,-0.1387272104278206,0.8605793032258748,0.3171007870674133,-0.2033554017543792,-0.1564863324165344,-0.4520584344863891,walking,2026-03-04_14-07-41
1772633263230628900,1.28062890625,-0.1748901915032416,0.7293257896795868,0.2395066752552986,-0.2056116908788681,-0.0894197300076484,-0.3886174261569977,walking,2026-03-04_14-07-41
1772633263240578000,1.290578125,-0.1524910204295068,0.6283847045496106,0.2676952433854341,-0.2057594954967498,-0.0158096924424171,-0.321647971868515,walking,2026-03-04_14-07-41
1772633263250527700,1.30052783203125,-0.0897216258488595,0.467368505424261,0.3048813569635152,-0.1947587728500366,0.0388887040317058,-0.2600365579128265,walking,2026-03-04_14-07-41
1772633263260477000,1.310476806640625,-0.0499587205853313,0.2463403206676244,0.375393986082077,-0.1692067980766296,0.0535446144640445,-0.2180188000202179,walking,2026-03-04_14-07-41
1772633263270425900,1.32042578125,0.0050563335414975,0.019043430905044,0.572056960389018,-0.1449245363473892,0.0048010861501097,-0.19112628698349,walking,2026-03-04_14-07-41
1772633263280374800,1.330374755859375,0.062945700995624,-0.1734054328382015,0.7611112132579088,-0.1300025880336761,-0.074837289750576,-0.1740980297327041,walking,2026-03-04_14-07-41
1772633263290324000,1.340323974609375,0.0442721993815153,-0.2876394225224852,0.8401660452723503,-0.1186525374650955,-0.1420517265796661,-0.1665184646844864,walking,2026-03-04_14-07-41
1772633263300273000,1.35027294921875,0.0092458941858261,-0.3120999100401997,0.8811176488637924,-0.116343580186367,-0.1971317529678344,-0.1654004752635955,walking,2026-03-04_14-07-41
1772633263310221800,1.360221923828125,0.0655360097497701,-0.3215335088178515,0.8834206651091575,-0.119449459016323,-0.2680378556251526,-0.1608550250530243,walking,2026-03-04_14-07-41
1772633263320170800,1.370170654296875,0.1730878913216292,-0.2887432921111583,0.6922042657703161,-0.1052803695201873,-0.2896440923213959,-0.1355065256357193,walking,2026-03-04_14-07-41
1772633263330120000,1.380119873046875,0.2058257933191955,-0.1946808605790138,0.4024748852312564,-0.072269819676876,-0.2344955652952194,-0.0958823412656784,walking,2026-03-04_14-07-41
1772633263340068900,1.39006884765625,0.2191583722967654,-0.1198310790389776,0.2922328877925872,-0.0439849197864532,-0.173627957701683,-0.0509114041924476,walking,2026-03-04_14-07-41
1772633263350017800,1.400017822265625,0.2549914638306945,-0.1608575014322996,0.4467670314222574,-0.0477456599473953,-0.1590610444545745,-0.0162220411002635,walking,2026-03-04_14-07-41
1772633263359967000,1.409967041015625,0.2660937264729291,-0.2392459784924983,0.5869301198720932,-0.0653313174843788,-0.1482645869255066,0.0076196421869099,walking,2026-03-04_14-07-41
1772633263369916000,1.419916015625,0.136931413052231,-0.2721814488887786,0.4696101468712091,-0.0647256225347518,-0.0652205273509025,0.0265381131321191,walking,2026-03-04_14-07-41
1772633263379864800,1.42986474609375,-0.0353750090355053,-0.2467331193774938,0.4070025917887687,-0.0673080831766128,0.0158743225038051,0.044886227697134,walking,2026-03-04_14-07-41
1772633263389814000,1.43981396484375,-0.0958532970042899,-0.2883174679145217,0.539238394370675,-0.0800490528345108,0.0245196428149938,0.045417059212923,walking,2026-03-04_14-07-41
1772633263399763000,1.449762939453125,-0.0134090782798826,-0.3705567751839757,0.6203723707467317,-0.0839220881462097,0.0291221160441637,0.0513308756053447,walking,2026-03-04_14-07-41
1772633263409711900,1.4597119140625,0.0945796603392809,-0.3278217953070998,0.6267921746611594,-0.076457567512989,0.0522383078932762,0.0814613401889801,walking,2026-03-04_14-07-41
1772633263419660800,1.469660888671875,0.1448759423159062,-0.2307394314318895,0.7465197933256625,-0.0836944431066513,0.0675323083996772,0.1218561679124832,walking,2026-03-04_14-07-41
1772633263429611000,1.479611083984375,0.1859905544493347,-0.2609144972041249,0.8941349513471126,-0.1020686402916908,0.0495704039931297,0.1538099497556686,walking,2026-03-04_14-07-41
1772633263439560000,1.489559814453125,0.2546772467823699,-0.3405734325915575,0.9126859225600956,-0.1031488180160522,0.028479766100645,0.185835525393486,walking,2026-03-04_14-07-41
1772633263449508900,1.4995087890625,0.2276084033971652,-0.3629033378213643,0.7735843258619308,-0.0920135304331779,0.0200868677347898,0.2143475115299224,walking,2026-03-04_14-07-41
1772633263459457800,1.509457763671875,0.147832819360122,-0.3779650056138634,0.6165817462921143,-0.0728020146489143,0.0324612483382225,0.2445943653583526,walking,2026-03-04_14-07-41
1772633263469406700,1.51940673828125,0.1688470023488625,-0.4952352942541241,0.5185919121831655,-0.0555826760828495,0.0409139432013034,0.283745139837265,walking,2026-03-04_14-07-41
1772633263479356000,1.52935595703125,0.221853164338693,-0.5854992102861404,0.4870534491032361,-0.0462211333215236,0.02102892100811,0.3222893476486206,walking,2026-03-04_14-07-41
1772633263489304800,1.539304931640625,0.1514192630121484,-0.6732827076792717,0.4436421773999929,-0.054604448378086,-0.0036978747230023,0.3446416556835174,walking,2026-03-04_14-07-41
1772633263499254000,1.54925390625,-0.0228130125716328,-0.817040313489735,0.3363479238510131,-0.0782354772090911,-0.0188448689877986,0.3407800793647766,walking,2026-03-04_14-07-41
1772633263509203000,1.559202880859375,-0.2225621163256466,-0.9332926572591066,0.1733867281377315,-0.1151385456323623,-0.0528788231313228,0.3147465586662292,walking,2026-03-04_14-07-41
1772633263519151900,1.56915185546875,-0.310975034196116,-0.9181643539711832,-0.0964753378927707,-0.1451558321714401,-0.0690095871686935,0.2943451404571533,walking,2026-03-04_14-07-41
1772633263529100800,1.579100830078125,-0.3694334702424705,-0.8259022498592734,-0.5007768540292978,-0.1492833495140075,-0.0491382367908954,0.2859314978122711,walking,2026-03-04_14-07-41
1772633263539050000,1.589050048828125,-0.4004459001543,-0.7117847261615097,-0.956615665179491,-0.1289336085319519,0.0016314666718244,0.2947137951850891,walking,2026-03-04_14-07-41
1772633263548999000,1.5989990234375,-0.352104734300822,-0.6590985533736646,-1.3422627497285604,-0.09038095921278,0.0775898247957229,0.3215409517288208,walking,2026-03-04_14-07-41
1772633263558947800,1.60894775390625,-0.2153834568679332,-0.6997719245456159,-1.598498441466689,-0.0306664947420358,0.1403818279504776,0.3573016226291656,walking,2026-03-04_14-07-41
1772633263568896800,1.618896728515625,-0.1574620137751102,-0.7560928005740046,-1.7949316986709831,0.0562981367111206,0.1784188598394394,0.3884890675544739,walking,2026-03-04_14-07-41
1772633263578846000,1.628845947265625,-0.1193520998829975,-0.8053171424701809,-1.8616770842105148,0.1568982601165771,0.1917940527200698,0.4198762774467468,walking,2026-03-04_14-07-41
1772633263588795000,1.638794921875,-0.077262907096371,-0.878057969032228,-1.782736818486452,0.2413824051618576,0.1615524291992187,0.4480889737606048,walking,2026-03-04_14-07-41
1772633263598743800,1.648743896484375,0.0218177544565871,-1.000859003792703,-1.5028244830846786,0.2801173031330108,0.0826986208558082,0.4657529294490814,walking,2026-03-04_14-07-41
1772633263608693000,1.65869287109375,0.1004508904602378,-1.1643263954624532,-1.1722487128943204,0.26447793841362,-0.0235056690871715,0.4717940390110016,walking,2026-03-04_14-07-41
1772633263618642700,1.668642578125,0.0525355853360146,-1.2218825123742223,-0.9060492610245944,0.1877693086862564,-0.1560895442962646,0.4515705108642578,walking,2026-03-04_14-07-41
1772633263628591900,1.678591796875,-0.1373384960157796,-1.1981167291224002,-0.8382114040732384,0.0664451867341995,-0.2780903875827789,0.3933082520961761,walking,2026-03-04_14-07-41
1772633263638541000,1.688541015625,-0.4313256070645526,-1.0315694916158913,-1.0741051495283842,-0.0592323169112205,-0.3483893275260925,0.2937851250171661,walking,2026-03-04_14-07-41
1772633263648490000,1.698489990234375,-0.6735232384368777,-0.6964186685949564,-1.5791186182141304,-0.169247418642044,-0.3592423796653747,0.176919549703598,walking,2026-03-04_14-07-41
1772633263658439000,1.70843896484375,-0.7215517946772277,-0.2311813299804925,-2.177570249053836,-0.2375708073377609,-0.2969726026058197,0.0709614232182502,walking,2026-03-04_14-07-41
1772633263668387800,1.718387939453125,-0.5990027619164436,0.3268704859316348,-2.6355010640472174,-0.2584712505340576,-0.1944664269685745,-0.0006392557406798,walking,2026-03-04_14-07-41
1772633263678336800,1.728336669921875,-0.3114686994645744,0.9086302174285054,-2.9253946952372787,-0.224554032087326,-0.0867175981402397,0.0057744346559047,walking,2026-03-04_14-07-41
1772633263688286000,1.738285888671875,-0.0568362234056927,1.3913099814921617,-2.9930548575341698,-0.1503201425075531,-0.0245547238737344,0.0590621493756771,walking,2026-03-04_14-07-41
1772633263698235000,1.74823486328125,0.021276030529011,1.6997557529389855,-2.9056507148474453,-0.0478587336838245,0.0347397588193416,0.1268835365772247,walking,2026-03-04_14-07-41
1772633263708183800,1.758183837890625,0.0338839302275329,1.86720666128695,-2.837808181720972,0.0919048264622688,0.1563819497823715,0.2256194204092025,walking,2026-03-04_14-07-41
1772633263718132200,1.76813232421875,0.0496061808206141,1.8110069274201988,-2.59047475836277,0.2396434247493744,0.3244481682777405,0.2952459156513214,walking,2026-03-04_14-07-41
1772633263728081200,1.7780810546875,0.0196182351183146,1.5755138717204331,-1.9809879387676717,0.3721960484981537,0.4555460214614868,0.3229901492595672,walking,2026-03-04_14-07-41
1772633263738030000,1.788030029296875,0.1068950250983238,1.300666126231849,-1.1487228758782149,0.4884579181671142,0.5368118286132812,0.3396578133106231,walking,2026-03-04_14-07-41
1772633263747979300,1.797979248046875,0.2990621127581224,1.1333300764352083,-0.4119260196655988,0.589443564414978,0.5756485462188721,0.3660817444324493,walking,2026-03-04_14-07-41
1772633263757928400,1.807928466796875,0.3711967901205644,1.0536764017447828,0.3335790436595678,0.6578974723815918,0.5675458908081055,0.3870693147182464,walking,2026-03-04_14-07-41
1772633263767877400,1.81787744140625,0.3273827463027089,1.0261886753603815,1.0828396601259709,0.6745239496231079,0.4893710017204284,0.394618272781372,walking,2026-03-04_14-07-41
1772633263777826300,1.827826416015625,0.196158020459488,0.9468652555376292,1.7310919714450834,0.6412503719329834,0.3528887927532196,0.3652694225311279,walking,2026-03-04_14-07-41
1772633263787775200,1.837775146484375,0.0809612501576542,0.8122825975686311,2.1831138546556232,0.5707069039344788,0.1941767036914825,0.3118507862091064,walking,2026-03-04_14-07-41
1772633263797724200,1.84772412109375,-0.0404538466697558,0.7104416409894824,2.417598317834735,0.4703028202056885,0.0482586473226547,0.2457322031259536,walking,2026-03-04_14-07-41
1772633263807674000,1.857674072265625,-0.0936930867630988,0.6731427146866917,2.5011136363893747,0.3459119498729706,-0.0534366331994533,0.1890180706977844,walking,2026-03-04_14-07-41
1772633263817623000,1.867623046875,-0.1417120714575052,0.701913466618955,2.373848607957363,0.2175185531377792,-0.09013232588768,0.1458924263715744,walking,2026-03-04_14-07-41
1772633263827572200,1.877572265625,-0.21295564519912,0.7670169301703572,2.170509224626422,0.0866467505693435,-0.0863130018115043,0.1029292717576026,walking,2026-03-04_14-07-41
1772633263837521400,1.887521484375,-0.3152698818458244,0.8117807855263351,1.9038082529753448,-0.035731628537178,-0.0771176367998123,0.062808483839035,walking,2026-03-04_14-07-41
1772633263847470300,1.89747021484375,-0.3910840514386072,0.8804343427747487,1.569499725997448,-0.1296155750751495,-0.0803020298480987,0.0245008412748575,walking,2026-03-04_14-07-41
1772633263857419300,1.907419189453125,-0.5571092743650078,0.972550316414237,1.2171493463724852,-0.197248950600624,-0.1069216579198837,-0.0238925237208604,walking,2026-03-04_14-07-41
1772633263867368200,1.9173681640625,-0.7771925794869661,1.084916758660972,0.9005436493456364,-0.2526406347751617,-0.1582055389881134,-0.087406538426876,walking,2026-03-04_14-07-41
1772633263877317000,1.927317138671875,-0.901097337705642,1.1634180484458805,0.6558604482352733,-0.2968613505363464,-0.1916380673646927,-0.1518100351095199,walking,2026-03-04_14-07-41
1772633263887266000,1.93726611328125,-0.8468466920800507,1.2704723557591435,0.344638197812438,-0.311016708612442,-0.171801283955574,-0.1925426125526428,walking,2026-03-04_14-07-41
1772633263897215500,1.947215576171875,-0.6683170480959117,1.455390823997557,0.0671802698254585,-0.290023535490036,-0.124747484922409,-0.1897542774677276,walking,2026-03-04_14-07-41
1772633263907164400,1.957164306640625,-0.3007242007514462,1.5341902199462056,-0.1225672260046005,-0.2291936576366424,-0.0505408532917499,-0.139615848660469,walking,2026-03-04_14-07-41
1772633263917113300,1.96711328125,0.0955862800985574,1.4842361024707555,-0.2478635847121477,-0.1388669610023498,0.0365831293165683,-0.0602959915995597,walking,2026-03-04_14-07-41
1772633263927062300,1.977062255859375,0.3539213918013498,1.430319803366065,-0.1078296755999326,-0.0551437437534332,0.1085343211889267,0.0334232151508331,walking,2026-03-04_14-07-41
1772633263937011200,1.98701123046875,0.4163529327297583,1.3282263333305715,0.2483446462273597,-0.0128090661019086,0.1351555585861206,0.1177639290690422,walking,2026-03-04_14-07-41
1772633263946960100,1.996960205078125,0.3452467581648379,1.0940490364044904,0.7392027483105659,-0.0117352418601512,0.1053316071629524,0.1753688156604766,walking,2026-03-04_14-07-41
1772633263956909000,2.006908935546875,0.264217338141799,0.7391124396786093,1.168726383987069,-0.0379516631364822,0.0402063950896263,0.1948612779378891,walking,2026-03-04_14-07-41
1772633263966858200,2.016858154296875,0.1862732438482344,0.4213242548689246,1.362373809865117,-0.0728466212749481,-0.0307607632130384,0.1952805519104004,walking,2026-03-04_14-07-41
1772633263976807400,2.026807373046875,0.0866490500031039,0.2113520093947649,1.389619544187188,-0.1063039153814315,-0.081574410200119,0.1713483184576034,walking,2026-03-04_14-07-41
1772633263986756400,2.03675634765625,-0.0132604635894298,0.0391810867875814,1.3516677069336176,-0.1403233110904693,-0.1088997274637222,0.1406475752592086,walking,2026-03-04_14-07-41
1772633263996706300,2.046706298828125,-0.0074202131286263,-0.1174903611317276,1.3115472934693098,-0.1760986149311065,-0.1101748496294021,0.1077333018183708,walking,2026-03-04_14-07-41
1772633264006655200,2.0566552734375,0.0127404217706993,-0.2469923548355698,1.2145862178862097,-0.214487999677658,-0.0762997269630432,0.0775086060166359,walking,2026-03-04_14-07-41
1772633264016604200,2.066604248046875,-0.0148484999658539,-0.3402057683229446,1.1936229248344898,-0.2698359489440918,-0.0317604914307594,0.0471514947712421,walking,2026-03-04_14-07-41
1772633264026553000,2.076552978515625,-0.0769423699051141,-0.427093778181076,1.2277058117002249,-0.3361170887947082,-0.0126788429915905,0.0093545177951455,walking,2026-03-04_14-07-41
1772633264036502300,2.086502197265625,-0.0803211986884474,-0.5332295093446969,1.1853636305332182,-0.3927758336067199,-0.0091331098228693,-0.0331455394625663,walking,2026-03-04_14-07-41
1772633264046451500,2.096451416015625,-0.0356664662627503,-0.5588716078624129,0.9737211137592792,-0.4210362434387207,-0.0105781415477395,-0.0686577260494232,walking,2026-03-04_14-07-41
1772633264056400400,2.106400390625,-0.0487755021501332,-0.52928866276443,0.6807195796817541,-0.4201227724552154,-0.0052528847008943,-0.1045283749699592,walking,2026-03-04_14-07-41
1772633264066349300,2.116349365234375,0.009880429229699,-0.4956973588079214,0.4283645287692547,-0.3954744338989258,-0.0009546699002385,-0.1228604912757873,walking,2026-03-04_14-07-41
1772633264076298200,2.12629833984375,0.1317395069649443,-0.5066673733726144,0.2503232528239488,-0.3556884229183197,-0.0194327477365732,-0.1335030198097229,walking,2026-03-04_14-07-41
1772633264086247200,2.1362470703125,0.192901283685863,-0.4972729375615716,0.1011889224112033,-0.2925675809383392,-0.0408653244376182,-0.1376797258853912,walking,2026-03-04_14-07-41
1772633264096196000,2.146196044921875,0.2511261667046696,-0.4654337379693984,-0.0297743760168552,-0.2179857492446899,-0.0522319599986076,-0.1249183937907219,walking,2026-03-04_14-07-41
1772633264106145000,2.15614501953125,0.3376726696487516,-0.4855905369438231,-0.0695820702701807,-0.1499795764684677,-0.0672124922275543,-0.0986634939908981,walking,2026-03-04_14-07-41
1772633264116094500,2.166094482421875,0.3681112451953813,-0.5398525807462632,-0.0431073203206062,-0.09141506254673,-0.0653027445077896,-0.0704070925712585,walking,2026-03-04_14-07-41
1772633264126043400,2.17604345703125,0.3806611128300428,-0.645155075956136,0.0101046299070119,-0.0494382418692112,-0.0479984022676944,-0.0532130040228366,walking,2026-03-04_14-07-41
1772633264135992300,2.185992431640625,0.3431838342856615,-0.8088815569534897,0.0677688833683729,-0.0199972633272409,-0.0394571125507354,-0.0461766682565212,walking,2026-03-04_14-07-41
1772633264145941200,2.195941162109375,0.2557907609822228,-0.9436869177624584,0.1179617780357599,-0.0010394142009317,-0.0413238257169723,-0.0501095615327358,walking,2026-03-04_14-07-41
1772633264155890200,2.20589013671875,0.2236308780683204,-1.0766636018395424,0.1647071625977754,0.0094830011948943,-0.0489404648542404,-0.0671902745962143,walking,2026-03-04_14-07-41
1772633264165839000,2.215839111328125,0.2646988745810464,-1.211303689084202,0.2309749937534332,0.0073924246244132,-0.0669356510043144,-0.0883500277996063,walking,2026-03-04_14-07-41
1772633264175788300,2.225788330078125,0.3133878309588879,-1.3015399864569306,0.3103507282853126,-0.0163507219403982,-0.1098599508404731,-0.109348252415657,walking,2026-03-04_14-07-41
1772633264185738200,2.23573828125,0.3858339123580604,-1.3422173031516371,0.3297837430298328,-0.0553299486637115,-0.1711498349905014,-0.1260191798210144,walking,2026-03-04_14-07-41
1772633264195687200,2.245687255859375,0.4784606485312804,-1.3686029135130344,0.1177256311923265,-0.0776102170348167,-0.1975814402103424,-0.1294977962970733,walking,2026-03-04_14-07-41
1772633264205636400,2.25563623046875,0.4816186741707846,-1.2868246478840708,-0.2264759287685155,-0.0778341442346572,-0.2052954286336898,-0.1326537430286407,walking,2026-03-04_14-07-41
1772633264215585300,2.265585205078125,0.425450687149167,-1.1941918107636271,-0.5692138459175825,-0.0692377313971519,-0.1912387311458587,-0.1340822726488113,walking,2026-03-04_14-07-41
1772633264225534200,2.2755341796875,0.4597827995356172,-1.1277721500471234,-0.8085901727914809,-0.0528189316391944,-0.1861230432987213,-0.1282286047935485,walking,2026-03-04_14-07-41
1772633264235483100,2.285483154296875,0.4874056966070085,-1.065286175517738,-1.0593407111167907,-0.0250059459358453,-0.1403001546859741,-0.1102735623717308,walking,2026-03-04_14-07-41
1772633264245432000,2.29543212890625,0.4431382099332288,-0.9771687699951233,-1.2602128275513649,0.0162002854049205,-0.0568533092737197,-0.0866330713033676,walking,2026-03-04_14-07-41
1772633264255381200,2.30538134765625,0.4632943147879093,-0.981433295571804,-1.405371240070462,0.0774029195308685,0.0467095673084259,-0.0609676614403724,walking,2026-03-04_14-07-41
1772633264265330400,2.315330322265625,0.598412687068805,-1.094434674721211,-1.4154583343207836,0.148910716176033,0.1203507483005523,-0.032275952398777,walking,2026-03-04_14-07-41
1772633264275279400,2.325279296875,0.7622704662956297,-1.2171737501613795,-1.2605530192911625,0.2186474502086639,0.1291000247001648,-0.0099093932658433,walking,2026-03-04_14-07-41
1772633264285228300,2.335228271484375,0.833127086546272,-1.280249945668876,-0.9766524910360574,0.2587141692638397,0.0841099172830581,0.0109562063589692,walking,2026-03-04_14-07-41
1772633264295177200,2.34517724609375,0.7648766302060336,-1.2614832858785987,-0.6543441984534263,0.2578023076057434,-0.0049778814427554,0.0278976410627365,walking,2026-03-04_14-07-41
1772633264305126100,2.355126220703125,0.5659520311100408,-1.202773907278478,-0.4472276346713304,0.2304862290620803,-0.1144594922661781,0.0320938266813755,walking,2026-03-04_14-07-41
1772633264315075000,2.365074951171875,0.3084181162549183,-1.138977434672415,-0.5251467406541109,0.2043510377407074,-0.202928364276886,0.0148330815136432,walking,2026-03-04_14-07-41
1772633264325024300,2.375024169921875,0.0870645537351258,-1.073546054340899,-0.7685229508191347,0.186034470796585,-0.2521048784255981,-0.0062672076746821,walking,2026-03-04_14-07-41
1772633264334973400,2.384973388671875,-0.0371758113797754,-0.9073582977965472,-1.0309855542480946,0.1726259887218475,-0.271582156419754,-0.0156465955078601,walking,2026-03-04_14-07-41
1772633264344922400,2.39492236328125,-0.1063381949331611,-0.6891138985395431,-1.2064748076230287,0.153654545545578,-0.2763880491256714,-0.0015858276747167,walking,2026-03-04_14-07-41
1772633264354871300,2.404871337890625,-0.1592034871475771,-0.532065726262331,-1.2942559669286011,0.1161745488643646,-0.2969580590724945,0.0212491787970066,walking,2026-03-04_14-07-41
1772633264364820200,2.4148203125,-0.3493902511777356,-0.3901818053692579,-1.3430576994985342,0.0611863732337951,-0.3006885349750519,0.0187867805361747,walking,2026-03-04_14-07-41
1772633264374769200,2.42476904296875,-0.6963459686849266,-0.2400973346248268,-1.4444979663223028,0.0008418071083724,-0.2527511119842529,-0.0195757877081632,walking,2026-03-04_14-07-41
1772633264384719400,2.43471923828125,-0.9586910832140594,-0.1016454340070486,-1.6071347523868085,-0.0438024550676345,-0.1511771976947784,-0.0795313045382499,walking,2026-03-04_14-07-41
1772633264394668300,2.444668212890625,-1.0556181834623215,0.1435381178408861,-1.724677428227663,-0.0573126673698425,-0.0388514474034309,-0.1421014815568924,walking,2026-03-04_14-07-41
1772633264404617200,2.4546171875,-0.9756183256827294,0.5180766561374068,-1.769577477183938,-0.0220126081258058,0.054881002753973,-0.1855518072843551,walking,2026-03-04_14-07-41
1772633264414566400,2.46456640625,-0.772698921329528,0.8796160121291875,-1.7527835787713526,0.060234859585762,0.1298388689756393,-0.2098861783742904,walking,2026-03-04_14-07-41
1772633264424515300,2.474515380859375,-0.5496191743379458,1.1726625543922184,-1.582957173463702,0.1727354973554611,0.181950956583023,-0.2142287939786911,walking,2026-03-04_14-07-41
1772633264434464300,2.48446435546875,-0.3345938101926818,1.456347394070029,-1.3000877418220045,0.3000607192516327,0.1960646510124206,-0.2067852616310119,walking,2026-03-04_14-07-41
1772633264444413200,2.4944130859375,-0.1465892490398138,1.6939827224954962,-0.9407377125680446,0.4253451824188232,0.1859374940395355,-0.1772471368312835,walking,2026-03-04_14-07-41
1772633264454362000,2.504362060546875,0.011589352039434,1.8763105897188184,-0.5497562812536955,0.5315728187561035,0.1639080792665481,-0.1284303218126297,walking,2026-03-04_14-07-41
1772633264464311300,2.514311279296875,0.0764021986138075,1.9638143933877348,-0.1335731886655092,0.605767548084259,0.1076907888054847,-0.0733550265431404,walking,2026-03-04_14-07-41
1772633264474260200,2.52426025390625,0.046644006546773,1.883417206853628,0.2580465405523777,0.6271282434463501,0.0514357760548591,-0.0357511900365352,walking,2026-03-04_14-07-41
1772633264484209400,2.53420947265625,-0.1669439452065154,1.7118077175214883,0.608497224035859,0.5939653515815735,0.0062407059594988,-0.0367876589298248,walking,2026-03-04_14-07-41
1772633264494158300,2.544158447265625,-0.5276061165049671,1.4950398205578326,0.8134662543952464,0.5052599906921387,-0.0112818283960223,-0.0754522308707237,walking,2026-03-04_14-07-41
1772633264504107300,2.554107177734375,-0.9071111181024462,1.262122168304026,0.962984615689516,0.3821062743663788,-0.0156340133398771,-0.1504923999309539,walking,2026-03-04_14-07-41
1772633264514056200,2.56405615234375,-1.1630261995840816,1.0800386312305927,0.9656751699477434,0.2534566819667816,0.0168096795678138,-0.247548907995224,walking,2026-03-04_14-07-41
1772633264524005000,2.574005126953125,-1.2764504072554408,1.0324538732349873,0.9065583795905112,0.1259294599294662,0.0724175795912742,-0.3456031382083893,walking,2026-03-04_14-07-41
1772633264533954000,2.5839541015625,-1.2907996889948845,1.101800965705514,0.8576812436968088,0.0025004688650369,0.1456582397222519,-0.4222923219203949,walking,2026-03-04_14-07-41
1772633264543903200,2.5939033203125,-1.135369254112616,1.202904255659878,0.8128338017106056,-0.1117083132266998,0.2203642874956131,-0.4665870368480682,walking,2026-03-04_14-07-41
1772633264553852400,2.603852294921875,-0.8061372266814112,1.2108175130024552,0.8030471517115831,-0.2086068987846374,0.2582240700721741,-0.4692438244819641,walking,2026-03-04_14-07-41
1772633264563801300,2.61380126953125,-0.430758072842285,1.2193421802416442,0.827723327806592,-0.2774617969989776,0.247667133808136,-0.4289125502109527,walking,2026-03-04_14-07-41
1772633264573751300,2.623751220703125,-0.1719866520814597,1.262370297846198,0.7965314862072468,-0.3193101584911346,0.1960614472627639,-0.3679400086402893,walking,2026-03-04_14-07-41
1772633264583700200,2.6337001953125,-0.0439926883203908,1.264171794310212,0.698901717582345,-0.3243393898010254,0.1329937577247619,-0.3029816448688507,walking,2026-03-04_14-07-41
1772633264593649200,2.643649169921875,-0.0028620383676141,1.195838262796402,0.5263134463459253,-0.2913540005683899,0.081918329000473,-0.2420772612094879,walking,2026-03-04_14-07-41
1772633264603598300,2.653598388671875,-0.001120491929911,1.0813961833193897,0.3232458656936883,-0.225376158952713,0.0513928011059761,-0.1926293224096298,walking,2026-03-04_14-07-41
1772633264613547300,2.66354736328125,0.0298281154980883,0.9206450648710132,0.1703115584760904,-0.1412695348262787,0.0466427877545356,-0.1403602659702301,walking,2026-03-04_14-07-41
1772633264623496200,2.67349609375,0.1356434556009247,0.7533511006504297,0.1891957071661949,-0.0661054849624633,0.0604015998542308,-0.0858009904623031,walking,2026-03-04_14-07-41
1772633264633445400,2.6834453125,0.1877566873390227,0.5658654122725129,0.3781768947988748,-0.0153317926451563,0.076746754348278,-0.0316485427320003,walking,2026-03-04_14-07-41
1772633264643394300,2.693394287109375,0.2120108020970597,0.3660699851587414,0.6878653597831725,0.009158887900412,0.0863906666636467,0.0136972544714808,walking,2026-03-04_14-07-41
1772633264653343200,2.70334326171875,0.2170596829844638,0.1264531275272369,1.047864792856574,0.0117453504353761,0.0897233486175537,0.0502249039709568,walking,2026-03-04_14-07-41
1772633264663292200,2.713292236328125,0.214659051583521,-0.0952531026214361,1.3283797703266145,-1.71628780663e-05,0.1001271456480026,0.085937425494194,walking,2026-03-04_14-07-41
1772633264673241000,2.723240966796875,0.1141131763162091,-0.2781210680708289,1.4980126988887783,-0.0331985503435134,0.0846834704279899,0.0991528332233429,walking,2026-03-04_14-07-41
1772633264683190300,2.733190185546875,-0.1002453944833949,-0.4612836325526237,1.653721146994829,-0.07745161652565,0.0635127052664756,0.077444389462471,walking,2026-03-04_14-07-41
1772633264693139200,2.74313916015625,-0.3192904425987973,-0.632490678563714,1.7359183686882256,-0.1489934474229812,0.0071793906390666,0.0174883790314197,walking,2026-03-04_14-07-41
1772633264703088400,2.75308837890625,-0.448696282451786,-0.7703866988644004,1.6927040808618068,-0.2100690603256225,-0.063134454190731,-0.0561187304556369,walking,2026-03-04_14-07-41
1772633264713037300,2.763037353515625,-0.4032867130707949,-0.7855933280855417,1.4040116421550513,-0.2384743392467498,-0.0880640372633934,-0.101228155195713,walking,2026-03-04_14-07-41
1772633264722986200,2.772986328125,-0.2494753307577222,-0.6189201261118054,1.093898814278841,-0.2657543122768402,-0.092073917388916,-0.1172983944416046,walking,2026-03-04_14-07-41
1772633264732935400,2.782935302734375,-0.1293928707735613,-0.5435565498307346,0.845129220637679,-0.2833774983882904,-0.0967365801334381,-0.1202007010579109,walking,2026-03-04_14-07-41
1772633264742884400,2.79288427734375,-0.0150741619478911,-0.4498118059456348,0.5610007288455963,-0.2811438143253326,-0.0722976475954055,-0.0928414314985275,walking,2026-03-04_14-07-41
1772633264752833300,2.802833251953125,0.0039883389838039,-0.3046133536770939,0.2848573905885219,-0.2631533443927765,-0.0254374593496322,-0.0525720342993736,walking,2026-03-04_14-07-41
1772633264762782200,2.8127822265625,0.0014881196659058,-0.2505897948056459,0.1839542993813753,-0.2341693788766861,0.0142056876793503,-0.0016238132957369,walking,2026-03-04_14-07-41
1772633264772732200,2.822732177734375,0.0202392896261066,-0.2382747953727841,0.1696785212695598,-0.1996838301420211,0.0367163233458995,0.0426448471844196,walking,2026-03-04_14-07-41
1772633264782681300,2.832681396484375,-0.0337610345002263,-0.2794847576394677,0.1957522892028093,-0.1586416661739349,0.048090636730194,0.0807983577251434,walking,2026-03-04_14-07-41
1772633264792630500,2.842630615234375,-0.1207760682715103,-0.3365881623476743,0.3002250555902719,-0.1319599896669387,0.029001098126173,0.0995195806026458,walking,2026-03-04_14-07-41
1772633264802579500,2.852579345703125,-0.1961960509149357,-0.427608449704945,0.4635071538209915,-0.1243147253990173,-0.0136653734371066,0.0952149927616119,walking,2026-03-04_14-07-41
1772633264812528400,2.8625283203125,-0.2102781330855563,-0.4925748428732156,0.5375123012304306,-0.120861142873764,-0.0331916697323322,0.0926186814904213,walking,2026-03-04_14-07-41
1772633264822477300,2.872477294921875,-0.1366141272639855,-0.4672317273020744,0.4816980595499276,-0.1171692907810211,-0.0289500895887613,0.1017405614256858,walking,2026-03-04_14-07-41
1772633264832426200,2.88242626953125,-0.0528776402393356,-0.3618783786877989,0.430497449144721,-0.1074064075946807,-0.0231736935675144,0.1215265095233917,walking,2026-03-04_14-07-41
1772633264842375200,2.892375244140625,0.1004815778594464,-0.3269818373516202,0.334660409155488,-0.0838887467980384,-0.0124355899170041,0.1531170457601547,walking,2026-03-04_14-07-41
1772633264852324400,2.902324462890625,0.276042727426812,-0.3118573334559798,0.2242278575807809,-0.0474516451358795,0.0091535914689302,0.2028052508831024,walking,2026-03-04_14-07-41
1772633264862273500,2.9122734375,0.3946577452069148,-0.3369777461871505,0.1877367405295371,-0.0190485939383506,0.0148633019998669,0.2569872140884399,walking,2026-03-04_14-07-41
1772633264872222500,2.922222412109375,0.4237665699871257,-0.4385314102575182,0.203725752300024,0.0050495499745011,0.0053915036842226,0.3035057187080383,walking,2026-03-04_14-07-41
1772633264882171400,2.93217138671875,0.4112969645144417,-0.5314809121116996,0.1748626459091901,0.028877068310976,-0.0069678802974522,0.3433441817760467,walking,2026-03-04_14-07-41
1772633264892120300,2.942120361328125,0.2930889201000333,-0.5885483687236904,0.1369195764839649,0.0329964458942413,-0.0431258827447891,0.3602912127971649,walking,2026-03-04_14-07-41
1772633264902069200,2.9520693359375,0.0818566280947998,-0.6651873717680573,0.0625303981930017,0.0250265952199697,-0.0727040767669677,0.3496213257312774,walking,2026-03-04_14-07-41
1772633264912018200,2.96201806640625,-0.1509989187082275,-0.7560173972502351,-0.1069061310142278,0.0005449540913105,-0.0612783096730709,0.3180551528930664,walking,2026-03-04_14-07-41
1772633264921967400,2.97196728515625,-0.4030885601501912,-0.809507579897344,-0.2982932107448577,-0.0330495834350585,-0.0309420824050903,0.2679930031299591,walking,2026-03-04_14-07-41
1772633264931916300,2.981916259765625,-0.4598503483464941,-0.8180360465288162,-0.4825754269063472,-0.0584446936845779,-0.0126048875972628,0.2308357954025268,walking,2026-03-04_14-07-41
1772633264941865500,2.991865478515625,-0.3584183013617992,-0.7434186124399303,-0.7188333294987678,-0.0649909973144531,0.0283087883144617,0.2245210260152816,walking,2026-03-04_14-07-41
1772633264951814400,3.001814453125,-0.1344854446722194,-0.633219869621098,-0.9317921895682812,-0.0529947914183139,0.0579569637775421,0.263927549123764,walking,2026-03-04_14-07-41
1772633264961764400,3.011764404296875,0.1167349396545439,-0.5771010920360684,-1.0903811615467072,-0.0156381502747535,0.0797142013907432,0.3371664881706238,walking,2026-03-04_14-07-41
1772633264971713300,3.02171337890625,0.2077441576285287,-0.6152624803870916,-1.2424451156705618,0.0390453338623046,0.0977238267660141,0.4131629765033722,walking,2026-03-04_14-07-41
1772633264981662200,3.031662109375,0.1074001981414854,-0.7747676904276013,-1.2773393189191815,0.0874868184328079,0.0857513397932052,0.4617797136306762,walking,2026-03-04_14-07-41
1772633264991611100,3.041611083984375,-0.1113160564109683,-0.9848819747209548,-1.0966723706454038,0.1005301848053932,0.0257862787693738,0.4713268876075744,walking,2026-03-04_14-07-41
1772633265001560600,3.051560546875,-0.3417233332790434,-1.2101923668414354,-0.8927245000272989,0.0778323113918304,-0.0519094429910182,0.4494530260562897,walking,2026-03-04_14-07-41
1772633265011509500,3.061509521484375,-0.5743405412815511,-1.379082075820863,-0.8025526461929082,0.0159529652446508,-0.1081657856702804,0.4016658067703247,walking,2026-03-04_14-07-41
1772633265021458400,3.07145849609375,-0.8015028448790311,-1.4652584302783012,-0.8310352288335561,-0.0766148343682289,-0.1396663784980774,0.3288525938987732,walking,2026-03-04_14-07-41
1772633265031407400,3.081407470703125,-0.9184851103581488,-1.4341530979186297,-1.015137996774912,-0.1561522781848907,-0.1332742571830749,0.2371516823768615,walking,2026-03-04_14-07-41
1772633265041356300,3.091356201171875,-0.8984933657523244,-1.306640232205391,-1.3680349043667317,-0.2153700590133667,-0.1204151883721351,0.1344689726829528,walking,2026-03-04_14-07-41
1772633265051305200,3.10130517578125,-0.9204264536842705,-1.0304060007944702,-1.7426140669345855,-0.2349171340465545,-0.1220021620392799,0.0393898673355579,walking,2026-03-04_14-07-41
1772633265061254100,3.111254150390625,-0.8189203550826758,-0.5205538599058985,-2.0070885947078465,-0.2290586978197097,-0.1438703685998916,-0.043642308562994,walking,2026-03-04_14-07-41
1772633265071203300,3.121203369140625,-0.6842734727710486,-0.0091832772783935,-2.137338776430488,-0.2092034965753555,-0.1895723491907119,-0.0970983430743217,walking,2026-03-04_14-07-41
1772633265081152500,3.131152587890625,-0.4958013306390494,0.4961372115299105,-2.270413952445984,-0.1790520101785659,-0.2309522777795791,-0.1186269745230674,walking,2026-03-04_14-07-41
1772633265091101400,3.141101318359375,-0.3310511691497638,0.9581941665425896,-2.3671207610070706,-0.1361207962036132,-0.2328646928071975,-0.1164192110300064,walking,2026-03-04_14-07-41
1772633265101050400,3.15105029296875,-0.2055734625259414,1.3804694385260343,-2.477936174419522,-0.0721780285239219,-0.1825383454561233,-0.0817910730838775,walking,2026-03-04_14-07-41
1772633265110999300,3.160999267578125,-0.0884978744738735,1.787060380773991,-2.526218851551413,0.0155475595965981,-0.0840296149253845,-0.0087339039891958,walking,2026-03-04_14-07-41
1772633265120948200,3.1709482421875,-0.0053149479450657,2.0102264543421566,-2.4818314282923937,0.1333053708076477,0.0560379400849342,0.0660983026027679,walking,2026-03-04_14-07-41
1772633265130897400,3.1808974609375,0.0575196208262816,2.084166427560896,-2.28640413326025,0.2780934572219848,0.2200862765312194,0.176206961274147,walking,2026-03-04_14-07-41
1772633265140846300,3.190846435546875,0.2399206811499781,2.039945446909964,-1.786888677468896,0.4171411097049713,0.3873200714588165,0.2864291965961456,walking,2026-03-04_14-07-41
1772633265150795300,3.200795166015625,0.360062378774397,1.8153531399309637,-1.01967330211699,0.5379258394241333,0.4968169927597046,0.372357428073883,walking,2026-03-04_14-07-41
1772633265160745500,3.210745361328125,0.3988669969324022,1.5248150733575223,-0.2315080777168273,0.630115270614624,0.5564004778862,0.4387707114219665,walking,2026-03-04_14-07-41
1772633265170694400,3.2206943359375,0.3506757609436288,1.2831316385850309,0.534706596159935,0.691246509552002,0.5514035820960999,0.4803975224494934,walking,2026-03-04_14-07-41
1772633265180643300,3.230643310546875,0.2004113670550286,1.1159779596179724,1.2637106065392494,0.7008355259895325,0.4729021191596985,0.4651189744472503,walking,2026-03-04_14-07-41
1772633265190592300,3.24059228515625,0.0667770958520472,0.8784609968751669,1.8921020330905916,0.6590166687965393,0.3371874392032623,0.404693454504013,walking,2026-03-04_14-07-41
1772633265200541200,3.250541259765625,-0.0394896412800997,0.6059545538157224,2.2892454941660163,0.5710659623146057,0.1910805106163025,0.313809871673584,walking,2026-03-04_14-07-41
1772633265210490000,3.260489990234375,-0.0532282072426751,0.4925795190483331,2.5110341419011357,0.460759162902832,0.0457869619131088,0.2186836153268814,walking,2026-03-04_14-07-41
1772633265220439600,3.270439453125,0.037159042908065,0.4270674746960401,2.513433019736409,0.3374057412147522,-0.0714489072561264,0.1361555159091949,walking,2026-03-04_14-07-41
1772633265230388500,3.280388427734375,0.203224597844854,0.4209983839154243,2.3511685741156336,0.2121311873197555,-0.1312893331050872,0.0768754184246063,walking,2026-03-04_14-07-41
1772633265240337400,3.29033740234375,0.3405598424576223,0.4427884831801056,2.161066858020425,0.0732491016387939,-0.1443189531564712,0.0412305630743503,walking,2026-03-04_14-07-41
1772633265250286300,3.300286376953125,0.3854203631211072,0.4138736466020345,1.9550269835591316,-0.0812677666544914,-0.144219622015953,0.0064230505377054,walking,2026-03-04_14-07-41
1772633265260235300,3.3102353515625,0.3065149129820987,0.394542046405375,1.6983201671779156,-0.236139491200447,-0.1591983437538147,-0.0432388521730899,walking,2026-03-04_14-07-41
1772633265270184200,3.32018408203125,0.1031800962284207,0.5091916311532259,1.2793085731655358,-0.3716739118099212,-0.167896494269371,-0.0984078347682952,walking,2026-03-04_14-07-41
1772633265280133000,3.330133056640625,-0.1364508629936724,0.6917559374809265,0.7853373074978589,-0.4769190847873688,-0.15973562002182,-0.1658411920070648,walking,2026-03-04_14-07-41
1772633265290082600,3.34008251953125,-0.335402094368264,0.8642945243567228,0.3322638694077729,-0.5381068587303162,-0.1294845044612884,-0.2303035408258438,walking,2026-03-04_14-07-41
1772633265300031500,3.350031494140625,-0.370504204746522,1.0469459244459869,-0.1543827524602413,-0.5436850786209106,-0.0850465446710586,-0.2773718237876892,walking,2026-03-04_14-07-41
1772633265309980400,3.35998046875,-0.2618258398953825,1.3164920563951137,-0.5776666169643402,-0.4846571683883667,-0.0140173733234405,-0.2840483784675598,walking,2026-03-04_14-07-41
1772633265319929300,3.369929443359375,-0.013428623230569,1.5669561789944768,-0.9333388344883918,-0.3598652482032776,0.0976400002837181,-0.2316399663686752,walking,2026-03-04_14-07-41
1772633265329878300,3.379878173828125,0.3651074237369001,1.8013322133630514,-1.0479770210593935,-0.1946704536676406,0.1923731714487075,-0.1154462397098541,walking,2026-03-04_14-07-41
1772633265339827200,3.3898271484375,0.6818148275725543,1.9211931030184028,-0.8605711199194193,-0.0296026561409235,0.2427264750003814,0.0347331278026104,walking,2026-03-04_14-07-41
1772633265349776400,3.3997763671875,0.8494761638008057,1.89831491625607,-0.3571475507736206,0.1010967642068862,0.2286878824234008,0.1794285327196121,walking,2026-03-04_14-07-41
1772633265359726300,3.409726318359375,0.8255300555460154,1.7027014510020613,0.3269108179420232,0.169226586818695,0.1650098413228988,0.2976309657096863,walking,2026-03-04_14-07-41
1772633265369675500,3.419675537109375,0.6506965626660735,1.3323147716879844,0.9533020105868576,0.1694052815437317,0.0882721915841102,0.37577024102211,walking,2026-03-04_14-07-41
1772633265379624400,3.42962451171875,0.2973025922723114,0.8924828002259134,1.371202428486943,0.1134511232376098,0.039762258529663,0.3890613615512848,walking,2026-03-04_14-07-41
1772633265389573400,3.439573486328125,-0.0878122850961983,0.4584001860707998,1.615734822949767,0.0226242821663618,0.0148566449061036,0.337786465883255,walking,2026-03-04_14-07-41
1772633265399522300,3.449522216796875,-0.2365663474870845,0.0942448023617267,1.7125538597136736,-0.0763626992702484,-0.0262399408966302,0.2650005221366882,walking,2026-03-04_14-07-41
1772633265409471200,3.45947119140625,-0.193840500764735,-0.1350128660798072,1.654094071960449,-0.1574559509754181,-0.0579038634896278,0.1986665278673172,walking,2026-03-04_14-07-41
1772633265419420200,3.469420166015625,-0.059963104988262,-0.1788748041599988,1.4561527482807637,-0.2117844820022583,-0.0441695936024189,0.1652214676141739,walking,2026-03-04_14-07-41
1772633265429369300,3.479369384765625,0.0406284725842997,-0.1583592548757791,1.2818366303384303,-0.257122129201889,-0.0167965590953826,0.1515994071960449,walking,2026-03-04_14-07-41
1772633265439318500,3.489318603515625,0.0853826833290979,-0.1679065431609749,1.1862585335463285,-0.3044440448284149,-0.0151430871337652,0.1348400563001632,walking,2026-03-04_14-07-41
1772633265449267500,3.499267333984375,0.0060538932114839,-0.2464648238301277,1.1184750371307135,-0.348147839307785,-0.0329689532518386,0.1079128310084343,walking,2026-03-04_14-07-41
1772633265459216400,3.50921630859375,-0.1375975853433832,-0.265545079614222,0.954673883461952,-0.3785873055458069,-0.0770158171653747,0.070295937359333,walking,2026-03-04_14-07-41
1772633265469165300,3.519165283203125,-0.2194109222857281,-0.2222945514306425,0.6706207949936389,-0.3724311292171478,-0.1200431808829307,0.0372980460524559,walking,2026-03-04_14-07-41
1772633265479114200,3.5291142578125,-0.2286230603324249,-0.154471015265584,0.2878594950139522,-0.3283107280731201,-0.1251920312643051,0.0184318106621503,walking,2026-03-04_14-07-41
1772633265489063200,3.539063232421875,-0.2026498849631287,-0.0898825154989957,-0.005020458510518,-0.2629764676094055,-0.102843053638935,0.0107057131826877,walking,2026-03-04_14-07-41
1772633265499012400,3.549012451171875,-0.1851102462171577,-0.0579060993932187,-0.1499316182702779,-0.1916475296020507,-0.0733784064650535,0.0182790383696556,walking,2026-03-04_14-07-41
1772633265508961500,3.55896142578125,-0.1265972304393537,-0.0927967955105006,-0.1716156268119812,-0.1217374205589294,-0.0271043870598077,0.0307490248233079,walking,2026-03-04_14-07-41
1772633265518910500,3.568910400390625,-0.1107730538417585,-0.2140232744306325,-0.0825087718605995,-0.0586518421769142,0.0150252003222703,0.0419029183685779,walking,2026-03-04_14-07-41
1772633265528859400,3.578859375,-0.0838966825550422,-0.4347771722905337,0.1142179153323173,-0.0224120821803808,0.0211382210254669,0.0428137220442295,walking,2026-03-04_14-07-41
1772633265538808300,3.588808349609375,-0.1016384380106814,-0.6941705974072218,0.4059720796972513,-0.0033383914269506,-0.0193427912890911,0.0220402032136917,walking,2026-03-04_14-07-41
1772633265548757200,3.59875732421875,-0.1248664428576827,-0.9588836101114748,0.5732242506027221,0.0070002665743231,-0.0827768966555595,-0.0159623064100742,walking,2026-03-04_14-07-41
1772633265558707200,3.608707275390625,-0.1509985533820465,-1.1571382375240324,0.5671756180882453,0.0093220099806785,-0.143574982881546,-0.0647420957684516,walking,2026-03-04_14-07-41
1772633265568656400,3.618656494140625,-0.1896852807814255,-1.291945059637725,0.5203671051621437,-0.0031738081015646,-0.1865277886390686,-0.1190918833017349,walking,2026-03-04_14-07-41
1772633265578605300,3.628605224609375,-0.1358349413187242,-1.411223034838587,0.4320090227514505,-0.0353327207267284,-0.2161741256713867,-0.1820308566093444,walking,2026-03-04_14-07-41
1772633265588554500,3.638554443359375,-0.0182900552544742,-1.5336436919793486,0.1506120017498731,-0.0555868633091449,-0.1810853779315948,-0.2054179459810257,walking,2026-03-04_14-07-41
1772633265598503400,3.64850341796875,0.1298868100366555,-1.4365714111067354,-0.2228676751434803,-0.0789828971028328,-0.1042769774794578,-0.2480310201644897,walking,2026-03-04_14-07-41
1772633265608452400,3.658452392578125,0.1353852247898467,-1.515218831364065,-0.405073669552803,-0.1013031154870987,-0.0632509738206863,-0.2957735061645508,walking,2026-03-04_14-07-41
1772633265618401300,3.6684013671875,0.1981530667342245,-1.4012503607481717,-0.5483773941159248,-0.1194526329636573,-0.0648897960782051,-0.3261931836605072,walking,2026-03-04_14-07-41
1772633265628350200,3.67835009765625,0.3087269995409995,-1.1805649980798365,-0.8210673770487308,-0.1169926673173904,-0.063472993671894,-0.3296640813350677,walking,2026-03-04_14-07-41
1772633265638299100,3.688299072265625,0.4263110668381676,-0.9676749654628336,-1.1609750392079352,-0.0788578316569328,-0.0376296713948249,-0.30897256731987,walking,2026-03-04_14-07-41
1772633265648248300,3.698248291015625,0.6026447351479902,-0.8426686757430434,-1.477452725940943,-0.0048650945536792,-0.0038810314144939,-0.2654378712177276,walking,2026-03-04_14-07-41
1772633265658197500,3.708197509765625,0.7856852441526949,-0.8166941304005682,-1.6054852316141128,0.0875986665487289,0.024859232828021,-0.2176403254270553,walking,2026-03-04_14-07-41
1772633265668146400,3.718146484375,0.9389337318859994,-0.7474595583938062,-1.5505501108556985,0.1857169866561889,0.0376637130975723,-0.1631621718406677,walking,2026-03-04_14-07-41
1772633265678095400,3.728095458984375,1.040050758104771,-0.6730541596204042,-1.2836848885536194,0.2535249590873718,0.0123340133577585,-0.1014618203043937,walking,2026-03-04_14-07-41
1772633265688044300,3.738044189453125,1.007538773817569,-0.6482564029723406,-0.8467109368711709,0.2694131135940552,-0.0687544420361518,-0.0638654455542564,walking,2026-03-04_14-07-41
1772633265697993200,3.7479931640625,0.8760570775385945,-0.631516134443134,-0.4799269582241773,0.2315043359994888,-0.1416947096586227,-0.0428110286593437,walking,2026-03-04_14-07-41
1772633265707942100,3.757942138671875,0.7340968765389174,-0.578391570238024,-0.3334288215339183,0.1668782085180282,-0.1751839518547058,-0.0100837089121341,walking,2026-03-04_14-07-41
1772633265717891300,3.767891357421875,0.6095612730707973,-0.4780111877307295,-0.3597293839603662,0.096552699804306,-0.1872552782297134,0.0404331386089324,walking,2026-03-04_14-07-41
1772633265727840500,3.777840576171875,0.3906191373405978,-0.3400768812462687,-0.4886690676063299,0.040765605866909,-0.1921736001968383,0.1056446358561515,walking,2026-03-04_14-07-41
1772633265737789400,3.78778955078125,-0.0243781612628139,-0.1458811738356948,-0.5964373684078454,0.0031299372203648,-0.2065298706293106,0.1517051458358764,walking,2026-03-04_14-07-41
1772633265747738600,3.797738525390625,-0.6392411757372319,-0.0185541860833764,-0.6350491308748721,-0.0221812780946493,-0.2608453035354614,0.1396146714687347,walking,2026-03-04_14-07-41
1772633265757688600,3.8076884765625,-1.2362237569376826,0.0757233495041728,-0.7142810730218887,-0.0276845693588256,-0.3450610041618347,0.0814455673098564,walking,2026-03-04_14-07-41
1772633265767637500,3.817637451171875,-1.644429879297316,0.284346226195991,-0.8238333346307277,-0.0143426656723022,-0.4619761705398559,0.0152614852413535,walking,2026-03-04_14-07-41
1772633265777586400,3.82758642578125,-1.81996136437878,0.5405319413125514,-0.8827280066698789,-1.2494623661e-05,-0.6269368529319763,-0.0562381669878959,walking,2026-03-04_14-07-41
1772633265787535400,3.837535400390625,-1.932838240365684,0.7157768645375967,-0.9803513455539942,0.0055441907607018,-0.7822468280792236,-0.1463656723499298,walking,2026-03-04_14-07-41
1772633265797484300,3.847484375,-1.9675885050989683,0.9151482210204004,-1.222188509583473,0.0151693429797887,-0.851155161857605,-0.2318602055311203,walking,2026-03-04_14-07-41
1772633265807433700,3.857433837890625,-1.7998302843675016,1.2035884385317563,-1.5494418573528528,0.0510527789592742,-0.7886114120483398,-0.2868137657642364,walking,2026-03-04_14-07-41
1772633265817382700,3.867382568359375,-1.492329100294411,1.4947551583975554,-1.8178356043964623,0.0989302322268486,-0.5739041566848755,-0.3042767643928528,walking,2026-03-04_14-07-41
1772633265827331600,3.87733154296875,-1.0534358709871767,1.5997238916084169,-1.890672877070308,0.1569546461105346,-0.2839999198913574,-0.2640326619148254,walking,2026-03-04_14-07-41
1772633265837280500,3.887280517578125,-0.5563453773204237,1.6632482692748307,-1.7765613447219133,0.221804141998291,-0.0158053003251552,-0.1837848424911499,walking,2026-03-04_14-07-41
1772633265847229400,3.8972294921875,-0.2925343732235022,1.7350699351653456,-1.2550789717942477,0.2689602077007293,0.1132618710398674,-0.1157945990562439,walking,2026-03-04_14-07-41
1772633265857178400,3.907178466796875,-0.1885962982346303,1.6363193458169698,-0.6000380232483148,0.2908979058265686,0.1042213886976242,-0.0606420971453189,walking,2026-03-04_14-07-41
1772633265867127300,3.917127197265625,-0.1859539670323021,1.383629656122625,-0.1308399643093347,0.3149068355560303,0.0328800976276397,-0.0435083843767643,walking,2026-03-04_14-07-41
1772633265877076500,3.927076416015625,-0.301199983303342,1.1502858874112367,0.0830646521776914,0.3512685596942901,-0.0514920391142368,-0.065917819738388,walking,2026-03-04_14-07-41
1772633265887025700,3.937025634765625,-0.5016773830655962,1.0548071593403816,0.1889431937098503,0.3891104757785797,-0.1390538513660431,-0.1309985518455505,walking,2026-03-04_14-07-41
1772633265896974600,3.946974609375,-0.6538178364917635,0.9831555893197657,0.2977764933943748,0.415759801864624,-0.1928928047418594,-0.2152670323848724,walking,2026-03-04_14-07-41
1772633265906923500,3.956923583984375,-0.6981124669007956,0.8829761362120508,0.3749848207592964,0.418292760848999,-0.1761322021484375,-0.3096364140510559,walking,2026-03-04_14-07-41
1772633265916872400,3.96687255859375,-0.6360375573903322,0.8451961483940482,0.5754366659551858,0.3814038336277008,-0.1276092380285263,-0.3969395458698272,walking,2026-03-04_14-07-41
1772633265926821400,3.9768212890625,-0.4236886093800887,0.8751306834086775,0.8521089965224266,0.2905839085578918,-0.0919561684131622,-0.4596615135669708,walking,2026-03-04_14-07-41
1772633265936770600,3.9867705078125,-0.1545623468108475,0.8864917431175708,1.172570199933648,0.1536007970571518,-0.0757935941219329,-0.4940457046031952,walking,2026-03-04_14-07-41
1772633265946719500,3.996719482421875,0.0901174202334135,0.9119111387953162,1.330426181462407,-0.0053190770559012,-0.0383436903357505,-0.4993008971214294,walking,2026-03-04_14-07-41
1772633265956668700,4.006668701171875,0.2736519598327577,0.961250339242816,1.40020874274075,-0.1620886623859405,-0.0106668667867779,-0.4828321933746338,walking,2026-03-04_14-07-41
1772633265966618600,4.01661865234375,0.409055103871785,1.0103542696297168,1.3213292672932146,-0.2924195230007171,-0.0273571629077196,-0.4617516696453094,walking,2026-03-04_14-07-41
1772633265976567600,4.026567626953125,0.452674903759174,1.0406985544890164,0.9076981972754,-0.3461116552352905,-0.0059684119187295,-0.4283614456653595,walking,2026-03-04_14-07-41
1772633265986516500,4.0365166015625,0.446148278469406,1.0732868188828228,0.3900181392401456,-0.3327479064464569,0.0668013989925384,-0.393654853105545,walking,2026-03-04_14-07-41
1772633265996465400,4.04646533203125,0.4868669866204261,1.0285518973603844,0.1206032324552535,-0.2860682308673858,0.1278547495603561,-0.3528280258178711,walking,2026-03-04_14-07-41
1772633266006414300,4.056414306640625,0.5498757429149002,0.9069938483983278,0.1283686057597398,-0.2357667088508606,0.1504268944263458,-0.3173834681510925,walking,2026-03-04_14-07-41
1772633266016363500,4.066363525390625,0.541930190737918,0.7216960254535079,0.1998784292221069,-0.1777222603559494,0.1742182374000549,-0.294525146484375,walking,2026-03-04_14-07-41
1772633266026312700,4.076312744140625,0.5271434674292802,0.5694952932074666,0.3231166863560676,-0.1257775723934173,0.2120660245418548,-0.2706003785133362,walking,2026-03-04_14-07-41
1772633266036261600,4.08626171875,0.4935792706754058,0.4515028277724981,0.6149608670920134,-0.111834742128849,0.2186247706413269,-0.2459239661693573,walking,2026-03-04_14-07-41
1772633266046210600,4.09621044921875,0.4859615987459197,0.29736586676687,0.9634756140768528,-0.1260408461093902,0.1993320286273956,-0.2226335555315017,walking,2026-03-04_14-07-41
1772633266056159500,4.106159423828125,0.5470110741987824,0.1270621993362903,1.1497843676298856,-0.1487756669521331,0.211577221751213,-0.1908363401889801,walking,2026-03-04_14-07-41
1772633266066108400,4.1161083984375,0.6113107470866292,0.0144423668503761,1.289192838320136,-0.1857741624116897,0.2281146496534347,-0.1406900733709335,walking,2026-03-04_14-07-41
1772633266076057300,4.126057373046875,0.5783564258594066,-0.1143161150097847,1.4577525846928356,-0.2445133477449417,0.2166706323623657,-0.0949966385960578,walking,2026-03-04_14-07-41
1772633266086006500,4.136006591796875,0.5112503537813201,-0.2753805371910333,1.5406939027518034,-0.3032363355159759,0.2095464169979095,-0.0564580336213111,walking,2026-03-04_14-07-41
1772633266095955700,4.145955810546875,0.3933875791406259,-0.4224190643683075,1.4886048190742731,-0.3600063920021057,0.1891440004110336,-0.0271258503198623,walking,2026-03-04_14-07-41
1772633266105904600,4.155904541015625,0.1745106358674354,-0.5062526550918818,1.4160563002139328,-0.4212327301502228,0.1285429745912552,-0.0223018005490303,walking,2026-03-04_14-07-41
1772633266115853600,4.165853515625,0.0447646910396171,-0.5541039550691843,1.1457803926855326,-0.4509377181529999,0.0889178961515426,-0.0141424005851149,walking,2026-03-04_14-07-41
1772633266125802500,4.175802490234375,0.0105391625664895,-0.51335678800866,0.670652359175682,-0.438225120306015,0.0675044804811477,0.0108958408236503,walking,2026-03-04_14-07-41
1772633266135751400,4.18575146484375,-0.0356969983983319,-0.3743038527578115,0.2912210804015397,-0.3980527818202972,0.049171969294548,0.0516917780041694,walking,2026-03-04_14-07-41
1772633266145700400,4.195700439453125,-0.0516877865673741,-0.3139145582467317,0.0608358692348003,-0.34835284948349,0.0119012976065278,0.0986848473548889,walking,2026-03-04_14-07-41
1772633266155649500,4.2056494140625,-0.0321292731465073,-0.3134513246491551,-0.1255623161673545,-0.2882579565048218,-0.0344366021454334,0.1521209925413131,walking,2026-03-04_14-07-41
1772633266165598500,4.215598388671875,-0.0461483959164004,-0.2659178584493696,-0.3701145843744278,-0.2011148035526275,-0.0534329302608966,0.2191769927740097,walking,2026-03-04_14-07-41
1772633266175548700,4.225548583984375,-0.1067574615248478,-0.2679495104074478,-0.6038339083999396,-0.1003785282373428,-0.0196042116731405,0.2908817231655121,walking,2026-03-04_14-07-41
1772633266185497600,4.23549755859375,-0.2088160063774324,-0.3604696809336543,-0.6678682814151048,-0.0095056090503931,0.0386622920632362,0.339341402053833,walking,2026-03-04_14-07-41
1772633266195446500,4.245446533203125,-0.3892895692372694,-0.5376033405147492,-0.4650111286431551,0.0489301905035972,0.0944529324769973,0.3638423085212707,walking,2026-03-04_14-07-41
1772633266205395500,4.2553955078125,-0.5275889827070758,-0.7328779292032123,-0.156839497962594,0.0843033567070961,0.1497673243284225,0.3614515662193298,walking,2026-03-04_14-07-41
1772633266215344400,4.265344482421875,-0.6208973444689064,-0.897452843723446,0.2169388696163892,0.0930653437972068,0.1873667687177658,0.3393273055553436,walking,2026-03-04_14-07-41
1772633266225293300,4.275293212890625,-0.6148653708282857,-0.9966532226659356,0.5454518620580434,0.073740117251873,0.2204530835151672,0.3106812834739685,walking,2026-03-04_14-07-41
1772633266235242500,4.285242431640625,-0.5433912032011896,-1.0569371571063997,0.7845902885228395,0.0390640199184417,0.2544238865375519,0.28058522939682,walking,2026-03-04_14-07-41
1772633266245191700,4.295191650390625,-0.4381278344253078,-1.0633451244525611,0.97810210532248,-0.024031588807702,0.2661172747611999,0.2587395906448364,walking,2026-03-04_14-07-41
1772633266255140600,4.305140625,-0.2467076013437472,-1.0544203519798814,1.0646627829223871,-0.0891804248094558,0.2285217642784118,0.2367202490568161,walking,2026-03-04_14-07-41
1772633266265089500,4.315089599609375,-0.0642248358196578,-1.0514486426927148,0.8223281907647848,-0.1019185930490493,0.1755443066358566,0.2313020378351211,walking,2026-03-04_14-07-41
1772633266275038500,4.32503857421875,0.1003176286025438,-0.8689458572939037,0.3971808704763651,-0.0526547990739345,0.1109266579151153,0.2528622150421142,walking,2026-03-04_14-07-41
1772633266284987400,4.3349873046875,0.212852038694173,-0.6753520612992346,0.0079606036156415,0.0333980619907379,0.0370175465941429,0.2805167436599731,walking,2026-03-04_14-07-41
1772633266294936300,4.344936279296875,0.2386823897929862,-0.5860194347679615,-0.3261842572331428,0.1382889300584793,-0.0260089877992868,0.3127500116825104,walking,2026-03-04_14-07-41
1772633266304885500,4.354885498046875,0.1437746939425822,-0.5161893810860813,-0.4851783028811216,0.222943365573883,-0.0583474859595298,0.3323111832141876,walking,2026-03-04_14-07-41
1772633266314834700,4.364834716796875,-0.1230328981544356,-0.476715156570822,-0.4077040180563926,0.2455943822860717,-0.0630734711885452,0.3266112506389618,walking,2026-03-04_14-07-41
1772633266324783600,4.37478369140625,-0.44065651265271,-0.5137129079699516,-0.2146925519943237,0.2042474746704101,-0.0301472134888172,0.3022491931915283,walking,2026-03-04_14-07-41
1772633266334732500,4.384732666015625,-0.7240805094372481,-0.5413862200543285,-0.0908744491457939,0.118905633687973,0.0297285132110118,0.2606025338172912,walking,2026-03-04_14-07-41
1772633266344681500,4.394681396484375,-0.8666184372596443,-0.54323886218369,-0.0575929417908191,0.0279613435268402,0.0969919711351394,0.2190417498350143,walking,2026-03-04_14-07-41
1772633266354630400,4.40463037109375,-0.8092891148410737,-0.5265893406778573,-0.2569143216520547,-0.0324860140681266,0.1682015061378479,0.2099045664072036,walking,2026-03-04_14-07-41
1772633266364580400,4.414580322265625,-0.5656770866261794,-0.4862957626037299,-0.528279777982831,-0.0480809547007083,0.2062130719423294,0.2370658814907074,walking,2026-03-04_14-07-41
1772633266374529500,4.424529541015625,-0.2732107736702077,-0.4420050777174532,-0.7961720052450895,-0.0255195517092943,0.1903330683708191,0.2947368621826172,walking,2026-03-04_14-07-41
1772633266384478500,4.434478515625,-0.1708619771667756,-0.414843514547497,-0.9670330142974852,0.0194750875234603,0.1468311250209808,0.355605810880661,walking,2026-03-04_14-07-41
1772633266394427600,4.444427734375,-0.2916226104071364,-0.4696380577914416,-1.084337205207348,0.065548188984394,0.1077407374978065,0.3861051797866821,walking,2026-03-04_14-07-41
1772633266404376600,4.45437646484375,-0.4778700622269883,-0.611847849638015,-1.1628355723828077,0.0916029587388038,0.0847890824079513,0.382229745388031,walking,2026-03-04_14-07-41
1772633266414325500,4.464325439453125,-0.6077523970179259,-0.7306219669699668,-1.1712363209813832,0.0884947404265403,0.0636306852102279,0.3587985634803772,walking,2026-03-04_14-07-41
1772633266424274400,4.4742744140625,-0.6571290068663657,-0.7576856227234006,-1.128300850096345,0.0528384707868099,0.0549088269472122,0.327203094959259,walking,2026-03-04_14-07-41
1772633266434223400,4.484223388671875,-0.6396072325706481,-0.7319808342330157,-1.0949036074072125,-0.0164577923715114,0.0639721751213073,0.2974879443645477,walking,2026-03-04_14-07-41
1772633266444172500,4.494172607421875,-0.5838245916048065,-0.7069457616977394,-1.0399392605543136,-0.1239965111017227,0.0467742793262004,0.2594904899597168,walking,2026-03-04_14-07-41
1772633266454121500,4.50412158203125,-0.612369097033143,-0.6372770360574126,-1.0940636494517326,-0.2484172582626342,0.0140773188322782,0.2075692564249038,walking,2026-03-04_14-07-41
1772633266464070700,4.514070556640625,-0.6480920061908662,-0.4275416680790483,-1.424583305540681,-0.3355593383312225,-0.0255236197263002,0.154674082994461,walking,2026-03-04_14-07-41
1772633266474019600,4.52401953125,-0.6104300917945802,-0.0893175750926136,-1.899028032961488,-0.3559313118457794,-0.0622516423463821,0.107886403799057,walking,2026-03-04_14-07-41
1772633266483968500,4.533968505859375,-0.470845643482916,0.2805785442255437,-2.2972692261457444,-0.3218282163143158,-0.1271997541189193,0.0716295912861824,walking,2026-03-04_14-07-41
1772633266493917400,4.54391748046875,-0.2100318849732168,0.62720616228953,-2.60200036098361,-0.2393702715635299,-0.1897941827774047,0.0602547489106655,walking,2026-03-04_14-07-41
1772633266503866400,4.553866455078125,-0.0017552644358016,0.9055534403316676,-2.86317526268959,-0.1132096797227859,-0.1705110222101211,0.0809323266148567,walking,2026-03-04_14-07-41
1772633266513815300,4.563815185546875,0.071059353448241,1.1610356833539903,-3.060470105159282,0.0483067706227302,-0.0376052372157573,0.1229025572538375,walking,2026-03-04_14-07-41
1772633266523764700,4.5737646484375,0.0861130342971067,1.3732184444844722,-2.99184314365685,0.2234761863946914,0.1373708248138427,0.1830646991729736,walking,2026-03-04_14-07-41
1772633266533713700,4.583713623046875,0.1450648616172838,1.4419922671116887,-2.4672265643566846,0.3780181407928467,0.3006199300289154,0.2322989553213119,walking,2026-03-04_14-07-41
1772633266543662600,4.59366259765625,0.2516439069684594,1.305830815518647,-1.603746863514185,0.4928800165653229,0.4249126017093658,0.2636419832706451,walking,2026-03-04_14-07-41
1772633266553611500,4.603611572265625,0.3679332217473536,1.1311259905196729,-0.6938187152296305,0.570072591304779,0.4994802474975586,0.2889120280742645,walking,2026-03-04_14-07-41
1772633266563560400,4.613560546875,0.4703873417887836,1.0338504421599208,0.1097001456469297,0.6139753460884094,0.5205016136169434,0.3166802823543548,walking,2026-03-04_14-07-41
1772633266573510400,4.623510498046875,0.5300822608275338,0.9813552618995308,0.8324006719678639,0.6249535083770752,0.4702415466308594,0.3199469745159149,walking,2026-03-04_14-07-41
1772633266583459600,4.63345947265625,0.5366818417556584,0.9239747938156128,1.496715644815564,0.5796059966087341,0.3502418994903564,0.2949412167072296,walking,2026-03-04_14-07-41
1772633266593408500,4.643408447265625,0.5862430874560028,0.7945350516930222,1.9207336688131091,0.4989423453807831,0.2131939083337783,0.2623062431812286,walking,2026-03-04_14-07-41
1772633266603357400,4.653357421875,0.563601997385174,0.8714861894264817,2.157757879602909,0.3915863335132599,0.1227542906999588,0.2371263056993484,walking,2026-03-04_14-07-41
1772633266613306600,4.663306640625,0.4534184521354734,1.0248600571051238,2.179274130362272,0.273351788520813,0.0748546868562698,0.2183969318866729,walking,2026-03-04_14-07-41
1772633266623255600,4.673255615234375,0.4664280097037553,1.0909940327480434,2.096514598610997,0.1577511429786682,0.0488790161907672,0.209407165646553,walking,2026-03-04_14-07-41
1772633266633204500,4.68320458984375,0.5443484308607875,1.1264382710948586,1.950074329587817,0.0448751524090766,0.0268942303955554,0.2239308357238769,walking,2026-03-04_14-07-41
1772633266643153400,4.6931533203125,0.4846385334486141,1.1462108930572867,1.7831851467758415,-0.0512026436626911,-0.0129794171079993,0.2392426878213882,walking,2026-03-04_14-07-41
1772633266653102300,4.703102294921875,0.3526116243770346,1.1432552581220865,1.5533236672222612,-0.1264916807413101,-0.0661689713597297,0.239710658788681,walking,2026-03-04_14-07-41
1772633266663051500,4.713051513671875,0.088879293273203,1.1014864929288626,1.2241367210417986,-0.1823986172676086,-0.1332547962665558,0.2156423479318618,walking,2026-03-04_14-07-41
1772633266673000400,4.72300048828125,-0.22255915718358,1.045971526455879,0.9317577027767896,-0.2320622056722641,-0.1923944950103759,0.1675825715065002,walking,2026-03-04_14-07-41
1772633266682949600,4.73294970703125,-0.524164268955402,0.9966790877595544,0.6649824968457222,-0.2844220697879791,-0.2262510061264038,0.0960356965661048,walking,2026-03-04_14-07-41
1772633266692898600,4.742898681640625,-0.767504129165411,1.0020613653197885,0.4023223250180482,-0.3344984352588653,-0.1990362703800201,0.0146082760766148,walking,2026-03-04_14-07-41
1772633266702847500,4.752847412109375,-0.8756113065324723,0.9754252873286604,0.1243798283845186,-0.3699038326740265,-0.1267969608306884,-0.0601447932422161,walking,2026-03-04_14-07-41
1772633266712797000,4.762796875,-0.8307534892827272,0.9833680630266666,-0.1707107869267463,-0.3702759444713592,-0.0240815430879592,-0.1218694150447845,walking,2026-03-04_14-07-41
1772633266722745900,4.772745849609375,-0.6760759916596114,1.0146610269129277,-0.4219476474642753,-0.3234722018241882,0.1053821742534637,-0.1498019844293594,walking,2026-03-04_14-07-41
1772633266732694800,4.78269482421875,-0.4155890722177922,1.0868553255081177,-0.4997971953421831,-0.2517746686935425,0.220381274819374,-0.1391298174858093,walking,2026-03-04_14-07-41
1772633266742643700,4.792643798828125,-0.1599477844425477,1.1127487684383988,-0.2803039650678634,-0.1868079304695129,0.2422610074281692,-0.1127631887793541,walking,2026-03-04_14-07-41
1772633266752593000,4.802593017578125,0.0634429281943477,1.0142894171215593,0.0222784673035144,-0.1240100339055061,0.212034210562706,-0.0701261162757873,walking,2026-03-04_14-07-41
1772633266762541800,4.812541748046875,0.2395119907512329,0.8615886263988911,0.3711743225604295,-0.0723633542656898,0.1594048142433166,-0.0231780484318733,walking,2026-03-04_14-07-41
1772633266772491000,4.822490966796875,0.2832486036850139,0.709442693080008,0.7601362307459115,-0.0622702538967132,0.0822697505354881,0.0165838841348886,walking,2026-03-04_14-07-41
1772633266782441000,4.83244091796875,0.26654145197412,0.4900583300076425,1.0574532899349929,-0.0740006789565086,0.0309048295021057,0.0454943627119064,walking,2026-03-04_14-07-41
1772633266792390000,4.842389892578125,0.2646792565651237,0.2596453540511429,1.1826496953994037,-0.0921922177076339,0.0264822486788034,0.0706855505704879,walking,2026-03-04_14-07-41
1772633266802338800,4.8523388671875,0.189273375512287,0.0805792651027441,1.28064362116158,-0.1251304596662521,0.0355100966989994,0.0793477520346641,walking,2026-03-04_14-07-41
1772633266812287700,4.862287841796875,0.1564660067413933,-0.1303705932319164,1.3468518310844897,-0.1651974022388458,0.0408129058778286,0.0847752913832664,walking,2026-03-04_14-07-41
1772633266822236700,4.872236572265625,0.1967231252626516,-0.2731564314007759,1.3456249196380377,-0.1958597153425216,0.0501177236437797,0.089542880654335,walking,2026-03-04_14-07-41
1772633266832185900,4.882185791015625,0.1700970389425754,-0.4005860027447342,1.3054793717324733,-0.2210365831851959,0.0572277419269084,0.0869005843997001,walking,2026-03-04_14-07-41
1772633266842135000,4.892135009765625,0.0661107408978045,-0.5259403752498328,1.2896633784413336,-0.2512991428375244,0.0492198802530765,0.054154884070158,walking,2026-03-04_14-07-41
1772633266852084000,4.902083984375,-0.1415651738001033,-0.7110420911006629,1.2473340567559004,-0.3089171946048736,0.0437962897121906,-0.0077632032334804,walking,2026-03-04_14-07-41
1772633266862033000,4.912032958984375,-0.2554408880986273,-0.7579368210054933,1.162163372209668,-0.368588775396347,0.031602207571268,-0.0657133162021637,walking,2026-03-04_14-07-41
1772633266871981800,4.92198193359375,-0.234265285736788,-0.7298964291743933,0.9284569076657294,-0.4115399718284607,0.0013100230135023,-0.107552945613861,walking,2026-03-04_14-07-41
1772633266881930800,4.9319306640625,-0.1590834774971008,-0.6569957358755171,0.5680757817983627,-0.4208962023258209,-0.0376917049288749,-0.1461799591779709,walking,2026-03-04_14-07-41
1772633266891879700,4.941879638671875,-0.0605007737952284,-0.5714266996614634,0.1531067411750555,-0.3963257074356079,-0.0609229058027267,-0.171928122639656,walking,2026-03-04_14-07-41
1772633266901828900,4.951828857421875,0.0088614431791938,-0.4760246900886297,-0.1551110667347908,-0.3499765992164612,-0.0769282355904579,-0.1745124608278274,walking,2026-03-04_14-07-41
1772633266911778000,4.961778076171875,0.1063318199913017,-0.4610696975409984,-0.4107663282364606,-0.2818917036056518,-0.0661752745509147,-0.1714304536581039,walking,2026-03-04_14-07-41
1772633266921727000,4.97172705078125,0.1355160846279002,-0.4925260352954268,-0.655508566057682,-0.1883157044649124,-0.0159437991678714,-0.1617064625024795,walking,2026-03-04_14-07-41
1772633266931676000,4.981676025390625,0.1835891923960298,-0.5375872661627829,-0.8361527179777621,-0.0786908864974975,0.0635289102792739,-0.1468967497348785,walking,2026-03-04_14-07-41
1772633266941624800,4.991624755859375,0.2110928652682341,-0.6461649836510419,-0.7634095533281564,0.0225915294140577,0.1038928478956222,-0.1447070986032486,walking,2026-03-04_14-07-41
1772633266951573800,5.00157373046875,0.2623144636625424,-0.788233613461256,-0.5679132847130298,0.0996517986059188,0.1045619398355484,-0.150029718875885,walking,2026-03-04_14-07-41
1772633266961523000,5.01152294921875,0.3157197079725563,-0.9418126483231782,-0.3237900555729865,0.1521528214216232,0.0953034609556198,-0.1513178944587707,walking,2026-03-04_14-07-41
1772633266971472000,5.021471923828125,0.2850449490498751,-1.035836209149659,-0.0810293469578027,0.1606166660785675,0.0819162651896476,-0.1601341515779495,walking,2026-03-04_14-07-41
1772633266981421800,5.031421875,0.1913441904369741,-1.1125532458662986,0.185355398350954,0.1324462890625,0.0344209186732769,-0.1810495555400848,walking,2026-03-04_14-07-41
1772633266991371000,5.04137109375,0.1855326180813833,-1.1816551314041015,0.3029892596065998,0.0999999046325683,-0.0531499348580837,-0.2069441676139831,walking,2026-03-04_14-07-41
1772633267001320000,5.05131982421875,0.2485676413282752,-1.2034069444850086,0.1978524763524532,0.0889389961957931,-0.1446902453899383,-0.2378749102354049,walking,2026-03-04_14-07-41
1772633267011268900,5.061268798828125,0.3050132031822577,-1.1082895970724522,-0.0993634605497121,0.1032735332846641,-0.2132736444473266,-0.2580748200416565,walking,2026-03-04_14-07-41
1772633267021217800,5.0712177734375,0.3600647533945739,-0.9127462744452058,-0.4839069677710533,0.1350636929273605,-0.2298251837491989,-0.2539855241775512,walking,2026-03-04_14-07-41
1772633267031166700,5.081166748046875,0.381720303026773,-0.7637015220120549,-0.8227619060069322,0.1715268194675445,-0.1903988718986511,-0.2400576472282409,walking,2026-03-04_14-07-41
1772633267041115600,5.09111572265625,0.32560660347566,-0.6846531197383999,-1.021523313897848,0.1968308389186859,-0.1307379454374313,-0.2262576669454574,walking,2026-03-04_14-07-41
1772633267051065000,5.101065185546875,0.3215566704977303,-0.6566586128756403,-1.0614099186062813,0.2105229645967483,-0.066456489264965,-0.2043283581733703,walking,2026-03-04_14-07-41
1772633267061014000,5.111013916015625,0.3787414333464577,-0.6873109407708048,-1.095700895264745,0.2269211113452911,0.0126705532893538,-0.1706787943840026,walking,2026-03-04_14-07-41
1772633267070963000,5.120962890625,0.4650035663912072,-0.7673962848767638,-1.0847066230416298,0.2506086826324463,0.0627109259366989,-0.1366778314113617,walking,2026-03-04_14-07-41
1772633267080912000,5.130911865234375,0.5573412930225953,-0.8602452489659189,-1.0207821401417254,0.2860620021820068,0.0529011748731136,-0.1066421568393707,walking,2026-03-04_14-07-41
1772633267090860800,5.14086083984375,0.6307888430818915,-0.9119979402959346,-0.918593685299158,0.3339025974273681,0.0017998164985328,-0.0766034722328186,walking,2026-03-04_14-07-41
1772633267100809700,5.150809814453125,0.6229181097067892,-0.9446078319996596,-0.8057663475424051,0.3715876638889313,-0.0813288986682891,-0.0566806308925151,walking,2026-03-04_14-07-41
1772633267110758700,5.160758544921875,0.4901827966375276,-0.927398630784452,-0.6430582498073577,0.3806208372116089,-0.1755865514278412,-0.0523398593068122,walking,2026-03-04_14-07-41
1772633267120708000,5.1707080078125,0.3096582159765064,-0.9341853683151304,-0.5894441485196351,0.3659766316413879,-0.2298252880573272,-0.0602387972176075,walking,2026-03-04_14-07-41
1772633267130657000,5.180656982421875,0.18042818934815,-0.9193705148905515,-0.6824345669060945,0.3342413306236267,-0.2383044511079788,-0.0726428553462028,walking,2026-03-04_14-07-41
1772633267140606000,5.19060595703125,0.0225270352371037,-0.8343418691635132,-0.8031260621666908,0.2872759699821472,-0.2281263917684555,-0.0893693715333938,walking,2026-03-04_14-07-41
1772633267150555000,5.200554931640625,-0.1228400150639936,-0.7032219188690185,-0.8206763319045305,0.2100897282361984,-0.229087233543396,-0.1151006072759628,walking,2026-03-04_14-07-41
1772633267160503800,5.21050390625,-0.3064421582731418,-0.54105684196949,-0.8143465443611144,0.1005818769335746,-0.2383065521717071,-0.1399518996477127,walking,2026-03-04_14-07-41
1772633267170452700,5.22045263671875,-0.5400605244085193,-0.3089762250617146,-0.8753098393678664,-0.035202570259571,-0.2622663676738739,-0.1755850166082382,walking,2026-03-04_14-07-41
1772633267180402000,5.23040185546875,-0.7504957112193107,-0.0563031942412257,-1.043051255095005,-0.1692847311496734,-0.295657604932785,-0.2173396497964859,walking,2026-03-04_14-07-41
1772633267190352000,5.240351806640625,-0.9003485651649534,0.2527547177545726,-1.450126327598095,-0.2620316743850708,-0.309301346540451,-0.2637121975421905,walking,2026-03-04_14-07-41
1772633267200301000,5.250301025390625,-1.0010576681699603,0.6779520146645606,-1.9355612355887888,-0.2792575359344482,-0.2784425020217895,-0.3095699548721313,walking,2026-03-04_14-07-41
1772633267210250000,5.26025,-1.0185528467196971,1.1917283432595431,-2.4153666132599114,-0.2124618291854858,-0.1552144736051559,-0.3303073644638061,walking,2026-03-04_14-07-41
1772633267220199000,5.270198974609375,-0.9212118319083004,1.7225244879774748,-2.6669039180487397,-0.0769476741552352,-0.0085946610197424,-0.3210110664367676,walking,2026-03-04_14-07-41
1772633267230147800,5.28014794921875,-0.589345656581223,2.0588257962077856,-2.5795909607768057,0.1216123849153518,0.1396438628435135,-0.2569946050643921,walking,2026-03-04_14-07-41
1772633267240096800,5.2900966796875,-0.2184389354484155,2.259151530805975,-2.1789631647169587,0.3288553059101105,0.2737103104591369,-0.1729084998369217,walking,2026-03-04_14-07-41
1772633267250045700,5.300045654296875,-0.0867923674639314,2.336566778919846,-1.320049748876691,0.4816401600837707,0.3679258823394775,-0.0909025445580482,walking,2026-03-04_14-07-41
1772633267263105000,5.31310498046875,-0.0814606510471552,2.2735583879515526,-0.7018535531252622,0.5733231902122498,0.3893453776836395,0.0083737056702375,walking,2026-03-04_14-07-41
1772633267273054000,5.323053955078125,-0.0554201460626907,1.9555773109182717,0.5031009130626917,0.5640300512313843,0.3012799620628357,0.0323014110326767,walking,2026-03-04_14-07-41
1772633267283003000,5.3330029296875,-0.2095812551288865,1.719263001963496,1.3736480680733918,0.5269724130630493,0.139737993478775,0.0231534093618392,walking,2026-03-04_14-07-41
1772633267292951800,5.342951904296875,-0.3774563619719818,1.5811270354270934,1.6263193453282117,0.4866404235363006,-0.0058295973576605,-0.0019301066640764,walking,2026-03-04_14-07-41
1772633267302900700,5.352900634765625,-0.559619211359322,1.4081339827820658,1.6398796686470507,0.4535674452781677,-0.091736190021038,-0.0396841131150722,walking,2026-03-04_14-07-41
1772633267312849700,5.362849609375,-0.8028867004528641,1.253535834005475,1.4758505514413118,0.4190734028816223,-0.1015571281313896,-0.1023743972182273,walking,2026-03-04_14-07-41
1772633267322798800,5.372798828125,-1.0670970243319868,1.0821277124643325,1.345853467696905,0.3637591004371643,-0.0672783404588699,-0.1929685473442077,walking,2026-03-04_14-07-41
1772633267332748000,5.382748046875,-1.2223919962663203,0.8821063676401972,1.371256789022684,0.2674919664859772,-0.0226059406995773,-0.300463855266571,walking,2026-03-04_14-07-41
1772633267342697000,5.392697021484375,-1.2909610170364378,0.6974827906951307,1.4381629180818796,0.1450267732143402,0.0298496056348085,-0.4093896746635437,walking,2026-03-04_14-07-41
1772633267352646000,5.40264599609375,-1.2656602793022989,0.6355091496020555,1.4927455721408127,0.0058044251054525,0.0739142745733261,-0.5112143158912659,walking,2026-03-04_14-07-41
1772633267362594800,5.4125947265625,-1.1359412087816745,0.6401429468825459,1.5664496907770633,-0.1443180441856384,0.0705041140317916,-0.5906737446784973,walking,2026-03-04_14-07-41
1772633267372543700,5.422543701171875,-0.9211604670472444,0.685471742644906,1.5380588780730962,-0.2835710346698761,0.0392090417444705,-0.6420770287513733,walking,2026-03-04_14-07-41
1772633267382492700,5.43249267578125,-0.699743575233966,0.7904282008960842,1.3238427114188671,-0.3881972134113312,-0.0044393902644515,-0.6665181517601013,walking,2026-03-04_14-07-41
1772633267392443000,5.44244287109375,-0.5935808099329472,0.9640057754307984,0.8433119420826435,-0.426880419254303,-0.013549530878663,-0.6717637777328491,walking,2026-03-04_14-07-41
1772633267402391800,5.452391845703125,-0.5361682662103325,1.1068553264856338,0.2412935586720705,-0.4084273874759674,0.0094248354434967,-0.671286940574646,walking,2026-03-04_14-07-41
1772633267412341000,5.462341064453125,-0.3956189549218863,1.159628885295987,-0.1639174735248088,-0.3449581265449524,0.0134627195075154,-0.6343502402305603,walking,2026-03-04_14-07-41
1772633267422290000,5.4722900390625,-0.071928487265855,1.1482327542737123,-0.4185317015409469,-0.2315223664045334,0.0326001234352588,-0.5465909838676453,walking,2026-03-04_14-07-41
1772633267432238800,5.48223876953125,0.2156896367402747,1.115232109686732,-0.6029436815619469,-0.0923168212175369,0.0906580984592437,-0.4436656236648559,walking,2026-03-04_14-07-41
1772633267442187800,5.492187744140625,0.3128519339838996,0.9621940498337148,-0.5613830061614513,0.0241356194019317,0.1559319496154785,-0.3478687107563019,walking,2026-03-04_14-07-41
1772633267452137000,5.502136962890625,0.3005866554442793,0.6911100407928228,-0.174741649878025,0.0795575976371765,0.1897477060556411,-0.2680524289608001,walking,2026-03-04_14-07-41
1772633267462086000,5.5120859375,0.2366513223567977,0.2756318816035986,0.404243648469448,0.0720531716942787,0.1778607964515686,-0.2100224047899246,walking,2026-03-04_14-07-41
1772633267472034800,5.522034912109375,0.1052054280435666,-0.1336392396390438,0.908597191941738,0.0192623995244503,0.128550499677658,-0.1842717677354812,walking,2026-03-04_14-07-41
1772633267481984000,5.53198388671875,-0.088116126880981,-0.4385506994798779,1.216360826343298,-0.0543692559003829,0.0564378313720226,-0.1922395676374435,walking,2026-03-04_14-07-41
1772633267491933000,5.541932861328125,-0.2565790983483195,-0.650128042063117,1.2750152598857878,-0.1217459067702293,-0.0196446869522333,-0.2088427692651748,walking,2026-03-04_14-07-41
1772633267501881900,5.5518818359375,-0.3346513855988159,-0.7628343837887048,1.109661616078019,-0.1580478101968765,-0.0549774840474128,-0.2246230989694595,walking,2026-03-04_14-07-41
1772633267511830800,5.561830810546875,-0.3964349840125069,-0.7415233002126217,0.7662719570219516,-0.1554174125194549,-0.0438832864165306,-0.2342573553323745,walking,2026-03-04_14-07-41
1772633267521779700,5.57177978515625,-0.4220933030126616,-0.6692334322884679,0.4436678963631391,-0.1217967718839645,-0.0214823950082063,-0.2365542948246002,walking,2026-03-04_14-07-41
1772633267531729000,5.58172900390625,-0.3476639023091644,-0.5837865611493587,0.2539917122036218,-0.074515551328659,-0.0174008347094059,-0.2243215888738632,walking,2026-03-04_14-07-41
1772633267541677800,5.591677734375,-0.2059101106017828,-0.4857204469338059,0.2730395270228385,-0.0444793440401554,-0.0682389140129089,-0.2012140154838562,walking,2026-03-04_14-07-41
1772633267551627000,5.601626953125,-0.0932498365076258,-0.3619114041745662,0.4227899435073137,-0.0372568517923355,-0.1513894647359848,-0.1606066673994064,walking,2026-03-04_14-07-41
1772633267561576000,5.611575927734375,-0.006088599198684,-0.2479737670883536,0.4786690671175718,-0.04294203966856,-0.2201308906078338,-0.1111848503351211,walking,2026-03-04_14-07-41
1772633267571524900,5.62152490234375,0.0320069573745131,-0.1641542048901319,0.3856763106435537,-0.0451804250478744,-0.2304639518260955,-0.0597829148173332,walking,2026-03-04_14-07-41
1772633267581473800,5.631473876953125,-0.0522076320232823,-0.0936672947347164,0.1911561935842037,-0.0492423959076404,-0.1828007251024246,-0.0106064025312662,walking,2026-03-04_14-07-41
1772633267591422700,5.641422607421875,-0.1673047413429245,-0.0572550881385803,0.0799754539906978,-0.0580563955008983,-0.116105318069458,0.0280033089220523,walking,2026-03-04_14-07-41
1772633267601993700,5.65199365234375,-0.2231307465264573,-0.0889092865526676,0.053725160446763,-0.0493771582841873,-0.0450083650648593,0.0638545230031013,walking,2026-03-04_14-07-41
1772633267611942700,5.661942626953125,-0.205990591959469,-0.101545773024857,0.0535159016102552,-0.0237988289445638,0.0254844427108764,0.0842071995139122,walking,2026-03-04_14-07-41
1772633267621892000,5.67189208984375,-0.238543017854914,-0.1672749672591686,0.1171007772922515,0.0056735812686383,0.0764497518539428,0.086280457675457,walking,2026-03-04_14-07-41
1772633267631841000,5.681841064453125,-0.2058643352312967,-0.2463222004890441,0.2890110031366348,0.0174852330237627,0.1108037307858467,0.0896943658590316,walking,2026-03-04_14-07-41
1772633267641790000,5.6917900390625,-0.1613485363522544,-0.3280512201488018,0.4953612587213516,0.0213492903858423,0.1229778826236724,0.087142989039421,walking,2026-03-04_14-07-41
1772633267651739000,5.70173876953125,-0.0395849548807367,-0.3540624442398548,0.6681874303668737,0.0254731960594654,0.1188712939620018,0.0986539721488952,walking,2026-03-04_14-07-41
1772633267661687800,5.711687744140625,0.1445209183331579,-0.3791121298223733,0.7859276746064424,0.0168134942650795,0.0821611210703849,0.1236865147948265,walking,2026-03-04_14-07-41
1772633267671636700,5.72163671875,0.3298260478015989,-0.3943371714830398,0.8443985682755708,0.0145969446748495,0.0234794337302446,0.156603991985321,walking,2026-03-04_14-07-41
1772633267681587000,5.7315869140625,0.4242056555241346,-0.4231283816814422,0.7611901237130164,0.0101803122088313,-0.0213319007307291,0.1954967826604843,walking,2026-03-04_14-07-41
1772633267691536000,5.741535888671875,0.4251048693861812,-0.424917310924828,0.6323655908793211,0.0086548533290624,-0.0764598622918129,0.2288637906312942,walking,2026-03-04_14-07-41
1772633267701484800,5.75148486328125,0.3086190091218799,-0.3994154976606369,0.3664356036007404,0.0169196128845214,-0.0928418785333633,0.2545281052589416,walking,2026-03-04_14-07-41
1772633267711434000,5.76143408203125,0.2325703001208603,-0.4027855586156249,0.0573351676374673,0.0262177716940641,-0.0828861817717552,0.2771362364292145,walking,2026-03-04_14-07-41
1772633267721382400,5.77138232421875,0.1209771438015624,-0.4029284742176532,-0.1785147386759519,0.0255502127110958,-0.061013001948595,0.288009375333786,walking,2026-03-04_14-07-41
1772633267731331300,5.781331298828125,-0.0555073676884174,-0.4546808732867241,-0.3585796294033527,0.0205730311572551,-0.0257210563868284,0.282582938671112,walking,2026-03-04_14-07-41
1772633267741280500,5.791280517578125,-0.2365795722948387,-0.5131342312991619,-0.5617150145947933,0.0371657684445381,0.0220262464135885,0.2713091969490051,walking,2026-03-04_14-07-41
1772633267751229400,5.8012294921875,-0.3416748910274356,-0.5539204151958227,-0.7931821757793426,0.0641142949461937,0.0652802437543869,0.2496902048587799,walking,2026-03-04_14-07-41
1772633267761178400,5.811178466796875,-0.3988866149483248,-0.6361360493287443,-0.912103738757968,0.0946819260716438,0.1000018417835235,0.2244180589914322,walking,2026-03-04_14-07-41
1772633267771127600,5.82112744140625,-0.406492194581218,-0.6932350701227784,-1.005745314529538,0.144042819738388,0.1608239114284515,0.2052049487829208,walking,2026-03-04_14-07-41
1772633267781076500,5.831076416015625,-0.3837941501587629,-0.7172203413441777,-1.0762293020755052,0.1991603523492813,0.2245673984289169,0.1963464468717575,walking,2026-03-04_14-07-41
1772633267791025400,5.841025390625,-0.2919364255966618,-0.758456899356842,-0.9890577991008758,0.2378885746002197,0.2606559097766876,0.1958010345697403,walking,2026-03-04_14-07-41
1772633267800974300,5.850974365234375,-0.2072980212962255,-0.8560904673740267,-0.7393792739212512,0.2427016198635101,0.2571907639503479,0.1919846832752227,walking,2026-03-04_14-07-41
1772633267810923500,5.860923583984375,-0.1623261857453733,-0.9456222697392106,-0.4574649510473013,0.2203784734010696,0.2348990440368652,0.1913937330245971,walking,2026-03-04_14-07-41
1772633267820872400,5.87087255859375,-0.1701447870744392,-0.9791919463858008,-0.2582259887725114,0.1712018996477127,0.2072329819202423,0.1864610463380813,walking,2026-03-04_14-07-41
1772633267830821600,5.880821533203125,-0.2309851498212665,-0.989601988980174,-0.2158586731642484,0.1201986521482467,0.1920220702886581,0.1720959544181823,walking,2026-03-04_14-07-41
1772633267840770600,5.8907705078125,-0.2957684415075928,-0.992373499520123,-0.3086070994883775,0.0707766637206077,0.1846372187137603,0.1488716900348663,walking,2026-03-04_14-07-41
1772633267850719500,5.900719482421875,-0.3691474198427051,-0.9485080543085932,-0.4454635476082563,0.0301086027175188,0.1748634129762649,0.1157901734113693,walking,2026-03-04_14-07-41
1772633267860668400,5.91066845703125,-0.3876377103770151,-0.852136176790297,-0.5605366184651851,-0.0101509299129247,0.150727778673172,0.0855913907289505,walking,2026-03-04_14-07-41
1772633267870618400,5.920618408203125,-0.3560878491202369,-0.734219406940043,-0.6201186882466078,-0.0527332797646522,0.0943233668804168,0.0560918189585208,walking,2026-03-04_14-07-41
1772633267880567600,5.930567626953125,-0.3102437973121181,-0.572806609712541,-0.7100058799207211,-0.0851820707321167,0.0244882963597774,0.0325260087847709,walking,2026-03-04_14-07-41
1772633267890516500,5.9405166015625,-0.287076527942717,-0.2744230903357267,-0.9237912539422511,-0.0911645963788032,-0.026441728696227,0.0124628208577632,walking,2026-03-04_14-07-41
1772633267900465400,5.95046533203125,-0.2636466621143743,0.0928013255551457,-1.2219149533390998,-0.0754664689302444,-0.0511437766253948,0.006122569553554,walking,2026-03-04_14-07-41
1772633267910414300,5.960414306640625,-0.1204545081669464,0.4312719406485557,-1.442957166621089,-0.0361773781478405,-0.0793375968933105,0.010061384178698,walking,2026-03-04_14-07-41
1772633267920363500,5.970363525390625,0.1155079551428556,0.7034770626738667,-1.5814496915102003,0.0210868008434772,-0.1250624358654022,0.0279505439102649,walking,2026-03-04_14-07-41
1772633267930312400,5.9803125,0.3242543120838702,0.971240987381339,-1.6037538777768612,0.0852625891566276,-0.2008339017629623,0.0673813074827194,walking,2026-03-04_14-07-41
1772633267940261400,5.990261474609375,0.4524848610797897,1.163965160934627,-1.707778315874934,0.1599257439374923,-0.2057523727416992,0.1231473982334137,walking,2026-03-04_14-07-41
1772633267950210600,6.00021044921875,0.2687210793018341,1.3557003234505651,-1.8683494015812876,0.2229648977518081,-0.1588330715894699,0.1513047367334365,walking,2026-03-04_14-07-41
1772633267960159500,6.010159423828125,-0.0562907731510698,1.4501681209132071,-1.860936494976282,0.2632974088191986,-0.0976103991270065,0.1486054807901382,walking,2026-03-04_14-07-41
1772633267970108400,6.0201083984375,-0.2061720860062167,1.4064324395611882,-1.752771888333559,0.2850280106067657,0.0061623360961675,0.1374391019344329,walking,2026-03-04_14-07-41
1772633267980057600,6.0300576171875,-0.2625796539373696,1.378427995826304,-1.5536942541003227,0.3077883422374725,0.1450026035308838,0.1390973031520843,walking,2026-03-04_14-07-41
1772633267990006500,6.040006591796875,-0.1926035428483039,1.437371183182299,-1.2900386414945124,0.3497895896434784,0.3073755204677582,0.1660191863775253,walking,2026-03-04_14-07-41
1772633267999955500,6.04995556640625,-0.0011271773990243,1.4491475456938148,-0.8815127856612205,0.4015905857086181,0.4371626079082489,0.20193412899971,walking,2026-03-04_14-07-41
1772633268009904400,6.059904296875,0.1619518360076472,1.3466250365912913,-0.3490045763283967,0.4426048696041107,0.4969297647476196,0.2346441447734832,walking,2026-03-04_14-07-41
1772633268019853300,6.069853271484375,0.2408194383542984,1.22438543510586,0.2877759083837271,0.4654619395732879,0.4831655323505401,0.2489139884710312,walking,2026-03-04_14-07-41
1772633268029802500,6.079802490234375,0.2390771247316151,1.144352990230918,0.9174129510819912,0.4618850648403168,0.4022621512413025,0.2382325828075409,walking,2026-03-04_14-07-41
1772633268039751400,6.08975146484375,0.2455290773499757,1.0915791391596197,1.4690432095140218,0.4228009879589081,0.2499426007270813,0.21762315928936,walking,2026-03-04_14-07-41
1772633268049700600,6.09970068359375,0.3129297849930822,1.0763652034148574,1.8860645064920185,0.3468819856643677,0.0752733051776886,0.2029067873954773,walking,2026-03-04_14-07-41
1772633268059650300,6.109650390625,0.3524848927248269,1.0777192483723164,2.086504076728225,0.2440657317638397,-0.065429113805294,0.1998422145843505,walking,2026-03-04_14-07-41
1772633268069599500,6.119599609375,0.3882930690132081,1.1049047769397498,2.106487711092829,0.129721850156784,-0.1396402269601822,0.203786626458168,walking,2026-03-04_14-07-41
1772633268079548400,6.12954833984375,0.3963978303398937,1.0838011986345053,1.957916859781742,0.0211961716413497,-0.1593275815248489,0.215311586856842,walking,2026-03-04_14-07-41
1772633268089497600,6.13949755859375,0.3948510392893105,1.0514537572592495,1.712289655819535,-0.0758054703474044,-0.1634251177310943,0.2273485511541366,walking,2026-03-04_14-07-41
1772633268099446500,6.149446533203125,0.3803194963181391,1.0023018960773944,1.399347741997242,-0.1481997817754745,-0.1463289558887481,0.249143049120903,walking,2026-03-04_14-07-41
1772633268109395500,6.1593955078125,0.2416346637273207,0.9695984808713196,1.064795469391346,-0.1999186426401138,-0.1232540011405944,0.2531654834747314,walking,2026-03-04_14-07-41
1772633268119344400,6.169344482421875,0.0034380481572821,0.9015273996859788,0.8075725201815366,-0.254815012216568,-0.1351690143346786,0.2251177281141281,walking,2026-03-04_14-07-41
1772633268129293600,6.17929345703125,-0.2718561624571681,0.7583426253274083,0.6598182459503412,-0.3171774446964264,-0.1743076294660568,0.1651521325111389,walking,2026-03-04_14-07-41
1772633268139242500,6.189242431640625,-0.4501174012960865,0.6482753999337554,0.5010153389602899,-0.3796338140964508,-0.2030061483383178,0.0968734994530677,walking,2026-03-04_14-07-41
1772633268149191400,6.19919140625,-0.5141716845881193,0.6363654741704463,0.2590659467279911,-0.4292008280754089,-0.1780688464641571,0.0393449589610099,walking,2026-03-04_14-07-41
1772633268159140400,6.209140380859375,-0.5044551772158593,0.6891647519439459,0.0242278478056192,-0.4615635871887207,-0.1289389729499817,-0.0039963773451745,walking,2026-03-04_14-07-41
1772633268169089500,6.219089599609375,-0.4039479534585029,0.7528764688760041,-0.1725830105394125,-0.4669210612773895,-0.0894885063171386,-0.0253171138465404,walking,2026-03-04_14-07-41
1772633268179038500,6.22903857421875,-0.2304295617651194,0.7871563396185636,-0.3313941008359193,-0.4346026480197906,-0.046449527144432,-0.0241409968584775,walking,2026-03-04_14-07-41
1772633268188987400,6.2389873046875,-0.0179613347567617,0.7918599872648715,-0.4844710313946008,-0.3599960505962372,0.0006636581383645,-0.0007762855384498,walking,2026-03-04_14-07-41
1772633268198936600,6.2489365234375,0.1266708619311451,0.8108452582418918,-0.5873848779022693,-0.2521143853664398,0.0681957677006721,0.0440113954246044,walking,2026-03-04_14-07-41
1772633268208885500,6.258885498046875,0.2271418818639591,0.7960606538251042,-0.5926981818795204,-0.1359137296676635,0.1298314481973648,0.0923384428024292,walking,2026-03-04_14-07-41
1772633268218834400,6.26883447265625,0.3163870493074879,0.6867050838321447,-0.2982546323001384,-0.0553846023976802,0.142758309841156,0.1355105489492416,walking,2026-03-04_14-07-41
1772633268228783400,6.278783447265625,0.3628488311551511,0.4880389530092477,0.2380553074032068,-0.0298595316708087,0.1100208759307861,0.1621893048286438,walking,2026-03-04_14-07-41
1772633268238733600,6.288733642578125,0.3162246618200093,0.2400453121766448,0.7789543284624815,-0.0471677146852016,0.0727315619587898,0.1733925193548202,walking,2026-03-04_14-07-41
1772633268248682500,6.2986826171875,0.2461424965405836,0.014313772034645,1.1605343097031116,-0.0859031230211258,0.0491290315985679,0.1699575781822204,walking,2026-03-04_14-07-41
1772633268258631400,6.30863134765625,0.1747166250346228,-0.1657619323477148,1.375063195568323,-0.1438843607902526,0.0210997108370065,0.1459587812423706,walking,2026-03-04_14-07-41
1772633268268580400,6.318580322265625,0.1058510324707254,-0.3055032882541418,1.5150164406597613,-0.1990741193294525,-0.0197822079062461,0.1206289306282997,walking,2026-03-04_14-07-41
1772633268278529300,6.328529296875,0.144708476794511,-0.3890744286492467,1.4797674326241017,-0.2448263764381408,-0.0510412044823169,0.1135080531239509,walking,2026-03-04_14-07-41
1772633268288478500,6.338478515625,0.2037711258117109,-0.3984384693220257,1.277586571678519,-0.2663186192512512,-0.0715422183275222,0.1111972332000732,walking,2026-03-04_14-07-41
1772633268298427400,6.348427490234375,0.1835940147016197,-0.4096986990049481,0.9344044178932904,-0.2548418641090393,-0.0664091408252716,0.1059262380003929,walking,2026-03-04_14-07-41
1772633268308376600,6.35837646484375,0.1679764300594106,-0.4212205022335052,0.5700397753477097,-0.2251550555229187,-0.0539418160915374,0.0985980182886123,walking,2026-03-04_14-07-41
1772633268318325500,6.368325439453125,0.1001786128574982,-0.4402843914046883,0.349265273091197,-0.187559500336647,-0.0518307946622371,0.0834990963339805,walking,2026-03-04_14-07-41
1772633268328274400,6.3782744140625,-0.0029747414944693,-0.5142714186355472,0.1570113473981619,-0.143331840634346,-0.0460370890796184,0.061363436281681,walking,2026-03-04_14-07-41
1772633268338223400,6.388223388671875,-0.0821809281457215,-0.5234393522143364,0.0185620771288871,-0.097750723361969,-0.0272078197449445,0.0370248258113861,walking,2026-03-04_14-07-41
1772633268348172500,6.398172607421875,-0.1341592449251562,-0.552659016957879,-0.0381441449552774,-0.0626827627420425,-0.0077025615610182,0.0094467271119356,walking,2026-03-04_14-07-41
1772633268358121500,6.40812158203125,-0.191303602698259,-0.6106745680749416,-0.0246861129671335,-0.0387084521353244,0.0004764751065522,-0.0265388302505016,walking,2026-03-04_14-07-41
1772633268368070400,6.4180703125,-0.2124243148013949,-0.6714286042451858,-0.0297387201815843,-0.0118595287203788,0.0241581015288829,-0.0596728138625621,walking,2026-03-04_14-07-41
1772633268378019600,6.42801953125,-0.183680085549876,-0.724090519374609,-0.1079436573684215,0.0226360913366079,0.0446446761488914,-0.0881239250302314,walking,2026-03-04_14-07-41
1772633268387968500,6.437968505859375,-0.1231145211564376,-0.7504296602457762,-0.0995832407802343,0.0574430748820304,0.0430116280913353,-0.1159550249576568,walking,2026-03-04_14-07-41
1772633268397917400,6.44791748046875,-0.0270301918752491,-0.7651406149044633,-0.0400754052788019,0.0849737524986267,0.024585023522377,-0.1245606169104576,walking,2026-03-04_14-07-41
1772633268407866400,6.457866455078125,0.0670706354385241,-0.7915843851938843,0.0582405920445919,0.0968748852610588,-0.001941924681887,-0.132365271449089,walking,2026-03-04_14-07-41
1772633268417815600,6.467815673828125,0.1107001895349472,-0.843641027906537,0.1512275032997131,0.1054360643029213,-0.0452654100954532,-0.1417039632797241,walking,2026-03-04_14-07-41
1772633268427765200,6.47776513671875,0.0889165930762887,-0.8617650058791041,0.1141933654129505,0.1205827891826629,-0.0718778446316719,-0.1521454155445099,walking,2026-03-04_14-07-41
1772633268437714700,6.487714599609375,0.0481882768467068,-0.8777218689456582,0.0425303972154855,0.1244245022535324,-0.087953582406044,-0.1749512404203415,walking,2026-03-04_14-07-41
1772633268447663600,6.49766357421875,0.0286275806019082,-0.9003606939941644,-0.0149596687227487,0.1168976128101348,-0.1084450110793113,-0.1967705190181732,walking,2026-03-04_14-07-41
1772633268457612500,6.507612548828125,0.0720260658888146,-0.8627493407413362,-0.0798562115252018,0.1012557968497276,-0.1146629601716995,-0.2065941244363784,walking,2026-03-04_14-07-41
1772633268467561500,6.5175615234375,0.1099439278075471,-0.7518453722625971,-0.1770364828169345,0.0780040100216865,-0.1067222133278846,-0.2156320959329605,walking,2026-03-04_14-07-41
1772633268477510400,6.527510498046875,0.1714183872068301,-0.6448600385323167,-0.2993342442303895,0.0611140578985214,-0.0810867026448249,-0.2046194672584533,walking,2026-03-04_14-07-41
1772633268487459300,6.537459228515625,0.2339731891887262,-0.5520955378562211,-0.4442144243299961,0.0548369847238063,-0.0405118465423584,-0.1830129772424698,walking,2026-03-04_14-07-41
1772633268497408500,6.547408447265625,0.3034442368324845,-0.4347647512003779,-0.5951467440754175,0.0666035041213035,-0.0109151117503643,-0.1505254060029983,walking,2026-03-04_14-07-41
1772633268507357400,6.557357421875,0.399098065741919,-0.3825613934934139,-0.701661829945445,0.1040518060326576,0.0088956104591488,-0.10872283577919,walking,2026-03-04_14-07-41
1772633268517306600,6.567306640625,0.5141231692712753,-0.3793307410091161,-0.7831400897145271,0.1600948721170425,0.0077182864770293,-0.0537346564233303,walking,2026-03-04_14-07-41
1772633268527255600,6.577255615234375,0.7030414477355778,-0.4531277986258268,-0.7925561528354883,0.2346585988998413,-0.0232944916933774,0.0059276092797517,walking,2026-03-04_14-07-41
1772633268537204500,6.58720458984375,0.7744304212972521,-0.5249573555618524,-0.720268915259838,0.3034269511699676,-0.0883371978998184,0.0538338534533977,walking,2026-03-04_14-07-41
1772633268547153400,6.5971533203125,0.6827320154827088,-0.602176788842678,-0.5967278757870197,0.353901594877243,-0.1698293983936309,0.0826034471392631,walking,2026-03-04_14-07-41
1772633268557102300,6.607102294921875,0.4942124174797907,-0.7124041732341051,-0.4535311187297105,0.3665176033973694,-0.2458046674728393,0.0830883309245109,walking,2026-03-04_14-07-41
1772633268567051500,6.617051513671875,0.1883973598627373,-0.7917945208132267,-0.3399532548666,0.3410823047161102,-0.2977701425552368,0.0497737824916839,walking,2026-03-04_14-07-41
1772633268577000400,6.62700048828125,-0.0869066780259832,-0.8236644078046083,-0.3741618139386177,0.2824841141700744,-0.3102264702320099,0.0013192459009587,walking,2026-03-04_14-07-41
1772633268586949400,6.636949462890625,-0.2606475898962467,-0.7922662299782037,-0.4784820201128721,0.1947811841964721,-0.2913270592689514,-0.0504707135260105,walking,2026-03-04_14-07-41
