time,seconds_elapsed,acc_x,acc_y,acc_z,gyr_x,gyr_y,gyr_z,activity,session
1772632919369658400,0.074658447265625,-0.3880665302483365,-0.5300732372708619,0.5541863726556301,-0.1644849479198455,0.0617376901209354,0.1158578693866729,walking,2026-03-04_14-01-59
1772632919379607600,0.084607666015625,-0.4374724757891148,-0.6398728977695107,0.6237877321481704,-0.1684557050466537,0.0330706872045993,0.1194916069507598,walking,2026-03-04_14-01-59
1772632919389556700,0.094556640625,-0.4246115694439038,-0.7498446999646723,0.590455371388793,-0.1589410305023193,0.0191926881670951,0.1268501877784729,walking,2026-03-04_14-01-59
1772632919399505700,0.104505615234375,-0.4118513469941914,-0.8257355149902403,0.5474848291903733,-0.1441939324140548,0.0223011691123247,0.131383404135704,walking,2026-03-04_14-01-59
1772632919409454600,0.11445458984375,-0.4143521143013611,-0.905762260776758,0.583140664461255,-0.1367597132921219,0.0247872304171323,0.1302827149629593,walking,2026-03-04_14-01-59
1772632919419403500,0.124403564453125,-0.4027765715915709,-1.0197393530905243,0.6899293065756559,-0.1502963602542877,0.0061555709689855,0.1149744167923927,walking,2026-03-04_14-01-59
1772632919429352400,0.1343525390625,-0.4237707712382078,-1.110603865364194,0.7532365343600511,-0.1776837706565857,-0.0054211895912885,0.0969501435756683,walking,2026-03-04_14-01-59
1772632919439301400,0.14430126953125,-0.4095495728578418,-1.1180411757580937,0.7646937479197978,-0.219678908586502,-0.0257558170706033,0.0819061845541,walking,2026-03-04_14-01-59
1772632919449250600,0.15425048828125,-0.3949731678316369,-1.071953232191503,0.6679080289036036,-0.261333703994751,-0.0626635029911995,0.0687682777643203,walking,2026-03-04_14-01-59
1772632919459199700,0.16419970703125,-0.3742660414980724,-1.0147555733285845,0.3787041335433721,-0.2797368466854095,-0.0643378496170044,0.0642745047807693,walking,2026-03-04_14-01-59
1772632919469148700,0.174148681640625,-0.3569953193539753,-0.9598243980929256,-0.0740904876053333,-0.255821943283081,-0.013292777352035,0.0637605115771293,walking,2026-03-04_14-01-59
1772632919479097600,0.18409765625,-0.3282351253483444,-0.8302636599391698,-0.4578185867905616,-0.2085738182067871,0.0614370815455913,0.0778321176767349,walking,2026-03-04_14-01-59
1772632919489046500,0.194046630859375,-0.2936314294788986,-0.7754083264186978,-0.5711316622376441,-0.1708267033100128,0.1170281767845153,0.1037217676639556,walking,2026-03-04_14-01-59
1772632919498995500,0.203995361328125,-0.2210691012889146,-0.8225853803962468,-0.4425947141736746,-0.150432288646698,0.1406523585319519,0.1313786059617996,walking,2026-03-04_14-01-59
1772632919508944400,0.2139443359375,-0.2232110086884349,-0.8917387038603425,-0.3997252942621708,-0.1233122497797012,0.1460841298103332,0.1466553062200546,walking,2026-03-04_14-01-59
1772632919518893600,0.2238935546875,-0.2991325841784477,-0.9435320194616912,-0.5081950213313102,-0.0667859762907028,0.1824569702148437,0.1466286331415176,walking,2026-03-04_14-01-59
1772632919528842800,0.2338427734375,-0.3440494746716693,-0.9826543617993592,-0.5521463912606239,-0.0220331512391567,0.2127618789672851,0.1471226513385772,walking,2026-03-04_14-01-59
1772632919538791700,0.243791748046875,-0.3032353433221578,-1.0714658870659768,-0.3660597560256719,0.0034373146481812,0.2129331082105636,0.154413416981697,walking,2026-03-04_14-01-59
1772632919548740600,0.25374072265625,-0.249231950455904,-1.1732407926715909,-0.1610603305280208,0.0142753142863512,0.1972603946924209,0.1647446155548095,walking,2026-03-04_14-01-59
1772632919558689500,0.263689453125,-0.2695696589551866,-1.2110142046183348,-0.022805121526122,0.0165230650454759,0.1720537096261978,0.1681355237960815,walking,2026-03-04_14-01-59
1772632919568638500,0.273638427734375,-0.30286526790075,-1.2411790412575006,0.0920785642385482,0.0144151728600263,0.1366437971591949,0.161710113286972,walking,2026-03-04_14-01-59
1772632919578587600,0.283587646484375,-0.3265081919578835,-1.264487143869698,0.1349047295302152,0.0036163495387881,0.1029380783438682,0.1546265631914138,walking,2026-03-04_14-01-59
1772632919588536600,0.29353662109375,-0.3707865288192406,-1.2349379549108446,0.1180681610196828,-0.0123114837333559,0.0740832611918449,0.149500235915184,walking,2026-03-04_14-01-59
1772632919598485500,0.303485595703125,-0.4096471880134195,-1.179137303364277,-0.0378735113203525,-0.0142496358603239,0.0732289627194404,0.1555714607238769,walking,2026-03-04_14-01-59
1772632919608434700,0.3134345703125,-0.3949644000032916,-1.103302602440119,-0.3539829492628574,0.0057688122615218,0.0993314087390899,0.1808009147644043,walking,2026-03-04_14-01-59
1772632919618383600,0.323383544921875,-0.3734664520855992,-1.0747967850543558,-0.6426280416965484,0.0416076630353927,0.1238257884979248,0.2165228724479675,walking,2026-03-04_14-01-59
1772632919628332500,0.33333251953125,-0.4309596963616088,-1.1264666204065084,-0.789212687626481,0.072558119893074,0.1334166228771209,0.2462504208087921,walking,2026-03-04_14-01-59
1772632919638281500,0.343281494140625,-0.5631617062717675,-1.2388976523220538,-0.8432359542369842,0.0922637730836868,0.1308537125587463,0.2510658800601959,walking,2026-03-04_14-01-59
1772632919648230700,0.353230712890625,-0.7518094241663813,-1.3902550656117498,-0.85868603682518,0.0991528406739234,0.1353437900543213,0.2196485698223114,walking,2026-03-04_14-01-59
1772632919658179600,0.3631796875,-0.8977489040605723,-1.4810713548295198,-0.9277402838289736,0.1048022285103797,0.1559500694274902,0.1730951070785522,walking,2026-03-04_14-01-59
1772632919668128500,0.37312841796875,-0.8900379643570632,-1.461323428916931,-0.9805588508248329,0.1107336208224296,0.1782356649637222,0.133341297507286,walking,2026-03-04_14-01-59
1772632919678077400,0.383077392578125,-0.735449094865471,-1.3364635619305074,-0.9777677588015794,0.1185534596443176,0.1737658232450485,0.1197558268904686,walking,2026-03-04_14-01-59
1772632919688026600,0.393026611328125,-0.524042944130674,-1.1940762215599416,-0.9136544753313064,0.1251762062311172,0.1443647891283035,0.1186263784766197,walking,2026-03-04_14-01-59
1772632919697975600,0.4029755859375,-0.4388814292715862,-1.0442426568366587,-0.828847947922349,0.1198474764823913,0.0815905481576919,0.1050744876265525,walking,2026-03-04_14-01-59
1772632919707924500,0.412924560546875,-0.5076201440528035,-0.8411036183834075,-0.7429986334621906,0.0853781774640083,-0.008534281514585,0.0648426488041877,walking,2026-03-04_14-01-59
1772632919717873700,0.422873779296875,-0.6660987875245511,-0.6321880423553288,-0.8070528802216053,0.0356858894228935,-0.069000594317913,0.0123578626662492,walking,2026-03-04_14-01-59
1772632919727823600,0.43282373046875,-0.8109560251399874,-0.3098873485572636,-1.058899981611967,-0.0092554856091737,-0.0823137313127517,-0.0379098355770111,walking,2026-03-04_14-01-59
1772632919737771500,0.442771484375,-0.9072045685395598,0.0230618727661669,-1.3736129967600106,-0.0383889302611351,-0.0371829308569431,-0.0857140272855758,walking,2026-03-04_14-01-59
1772632919747721700,0.4527216796875,-0.7892067693423479,0.2588568340219557,-1.6384756470680235,-0.0455637536942958,0.0393925383687019,-0.1158516928553581,walking,2026-03-04_14-01-59
1772632919757670700,0.462670654296875,-0.4842511050336062,0.474734504147619,-1.8433336182683704,-0.0163334459066391,0.1153975576162338,-0.1097725629806518,walking,2026-03-04_14-01-59
1772632919767619600,0.47261962890625,-0.1927282652065158,0.7496544380895793,-1.8993699782669544,0.0488945618271827,0.1718504428863525,-0.0654274672269821,walking,2026-03-04_14-01-59
1772632919777568500,0.482568603515625,0.0588548514854162,0.963745663189888,-1.777636280477047,0.1368340402841568,0.1877639591693878,0.0017086232546716,walking,2026-03-04_14-01-59
1772632919787517400,0.492517333984375,0.2807322734825312,1.036143083141744,-1.5041080931544304,0.2238781154155731,0.1694723069667816,0.0861049965023994,walking,2026-03-04_14-01-59
1772632919797466600,0.502466552734375,0.3451088109988719,0.9825514859467744,-1.154036179855466,0.2880813777446747,0.1169423758983612,0.1709145903587341,walking,2026-03-04_14-01-59
1772632919807415600,0.51241552734375,0.2054215964324772,0.8193376306466758,-0.7469096694260835,0.3141795694828033,0.0667271390557289,0.2307020276784896,walking,2026-03-04_14-01-59
1772632919817364500,0.522364501953125,-0.1407206492673605,0.5003747029691934,-0.444123238915205,0.3068776428699493,0.0682668015360832,0.2439128756523132,walking,2026-03-04_14-01-59
1772632919827313700,0.532313720703125,-0.5649252818781882,0.1871630322948098,-0.3075619743496179,0.2867023348808288,0.1372154951095581,0.2042189985513687,walking,2026-03-04_14-01-59
1772632919837262600,0.5422626953125,-0.8455939155399799,-0.0008440496087074,-0.1676227577835321,0.2733128666877746,0.2124602347612381,0.1367930769920349,walking,2026-03-04_14-01-59
1772632919847211500,0.55221142578125,-0.8716150034379213,-0.0869008693397045,0.0215466458976268,0.2762974798679352,0.2624296545982361,0.0762839317321777,walking,2026-03-04_14-01-59
1772632919857160400,0.562160400390625,-0.7377875477503985,-0.0747859225235879,0.2436988662481307,0.3058422803878784,0.2892598211765289,0.0305379312485456,walking,2026-03-04_14-01-59
1772632919867109600,0.572109619140625,-0.5283616110473871,-0.0014075287103652,0.5340922636538744,0.3462730646133423,0.269494354724884,-0.0037734366487711,walking,2026-03-04_14-01-59
1772632919877059000,0.58205908203125,-0.2784478888723999,0.1080178916484117,0.8319464984595775,0.3950166702270508,0.2148682624101638,-0.0272565688937902,walking,2026-03-04_14-01-59
1772632919887008000,0.592008056640625,-0.079877108182758,0.2831017790928483,1.124527761298418,0.4334484934806824,0.1512381583452224,-0.0513030514121055,walking,2026-03-04_14-01-59
1772632919896957000,0.60195703125,0.0331061507880687,0.4520866190098225,1.453173440209031,0.4366292357444763,0.0659557059407234,-0.077870488166809,walking,2026-03-04_14-01-59
1772632919906905900,0.61190576171875,0.0916594620436429,0.5965937280133367,1.7816957850009203,0.3971332311630249,-0.0303521882742643,-0.111740306019783,walking,2026-03-04_14-01-59
1772632919916854800,0.621854736328125,0.2166246160354465,0.7318044547528028,1.964917678454518,0.322918564081192,-0.1105175763368606,-0.1388909220695495,walking,2026-03-04_14-01-59
1772632919926804000,0.631803955078125,0.3465288338646292,0.899642462722212,1.9624685317367316,0.231722891330719,-0.162193015217781,-0.1417191922664642,walking,2026-03-04_14-01-59
1772632919936753200,0.641753173828125,0.4292196112286299,1.1009564777053893,1.8422446539878845,0.1318689733743667,-0.1984371095895767,-0.1388151347637176,walking,2026-03-04_14-01-59
1772632919946702000,0.6517021484375,0.4544382236372679,1.2368350207038223,1.5847972483724355,0.0432682745158672,-0.1951491683721542,-0.127483382821083,walking,2026-03-04_14-01-59
1772632919956651000,0.661651123046875,0.4062526502043008,1.3098958730004726,1.2408061162918806,-0.0289439186453819,-0.1635215878486633,-0.1184167116880416,walking,2026-03-04_14-01-59
1772632919966600000,0.671599853515625,0.3682527360253035,1.3775040128491818,1.0326391666740178,-0.0907766595482826,-0.1668438762426376,-0.1099505200982093,walking,2026-03-04_14-01-59
1772632919976548900,0.681548828125,0.3388536961268633,1.3005128353662787,0.8344289629250764,-0.1397652179002761,-0.1881648302078247,-0.110776238143444,walking,2026-03-04_14-01-59
1772632919986497800,0.691497802734375,0.2843792516827583,1.2288127500288188,0.5949561899393797,-0.1757085770368576,-0.2231981754302978,-0.1216243579983711,walking,2026-03-04_14-01-59
1772632919996446700,0.70144677734375,0.1759090131569653,1.1886217555463314,0.3478969073474407,-0.2021549195051193,-0.2691686451435089,-0.1406887173652649,walking,2026-03-04_14-01-59
1772632920006396200,0.711396240234375,0.05889912901856,1.1647048733860257,0.1102612866610288,-0.2338356226682663,-0.3129299879074096,-0.1644446402788162,walking,2026-03-04_14-01-59
1772632920016345000,0.721344970703125,-0.049343803557381,1.1304561284340915,-0.1580167250484228,-0.2611571252346039,-0.3327130675315857,-0.1978774666786193,walking,2026-03-04_14-01-59
1772632920026294000,0.7312939453125,-0.1287460973026231,1.1076052680701016,-0.5100298355430364,-0.2761224806308746,-0.2965801060199737,-0.2346727699041366,walking,2026-03-04_14-01-59
1772632920036243000,0.741242919921875,-0.195823929666914,1.0926365392580628,-0.8979133008420467,-0.2647910416126251,-0.1862761080265045,-0.2653335332870483,walking,2026-03-04_14-01-59
1772632920046191900,0.75119189453125,-0.167203363327682,1.1406911067225038,-1.146004849091172,-0.2279667109251022,-0.0327968038618564,-0.2661817371845245,walking,2026-03-04_14-01-59
1772632920056140800,0.761140869140625,0.0464760295687243,1.1490627753570677,-1.2128583711802958,-0.1731300950050354,0.1165844276547432,-0.2247809320688247,walking,2026-03-04_14-01-59
1772632920066090000,0.771090087890625,0.3303828049015254,1.0922514854632317,-1.0359107356905937,-0.1040250658988952,0.2400195449590683,-0.1568599492311477,walking,2026-03-04_14-01-59
1772632920076039000,0.781038818359375,0.5386182897109538,0.9538776185177266,-0.6645885290920734,-0.0314176827669143,0.3296962380409241,-0.0851732194423675,walking,2026-03-04_14-01-59
1772632920085988000,0.790988037109375,0.6192981656439602,0.7511056598111987,-0.1136345624864101,0.021938219666481,0.3621103465557098,-0.0165070686489343,walking,2026-03-04_14-01-59
1772632920095937000,0.80093701171875,0.6356290496546775,0.4785428103893995,0.5316811108589172,0.0465625114738941,0.3329061567783355,0.0326682552695274,walking,2026-03-04_14-01-59
1772632920105886000,0.810885986328125,0.6477485265154391,0.1765187425531446,1.1286036324352025,0.0495785437524318,0.2573554813861847,0.0610916391015052,walking,2026-03-04_14-01-59
1772632920115835000,0.8208349609375,0.6164478177141398,-0.0813435274735093,1.5625404083788397,0.0290758982300758,0.1601768583059311,0.0724742710590362,walking,2026-03-04_14-01-59
1772632920125783800,0.83078369140625,0.4320863988365978,-0.2456900400653481,1.8848820187091824,-0.0246525760740041,0.0537915751338005,0.050416100770235,walking,2026-03-04_14-01-59
1772632920135733000,0.84073291015625,0.2829408163774758,-0.4513672186940908,2.0719500661969183,-0.1018399149179458,-0.0567268468439579,0.0059628211893141,walking,2026-03-04_14-01-59
1772632920145682000,0.850681884765625,0.1723887300763279,-0.5679183992795646,2.078704216632247,-0.1925756782293319,-0.1646128296852111,-0.0483606047928333,walking,2026-03-04_14-01-59
1772632920155631000,0.860631103515625,0.0659268356982618,-0.5873728952035308,1.8573025223881008,-0.2753619253635406,-0.2377171963453292,-0.1053126975893974,walking,2026-03-04_14-01-59
1772632920165580000,0.870580078125,0.0371038421221077,-0.4922716221429407,1.3821382485210896,-0.3257087171077728,-0.2698588669300079,-0.1479032933712005,walking,2026-03-04_14-01-59
1772632920175529000,0.880529052734375,0.0668047875765711,-0.3049089756228029,0.8033966958016157,-0.3364767730236053,-0.2636660933494568,-0.1608203649520874,walking,2026-03-04_14-01-59
1772632920185478000,0.890477783203125,0.1220820728361606,-0.1487026609972119,0.2709539529204368,-0.3063034415245056,-0.2125722616910934,-0.1449838876724243,walking,2026-03-04_14-01-59
1772632920195426800,0.9004267578125,0.168132533936575,-0.0423356052957475,-0.0913140096068382,-0.2544052898883819,-0.1533126980066299,-0.1104042902588844,walking,2026-03-04_14-01-59
1772632920205376000,0.9103759765625,0.1767439296111464,-0.0338762583777308,-0.2517518243223428,-0.2006560266017913,-0.1174399107694625,-0.0778159871697425,walking,2026-03-04_14-01-59
1772632920215325000,0.920324951171875,0.1259754270128905,-0.1827949002131819,-0.2830073788076639,-0.1531624495983123,-0.0926596820354461,-0.0615002177655696,walking,2026-03-04_14-01-59
1772632920225273900,0.93027392578125,-0.0154275054302066,-0.3757262867763638,-0.2883528314888477,-0.1093582436442375,-0.0594063960015773,-0.0739611461758613,walking,2026-03-04_14-01-59
1772632920235223000,0.94022314453125,-0.193823513097316,-0.5856897644221782,-0.2142968306750059,-0.0817780569195747,-0.0221555531024932,-0.1145806387066841,walking,2026-03-04_14-01-59
1772632920245172000,0.950171875,-0.2950675997618586,-0.753534202132374,-0.0078863693356513,-0.0844337567687034,-0.0071731405332684,-0.163910374045372,walking,2026-03-04_14-01-59
1772632920255121000,0.960120849609375,-0.2943200693301856,-0.913336933814734,0.2139507937163114,-0.1047007292509079,-0.0051796194165945,-0.2149219363927841,walking,2026-03-04_14-01-59
1772632920265070000,0.970070068359375,-0.2646113058954477,-1.0617140161193908,0.2349088260710239,-0.109535165131092,0.0256531275808811,-0.2670120298862457,walking,2026-03-04_14-01-59
1772632920275019000,0.98001904296875,-0.2654970026887953,-1.1151340561397374,0.1597773049801588,-0.0963504686951637,0.0654990971088409,-0.3178910911083221,walking,2026-03-04_14-01-59
1772632920284968000,0.989968017578125,-0.1624620140194893,-1.1195726231090724,0.1791015986531972,-0.0726387426257133,0.0682413578033447,-0.3533404171466827,walking,2026-03-04_14-01-59
1772632920294916900,0.999916748046875,0.0708549397502094,-1.1501626994229852,0.218849087151885,-0.0333776101469993,0.0388774052262306,-0.3692471086978912,walking,2026-03-04_14-01-59
1772632920304865800,1.00986572265625,0.2547684687297791,-1.0996505096733569,0.2488654552310705,0.0109800025820732,-0.0234512202441692,-0.3703680336475372,walking,2026-03-04_14-01-59
1772632920314815000,1.01981494140625,0.3240583511203527,-1.038358274973184,0.2581488318830728,0.0460970029234886,-0.1024714112281799,-0.366545021533966,walking,2026-03-04_14-01-59
1772632920324764000,1.029763916015625,0.3311697905607521,-1.0164724602490662,0.2344441311687231,0.0680880546569824,-0.1661571711301803,-0.3584306538105011,walking,2026-03-04_14-01-59
1772632920334713000,1.039713134765625,0.2973996229059994,-1.0420154823064804,0.0723088648855686,0.0889624580740928,-0.1913809776306152,-0.3479552268981933,walking,2026-03-04_14-01-59
1772632920344662000,1.049662109375,0.2423092385206371,-1.0234569123089312,-0.1295849958121776,0.1049110665917396,-0.1817658990621566,-0.3393318951129913,walking,2026-03-04_14-01-59
1772632920354611000,1.05961083984375,0.1965316760774701,-1.0335960290074349,-0.2706020707428455,0.1179420799016952,-0.1663465052843094,-0.3361165821552276,walking,2026-03-04_14-01-59
1772632920364560000,1.069559814453125,0.2554611271690577,-1.073663543240726,-0.333701793256402,0.1204947158694267,-0.1641206443309784,-0.3332632780075073,walking,2026-03-04_14-01-59
1772632920374508800,1.0795087890625,0.3786754919707775,-1.098892092521489,-0.3632014439851045,0.1268496215343475,-0.1742138415575027,-0.3263548612594604,walking,2026-03-04_14-01-59
1772632920384458000,1.0894580078125,0.4696093066209927,-1.080190168530494,-0.430398664945364,0.1279018372297287,-0.1918330490589141,-0.3144257664680481,walking,2026-03-04_14-01-59
1772632920394407000,1.099406982421875,0.5516892586102708,-1.091363304451853,-0.5221674325823784,0.1381208747625351,-0.2011925727128982,-0.3088700175285339,walking,2026-03-04_14-01-59
1772632920404356000,1.109356201171875,0.6507992193229496,-1.109669214862585,-0.7123901447087526,0.1597859561443328,-0.1843792349100113,-0.303334891796112,walking,2026-03-04_14-01-59
1772632920414305000,1.119304931640625,0.7905259621821343,-1.091618009865284,-0.8981453560322522,0.1904186308383941,-0.1410433948040008,-0.2892561852931976,walking,2026-03-04_14-01-59
1772632920424254000,1.12925390625,0.9578164192713796,-1.0507393253795805,-0.9831225638329982,0.2262219041585922,-0.0845218077301979,-0.2608605027198791,walking,2026-03-04_14-01-59
1772632920434203000,1.139202880859375,1.1599784293860196,-1.0487389453426004,-0.9279758461505174,0.2568610906600952,-0.044017132371664,-0.2140680998563766,walking,2026-03-04_14-01-59
1772632920444151800,1.14915185546875,1.3738665331296622,-1.0656329431287943,-0.8014981687039137,0.2836394309997558,-0.0389078594744205,-0.1661815345287323,walking,2026-03-04_14-01-59
1772632920454100700,1.159100830078125,1.5715478906989098,-1.1216565897762776,-0.6313473537474871,0.2973087430000305,-0.0699341744184494,-0.1240841522812843,walking,2026-03-04_14-01-59
1772632920464050200,1.16905029296875,1.6795494157344102,-1.2236492297858,-0.5032417828381062,0.2871527671813965,-0.1371286660432815,-0.0863034799695015,walking,2026-03-04_14-01-59
1772632920473999000,1.1789990234375,1.6008458813756703,-1.2641155340783297,-0.4380570707440376,0.2520337104797363,-0.2177347540855407,-0.0665432289242744,walking,2026-03-04_14-01-59
1772632920483948000,1.188947998046875,1.4199590067408978,-1.2497897793449462,-0.5160983418017625,0.1931991279125213,-0.2722336947917938,-0.0668822452425956,walking,2026-03-04_14-01-59
1772632920493897000,1.19889697265625,1.1823072386372833,-1.1699616248704492,-0.796400553303957,0.1278219372034073,-0.2792816460132599,-0.0754652693867683,walking,2026-03-04_14-01-59
1772632920503846000,1.208845947265625,0.9144504480145872,-0.9511248126782476,-1.1407435675621032,0.0687540844082832,-0.2509187459945678,-0.0846758112311363,walking,2026-03-04_14-01-59
1772632920513794800,1.218794921875,0.65083122189641,-0.6114987439393997,-1.4395897360146044,0.0145795308053493,-0.2121862471103668,-0.0837812572717666,walking,2026-03-04_14-01-59
1772632920523743700,1.22874365234375,0.4902073100242763,-0.2757993471249937,-1.729503825470805,-0.0224405378103256,-0.1613185405731201,-0.0643654763698577,walking,2026-03-04_14-01-59
1772632920533693000,1.23869287109375,0.4036400565531104,0.0651801820494234,-2.001763015770912,-0.0319436788558959,-0.0942303389310836,-0.0316871143877506,walking,2026-03-04_14-01-59
1772632920543642000,1.24864208984375,0.2738312619224191,0.4256264821074902,-2.19511233548522,-0.0116535872220993,-0.0146582815796136,0.0083380658179521,walking,2026-03-04_14-01-59
1772632920553591000,1.258591064453125,0.1845776189114898,0.6965725439824163,-2.2842150987833736,0.0416013821959495,0.0701594054698944,0.0513570718467235,walking,2026-03-04_14-01-59
1772632920563540000,1.2685400390625,0.1494867240469902,0.9397156760439276,-2.2608710480749608,0.1358724981546402,0.1557768434286117,0.0949666053056716,walking,2026-03-04_14-01-59
1772632920573489000,1.278489013671875,0.1952141272054985,1.1246192389741538,-2.0891344252318143,0.2578903138637543,0.2208302617073059,0.1402788460254669,walking,2026-03-04_14-01-59
1772632920583437800,1.288437744140625,0.2474471859309822,1.3229137600056826,-1.7104700391769407,0.3935607969760895,0.253214567899704,0.1897489130496978,walking,2026-03-04_14-01-59
1772632920593387000,1.298386962890625,0.2809586295843124,1.4544262167491018,-1.1470698479741812,0.5121909976005554,0.2503986060619354,0.2335149645805359,walking,2026-03-04_14-01-59
1772632920603336000,1.3083359375,0.22722053659074,1.536635421141237,-0.4896136549800634,0.5942248702049255,0.2254938036203384,0.2690987884998321,walking,2026-03-04_14-01-59
1772632920613285000,1.31828515625,0.054598180421628,1.5287942061215638,0.1519032106041908,0.628434956073761,0.1840780675411224,0.2784806489944458,walking,2026-03-04_14-01-59
1772632920623234000,1.328234130859375,-0.1642453537723049,1.4611848972290753,0.6425982310801744,0.6310579180717468,0.1562211364507675,0.2659544646739959,walking,2026-03-04_14-01-59
1772632920633183000,1.338182861328125,-0.3568260272016748,1.428608031012118,0.9727297646343708,0.6132398843765259,0.1395031809806823,0.243409588932991,walking,2026-03-04_14-01-59
1772632920643132000,1.3481318359375,-0.4772708176922053,1.4491007839426395,1.076906762945652,0.5847432613372803,0.0861145257949829,0.2120873481035232,walking,2026-03-04_14-01-59
1772632920653080800,1.358080810546875,-0.4941196246298029,1.4113903542295096,1.1255313853830098,0.5710046291351318,0.0754975453019142,0.2034257352352142,walking,2026-03-04_14-01-59
1772632920663030000,1.368030029296875,-0.7573876626901328,1.43322867655009,1.2110258950561283,0.5133277177810669,0.0903531908988952,0.1492565125226974,walking,2026-03-04_14-01-59
1772632920672979000,1.37797900390625,-1.1577725899048148,1.3855113782159982,1.5520622689843178,0.3902441561222076,0.0842878371477127,0.0736376419663429,walking,2026-03-04_14-01-59
1772632920682927900,1.387927978515625,-1.26632955686599,1.085327093027532,1.764900133022666,0.237912967801094,0.082546666264534,-0.0026003995444625,walking,2026-03-04_14-01-59
1772632920692877000,1.397876953125,-1.4107286754503845,0.967144219586998,1.7040455590873955,0.0717276558279991,0.1357159614562988,-0.1165252178907394,walking,2026-03-04_14-01-59
1772632920702826000,1.407825927734375,-1.7135215357020497,1.035475559143722,1.6143050824075935,-0.0945766270160675,0.1618841886520385,-0.2592775821685791,walking,2026-03-04_14-01-59
1772632920712775000,1.41777490234375,-1.5204323282286525,0.970178764977306,1.4694693259716034,-0.2207601368427276,0.1656722575426101,-0.3607631027698517,walking,2026-03-04_14-01-59
1772632920722723800,1.427723876953125,-1.0888029524445533,1.16323699279055,1.0887187812924384,-0.2739807367324829,0.1607680469751358,-0.3938281238079071,walking,2026-03-04_14-01-59
1772632920732673000,1.437673095703125,-0.7459255537595599,1.5666355687379836,0.6476689584732055,-0.2613451480865478,0.1687303036451339,-0.3558973670005798,walking,2026-03-04_14-01-59
1772632920742622000,1.4476220703125,-0.3822022047922015,1.785765518657863,0.3654512687385082,-0.2039105892181396,0.1769221872091293,-0.2601945400238037,walking,2026-03-04_14-01-59
1772632920752571000,1.45757080078125,-0.1270785659492015,1.6958301039278507,0.2576420514047146,-0.1420686095952987,0.1562510877847671,-0.1573269218206405,walking,2026-03-04_14-01-59
1772632920762519800,1.467519775390625,-0.1026591410942375,1.435685129791498,0.3562251752316951,-0.1079993173480033,0.1044028028845787,-0.0860490202903747,walking,2026-03-04_14-01-59
1772632920772469000,1.477468994140625,-0.2456306380283087,1.0819282443694769,0.5382534749865532,-0.1152099147439003,0.0428643599152565,-0.0515326634049415,walking,2026-03-04_14-01-59
1772632920782418000,1.48741796875,-0.4351152451384812,0.7312167179927229,0.6777700822263956,-0.1556164473295211,-0.0092821978032588,-0.0416659191250801,walking,2026-03-04_14-01-59
1772632920792367000,1.4973671875,-0.6270763984300196,0.4528716319076716,0.7266139003723859,-0.2145064175128936,-0.036502432078123,-0.0489167384803295,walking,2026-03-04_14-01-59
1772632920802316000,1.50731591796875,-0.7007802978705614,0.2392592763654887,0.6497171231746673,-0.2737710475921631,-0.0270604602992534,-0.0597826987504959,walking,2026-03-04_14-01-59
1772632920812265000,1.517264892578125,-0.6558806142404675,0.1079673305049538,0.5090156900644303,-0.310647189617157,-0.0118214217945933,-0.058086734265089,walking,2026-03-04_14-01-59
1772632920822214000,1.5272138671875,-0.4837383332058787,0.0159008950956165,0.3352922773182392,-0.3074703216552734,-0.0029946404974907,-0.0372315198183059,walking,2026-03-04_14-01-59
1772632920832162800,1.537162841796875,-0.3038903731647879,-0.0166337394148111,0.162024207124114,-0.2659006714820862,-0.0023442553356289,0.0026835782919079,walking,2026-03-04_14-01-59
1772632920842113000,1.547113037109375,-0.1769286385282874,-0.0431559817679226,0.136796242365241,-0.2095753252506256,-0.0270410813391208,0.0503368526697158,walking,2026-03-04_14-01-59
1772632920852061000,1.55706103515625,-0.1081117804769426,-0.1798999094240367,0.2411281389772891,-0.1555333435535431,-0.066567525267601,0.0847881212830543,walking,2026-03-04_14-01-59
1772632920862011000,1.567010986328125,-0.1217038141082972,-0.330823169080168,0.3556201950758695,-0.1097266972064971,-0.10208610445261,0.0958695337176323,walking,2026-03-04_14-01-59
1772632920871959000,1.576958984375,-0.2344538488451391,-0.443700775719434,0.5053565830349922,-0.0942991375923156,-0.1521810740232467,0.082260251045227,walking,2026-03-04_14-01-59
1772632920881908700,1.58690869140625,-0.3382706355419009,-0.5349535566583276,0.6634615708887577,-0.1065147891640663,-0.1873009800910949,0.0567769892513752,walking,2026-03-04_14-01-59
1772632920891857700,1.596857666015625,-0.3321812326256185,-0.5431272185027599,0.6974667163431644,-0.1305301338434219,-0.183936133980751,0.0342198871076107,walking,2026-03-04_14-01-59
1772632920901806600,1.606806640625,-0.2947730007294565,-0.4371604141652583,0.6229390063643455,-0.1593932062387466,-0.1626665294170379,0.0264884643256664,walking,2026-03-04_14-01-59
1772632920911755800,1.616755859375,-0.2083307618774473,-0.3166618111282587,0.5027648129761219,-0.1702956706285476,-0.1228083968162536,0.0249844491481781,walking,2026-03-04_14-01-59
1772632920921704700,1.62670458984375,-0.0331010727541521,-0.1828489684879779,0.3904635449200868,-0.1639389842748642,-0.0969576239585876,0.0468604527413845,walking,2026-03-04_14-01-59
1772632920931653600,1.636653564453125,0.1207281740091741,-0.0578483778566122,0.3460363741725683,-0.1460438668727874,-0.0930869802832603,0.0825321599841117,walking,2026-03-04_14-01-59
1772632920941602800,1.646602783203125,0.126953953188844,0.0173312201596796,0.3397609471648931,-0.1334721446037292,-0.0993075966835022,0.114247478544712,walking,2026-03-04_14-01-59
1772632920951551700,1.6565517578125,0.0872196894979104,0.0302966463252902,0.3656763096660375,-0.135323017835617,-0.0999959632754325,0.1413284838199615,walking,2026-03-04_14-01-59
1772632920961500700,1.666500732421875,-0.0067018357262015,-0.0055034197218716,0.441004814633727,-0.159322902560234,-0.097139187157154,0.1512421071529388,walking,2026-03-04_14-01-59
1772632920971449600,1.67644970703125,-0.132101947069168,-0.0555269491717219,0.4904366618007421,-0.202536940574646,-0.0964302569627761,0.1517670154571533,walking,2026-03-04_14-01-59
1772632920981398500,1.6863984375,-0.2361763617888093,-0.0989404128320515,0.4342892426431178,-0.2428942173719406,-0.0586629025638103,0.1475214064121246,walking,2026-03-04_14-01-59
1772632920991347700,1.69634765625,-0.231678137054108,-0.0891109466046094,0.2956348051905632,-0.2658152878284454,0.0013702802825719,0.1582295894622802,walking,2026-03-04_14-01-59
1772632921001296600,1.706296630859375,-0.1399609169412404,-0.0365117214478552,0.1720890895426273,-0.2606665790081024,0.0392026118934154,0.18815578520298,walking,2026-03-04_14-01-59
1772632921011245800,1.716245849609375,0.039321993095614,-0.0289689048528671,0.0718055915385484,-0.2143569141626358,0.0683952644467353,0.2357747256755828,walking,2026-03-04_14-01-59
1772632921021194800,1.72619482421875,0.1367567871376871,-0.0076265493556857,0.0004079962790012,-0.1459506899118423,0.0911666229367256,0.2866964936256408,walking,2026-03-04_14-01-59
1772632921031143700,1.736143798828125,0.1501794920841231,-0.0264377789400517,0.0854892489761114,-0.0802896097302436,0.0867134034633636,0.3375807106494903,walking,2026-03-04_14-01-59
1772632921041092600,1.746092529296875,0.1239860067613422,-0.1325754097998142,0.2721820334106684,-0.0359581038355827,0.0675069540739059,0.3777148127555847,walking,2026-03-04_14-01-59
1772632921051041500,1.75604150390625,0.0537360106343403,-0.3090440296009182,0.5241705890983342,-0.0219280794262886,0.0468103438615798,0.3962409496307373,walking,2026-03-04_14-01-59
1772632921060990700,1.76599072265625,0.0066314739037305,-0.4962681444332003,0.735811936828494,-0.0466653816401958,0.0320543013513088,0.3985759913921356,walking,2026-03-04_14-01-59
1772632921070940000,1.77593994140625,-0.0336807358056306,-0.6551753885805607,0.8811042048603296,-0.097949668765068,0.033024039119482,0.3939215540885925,walking,2026-03-04_14-01-59
1772632921080888800,1.785888916015625,-0.0721677393818274,-0.752224142447114,0.8589268598437308,-0.152605727314949,0.0368312932550907,0.3886404931545257,walking,2026-03-04_14-01-59
1772632921090837800,1.795837646484375,-0.0235244122439995,-0.7817921822369098,0.6941203285247087,-0.1950487643480301,0.01647868193686,0.3849039375782013,walking,2026-03-04_14-01-59
1772632921100786700,1.80578662109375,-0.0095221173113211,-0.7390744457557797,0.4332523008108139,-0.2078825384378433,-0.0254027228802442,0.3863995671272278,walking,2026-03-04_14-01-59
1772632921110735600,1.815735595703125,-0.0123742918720468,-0.686381112574786,0.002465513330698,-0.1835603564977646,-0.0604989454150199,0.3895632028579712,walking,2026-03-04_14-01-59
1772632921120684500,1.8256845703125,-0.1004684261169284,-0.6314091669373214,-0.5126929172724485,-0.1327192783355713,-0.0579172782599926,0.396748423576355,walking,2026-03-04_14-01-59
1772632921130633500,1.835633544921875,-0.2265796083386987,-0.5572451757043599,-0.9344558558195828,-0.0715797543525695,-0.0378415659070014,0.3969501256942749,walking,2026-03-04_14-01-59
1772632921140583000,1.8455830078125,-0.3581258577538654,-0.5157544968001544,-1.1719015068918466,-0.0169857516884803,-0.0057001444511115,0.3970308005809784,walking,2026-03-04_14-01-59
1772632921150531800,1.85553173828125,-0.3826755213923752,-0.5082064195081591,-1.289794895866513,0.0278975330293178,0.0158300586044788,0.4073175489902496,walking,2026-03-04_14-01-59
1772632921160480800,1.865480712890625,-0.4108173643039539,-0.5010359433569014,-1.3855752372324466,0.0673011317849159,0.0544024817645549,0.4289371073246002,walking,2026-03-04_14-01-59
1772632921170429700,1.8754296875,-0.4862041753301396,-0.4530265302084386,-1.4329536590009926,0.1014017984271049,0.1078093945980072,0.4655777513980865,walking,2026-03-04_14-01-59
1772632921180378600,1.885378662109375,-0.5520049004307016,-0.533387914776802,-1.3751725011616944,0.1191525682806968,0.1382775604724884,0.5037198066711426,walking,2026-03-04_14-01-59
1772632921190327600,1.89532763671875,-0.629157004096359,-0.7378507491797208,-1.3234703709751368,0.1331340670585632,0.1657227277755737,0.5326769351959229,walking,2026-03-04_14-01-59
1772632921200276700,1.90527685546875,-0.7491672390945255,-0.9403511974684894,-1.264392159062624,0.1504163891077041,0.1834790855646133,0.5400679707527161,walking,2026-03-04_14-01-59
1772632921210225700,1.9152255859375,-0.8538640234962105,-1.143168895012885,-1.156846561101079,0.1627144664525985,0.1748226433992386,0.5298264026641846,walking,2026-03-04_14-01-59
1772632921220174800,1.9251748046875,-0.8688751301452518,-1.3628246223725378,-1.0577543187081813,0.1652412712574005,0.146437332034111,0.50760817527771,walking,2026-03-04_14-01-59
1772632921230123800,1.935123779296875,-0.8926668515559285,-1.5012375061541794,-0.9402560665309428,0.1604964137077331,0.1000267341732978,0.4729335904121399,walking,2026-03-04_14-01-59
1772632921240072700,1.94507275390625,-0.9862272518500684,-1.598505017337948,-0.8968658376157284,0.1526877582073211,0.0802170783281326,0.4165403544902801,walking,2026-03-04_14-01-59
1772632921250021600,1.955021728515625,-1.0422712836984545,-1.67182905061543,-0.8793716819792985,0.1315318197011947,0.06077741086483,0.334321528673172,walking,2026-03-04_14-01-59
1772632921259970600,1.964970458984375,-1.0288424778047949,-1.669274543827027,-0.8625245920747519,0.111763447523117,0.0047405110672116,0.2293109595775604,walking,2026-03-04_14-01-59
1772632921269919700,1.974919677734375,-0.9203158329166472,-1.4798453201659023,-0.8875742776572704,0.0823861807584762,-0.0765456408262252,0.125189796090126,walking,2026-03-04_14-01-59
1772632921279868700,1.98486865234375,-0.7985637226872145,-1.075915267690271,-0.9804390238374472,0.0549236610531806,-0.1563248932361602,0.0433415360748767,walking,2026-03-04_14-01-59
1772632921289817900,1.99481787109375,-0.7292009942561387,-0.5357800706103444,-1.207557342162728,0.032455675303936,-0.1916654407978058,-0.0109004070982337,walking,2026-03-04_14-01-59
1772632921299766800,2.004766845703125,-0.7945509799145162,-0.0327284035168588,-1.5286831469625233,0.0189281478524208,-0.141754612326622,-0.0439225398004055,walking,2026-03-04_14-01-59
1772632921309715700,2.0147158203125,-0.7149858602903783,0.3940153921827674,-1.840177200064063,0.0364965945482254,-0.0343136005103588,-0.0580023303627967,walking,2026-03-04_14-01-59
1772632921319664600,2.02466455078125,-0.4382004612701013,0.7619403575584291,-2.022474379888177,0.0868649631738662,0.103550799190998,-0.0326170809566974,walking,2026-03-04_14-01-59
1772632921329613600,2.034613525390625,-0.1655012355849146,1.1129773164972665,-2.0279630404323337,0.165441483259201,0.2579535543918609,0.0405124649405479,walking,2026-03-04_14-01-59
1772632921339562800,2.044562744140625,0.0742618621168658,1.3603611548684538,-1.7180279072105884,0.2530056834220886,0.3796770572662353,0.1511188745498657,walking,2026-03-04_14-01-59
1772632921349511700,2.05451171875,0.2257703377824276,1.4096058089002963,-1.1727414648473262,0.3300087749958038,0.4224734902381897,0.2565774023532867,walking,2026-03-04_14-01-59
1772632921359460600,2.064460693359375,0.1769590336665511,1.3218003919363022,-0.4657137239545583,0.3783741593360901,0.3690075874328613,0.32354336977005,walking,2026-03-04_14-01-59
1772632921369409800,2.074409912109375,0.0502583245864138,1.0697165591806173,0.1237386078715324,0.4043552577495575,0.2817007005214691,0.3489671349525451,walking,2026-03-04_14-01-59
1772632921379358700,2.084358642578125,-0.0566419612089172,0.765227854796499,0.4833154316186904,0.4127897620201111,0.2067942321300506,0.3524481356143951,walking,2026-03-04_14-01-59
1772632921389307600,2.0943076171875,-0.2400385171096772,0.6040425827145576,0.6909849531084299,0.4144992530345917,0.1812806129455566,0.3330333530902862,walking,2026-03-04_14-01-59
1772632921399256800,2.1042568359375,-0.4357429485827684,0.5373837064146996,0.8830383877933025,0.4024825394153595,0.2001581639051437,0.2919721901416778,walking,2026-03-04_14-01-59
1772632921409205800,2.114205810546875,-0.473229360281676,0.4043476933658123,1.1139876625835894,0.3719778656959533,0.2233822047710418,0.2349389046430587,walking,2026-03-04_14-01-59
1772632921419154700,2.12415478515625,-0.381407693413645,0.3377461002111435,1.3360896140515803,0.3395855724811554,0.2186420410871505,0.1677817106246948,walking,2026-03-04_14-01-59
1772632921429103600,2.134103515625,-0.2517412298630923,0.421984618473798,1.5148147806078194,0.3094922602176666,0.1925877034664154,0.0977556183934211,walking,2026-03-04_14-01-59
1772632921439052500,2.144052490234375,-0.0964497650600969,0.5834750109821558,1.5859528481483458,0.2808808386325836,0.1499688774347305,0.0417597293853759,walking,2026-03-04_14-01-59
1772632921449001700,2.154001708984375,0.0733549398723989,0.7896095779895782,1.6307137808948755,0.234928160905838,0.0513649620115757,-0.0012848797487094,walking,2026-03-04_14-01-59
1772632921458950700,2.16395068359375,0.2889670178644359,0.9807166717350484,1.7749194227337837,0.167326733469963,-0.0480332635343074,-0.0238455813378095,walking,2026-03-04_14-01-59
1772632921468899800,2.17389990234375,0.5081477481234818,1.0969639009378849,1.7319588174074887,0.0829560756683349,-0.119539774954319,-0.0213704761117696,walking,2026-03-04_14-01-59
1772632921478848800,2.183848876953125,0.711764048699662,1.2308949631303547,1.5980425143927337,-0.0003342861309647,-0.1648001819849014,0.0074265515431761,walking,2026-03-04_14-01-59
1772632921488797700,2.193797607421875,0.859933333472535,1.36592580325827,1.3857692984998224,-0.0712355300784111,-0.1920480281114578,0.0549778304994106,walking,2026-03-04_14-01-59
1772632921498746600,2.20374658203125,0.9444859591856598,1.4294969426758586,1.1172703375160693,-0.1166887655854225,-0.2031696587800979,0.1113673374056816,walking,2026-03-04_14-01-59
1772632921508695600,2.213695556640625,0.9032473553463816,1.43043656161353,0.8452432024061679,-0.1476965993642807,-0.205999344587326,0.1578323692083358,walking,2026-03-04_14-01-59
1772632921518644700,2.223644775390625,0.7250712740402668,1.3185323300510643,0.5986936229020356,-0.1651757210493087,-0.2046070545911789,0.1758414655923843,walking,2026-03-04_14-01-59
1772632921528593700,2.23359375,0.4142650205397978,1.1418204030133785,0.3421060489863157,-0.1755223125219345,-0.1878992766141891,0.1562608480453491,walking,2026-03-04_14-01-59
1772632921538542800,2.24354296875,0.0878871769633144,0.968785557053238,0.2122463278859853,-0.2036500871181488,-0.1860017627477646,0.095418281853199,walking,2026-03-04_14-01-59
1772632921548491800,2.25349169921875,-0.2037764961065724,0.8025134832262992,0.1626777025967836,-0.2572319209575653,-0.191709816455841,0.0076242103241384,walking,2026-03-04_14-01-59
1772632921558440700,2.263440673828125,-0.3885662964640185,0.666233227559179,0.068908116531372,-0.3280251324176788,-0.1751563996076584,-0.0971530675888061,walking,2026-03-04_14-01-59
1772632921568389600,2.2733896484375,-0.3621378698742017,0.662037967826426,-0.2005640733987093,-0.3810723423957824,-0.1079766526818275,-0.1772140711545944,walking,2026-03-04_14-01-59
1772632921578338600,2.283338623046875,-0.1782637595895677,0.7614721555247902,-0.5627578016459942,-0.3863107860088348,0.0110024642199277,-0.2100228816270828,walking,2026-03-04_14-01-59
1772632921588287500,2.29328759765625,0.110045780746825,0.9434129231266676,-0.8558744865357876,-0.3368927538394928,0.1606477200984954,-0.1949540823698043,walking,2026-03-04_14-01-59
1772632921598236700,2.303236572265625,0.4257430211592465,1.0591801137275991,-0.8888193092823028,-0.2448113113641739,0.284981369972229,-0.133227601647377,walking,2026-03-04_14-01-59
1772632921608185900,2.313185791015625,0.6835520266287028,1.0835326108261942,-0.6625397798687219,-0.139536052942276,0.3395411968231201,-0.0540502741932868,walking,2026-03-04_14-01-59
1772632921618134800,2.323134765625,0.7863584672391414,0.95451445511654,-0.1615682800501585,-0.0536531098186969,0.324269026517868,0.0133279664441943,walking,2026-03-04_14-01-59
1772632921628083700,2.333083740234375,0.725962742987275,0.6958715561062098,0.4702285710304975,-0.0141716226935386,0.2709225416183471,0.0462887808680534,walking,2026-03-04_14-01-59
1772632921638032600,2.34303271484375,0.5454278966605663,0.3814148538067937,1.0435872616678477,-0.0275726504623889,0.2096850126981735,0.0444520004093647,walking,2026-03-04_14-01-59
1772632921647981600,2.352981689453125,0.3437927599642426,0.1007172132462263,1.461957635167241,-0.0787261798977851,0.1536553800106048,0.0207294411957263,walking,2026-03-04_14-01-59
1772632921657930500,2.362930419921875,0.139873092527315,-0.0616397329635918,1.7175597051769491,-0.1577464342117309,0.089226596057415,-0.0239655915647745,walking,2026-03-04_14-01-59
1772632921667879700,2.372879638671875,0.033583485976234,-0.1989870333403348,1.7135399481415747,-0.2282996922731399,0.0521276965737342,-0.0777902081608772,walking,2026-03-04_14-01-59
1772632921677828900,2.382828857421875,0.0544736407265067,-0.2408493220359087,1.5351754315912722,-0.2745830416679382,0.0103506855666637,-0.1180497482419014,walking,2026-03-04_14-01-59
1772632921687777800,2.39277783203125,0.1104336475532501,-0.1437396317623555,1.2884347134292125,-0.2972764670848846,-0.0412060841917991,-0.133583202958107,walking,2026-03-04_14-01-59
1772632921697726700,2.402726806640625,0.2079356250800192,-0.0328653277695178,0.9582856442183256,-0.2919128537178039,-0.0791420117020607,-0.1235737055540084,walking,2026-03-04_14-01-59
1772632921707675600,2.412675537109375,0.3114265408232808,0.035824762097001,0.6264584126621484,-0.267186552286148,-0.1001159250736236,-0.0947396829724311,walking,2026-03-04_14-01-59
1772632921717624600,2.42262451171875,0.289108106835559,0.070804890063405,0.3845160346925258,-0.2360054552555084,-0.1129230707883834,-0.0752293616533279,walking,2026-03-04_14-01-59
1772632921727573800,2.43257373046875,0.1499231427028775,0.0264706582963466,0.2394944002956152,-0.2165323346853256,-0.1100697144865989,-0.0680133551359176,walking,2026-03-04_14-01-59
1772632921737522700,2.442522705078125,0.0215403622873127,-0.152796067790687,0.1245668753892183,-0.2015078365802765,-0.0849126949906349,-0.0753780603408813,walking,2026-03-04_14-01-59
1772632921747472000,2.452471923828125,-0.0755819682721048,-0.3195313752152025,0.0257400059342384,-0.1910869777202606,-0.0377100706100463,-0.0923329815268516,walking,2026-03-04_14-01-59
1772632921757420800,2.4624208984375,-0.12142338973172,-0.4304983259275555,0.0156219320237636,-0.1849254965782165,0.0039380388334393,-0.108779065310955,walking,2026-03-04_14-01-59
1772632921767369700,2.47236962890625,-0.119889092836529,-0.5531051532901823,0.0828320124655962,-0.177536591887474,0.0239768717437982,-0.1238678991794586,walking,2026-03-04_14-01-59
1772632921777318700,2.482318603515625,-0.0098344346635043,-0.721918582163006,0.1430143862277269,-0.1597602665424347,0.0193267259746789,-0.1350819319486618,walking,2026-03-04_14-01-59
1772632921787267600,2.492267578125,0.0664948448445647,-0.8401252748705447,0.1907405985206365,-0.1330463141202926,0.0012123549822717,-0.1504246592521667,walking,2026-03-04_14-01-59
1772632921797216800,2.502216796875,0.1128565638512373,-0.9522004790857432,0.2399111644029617,-0.1007056757807731,-0.0280770920217037,-0.1648286283016204,walking,2026-03-04_14-01-59
1772632921807165700,2.512165771484375,0.1629388377510011,-1.0611026062227784,0.2713368147581815,-0.0608343333005905,-0.0648909211158752,-0.1805032342672348,walking,2026-03-04_14-01-59
1772632921817114600,2.522114501953125,0.2190982396073639,-1.116326188533753,0.2328372804939746,-0.014408515766263,-0.1026028841733932,-0.1934880018234253,walking,2026-03-04_14-01-59
1772632921827063800,2.532063720703125,0.2487497929621487,-1.1165031525358555,0.2234469363361597,0.0278087146580219,-0.1386938393115997,-0.2046559303998947,walking,2026-03-04_14-01-59
1772632921837012700,2.5420126953125,0.3078367727030068,-1.1810780621685086,0.2083738703668117,0.0579021722078323,-0.1505297273397445,-0.2153495848178863,walking,2026-03-04_14-01-59
1772632921846961700,2.551961669921875,0.3184957485571503,-1.291109047205001,0.1860463032245636,0.066542349755764,-0.1337430477142334,-0.2409465163946151,walking,2026-03-04_14-01-59
1772632921856910600,2.56191064453125,0.2861378223204985,-1.388356392383575,0.2129056685775518,0.0545378811657428,-0.1323917657136917,-0.2756842672824859,walking,2026-03-04_14-01-59
1772632921866859800,2.57185986328125,0.4471906271291896,-1.428381821040809,0.2717594240844249,0.0299120713025331,-0.1706933677196502,-0.2966968715190887,walking,2026-03-04_14-01-59
1772632921876808400,2.581808349609375,0.6566665769863873,-1.4074346023410558,0.2163046633660793,-0.0030911513604223,-0.2365877032279968,-0.3026343882083893,walking,2026-03-04_14-01-59
1772632921886757400,2.59175732421875,0.72528447839953,-1.3267676589548587,0.0375046780079603,-0.0317254848778247,-0.2947291135787964,-0.3043635785579681,walking,2026-03-04_14-01-59
1772632921896706600,2.60170654296875,0.7247339318446815,-1.2594620091840625,-0.2763227864772081,-0.05105497315526,-0.31186443567276,-0.3109397292137146,walking,2026-03-04_14-01-59
1772632921906655500,2.611655517578125,0.7438689865559339,-1.155899781770259,-0.6847919436872005,-0.0513001531362533,-0.2832319140434265,-0.3090761601924896,walking,2026-03-04_14-01-59
1772632921916604400,2.6216044921875,0.8052028684407472,-0.9972802685230968,-1.0397118815392254,-0.0312366914004087,-0.2256325483322143,-0.2868217229843139,walking,2026-03-04_14-01-59
1772632921926553600,2.6315537109375,0.8879870231766254,-0.8628086697131395,-1.2870324454158544,0.0092955948784947,-0.1381340026855468,-0.2516963183879852,walking,2026-03-04_14-01-59
1772632921936502500,2.64150244140625,1.0274842681288718,-0.7935672295741737,-1.4064058438152074,0.0624802522361278,-0.0653657913208007,-0.2047240287065506,walking,2026-03-04_14-01-59
1772632921946451500,2.651451416015625,1.206429507176578,-0.7592483419954776,-1.362075119179487,0.1216626614332199,-0.0349582284688949,-0.1506521105766296,walking,2026-03-04_14-01-59
1772632921956400400,2.661400390625,1.3862949298091232,-0.7649632125109433,-1.200685118305683,0.1772231161594391,-0.0439828820526599,-0.0904550850391388,walking,2026-03-04_14-01-59
1772632921966349600,2.671349609375,1.521144422020763,-0.8047939953789115,-1.0024287373274563,0.2183290272951126,-0.0941246151924133,-0.0359147153794765,walking,2026-03-04_14-01-59
1772632921976298500,2.681298583984375,1.5578046120285989,-0.8335289453454315,-0.8405126667529345,0.2386555969715118,-0.1654286086559295,0.0116056650876998,walking,2026-03-04_14-01-59
1772632921986247400,2.691247314453125,1.4147003555603324,-0.8292845857739448,-0.7473539060622453,0.2373164892196655,-0.235349029302597,0.045191504061222,walking,2026-03-04_14-01-59
1772632921996196600,2.701196533203125,1.1421239890698345,-0.812225022162497,-0.8092863383620977,0.2250758111476898,-0.2712167501449585,0.0570726655423641,walking,2026-03-04_14-01-59
1772632922006145500,2.7111455078125,0.7983851512499153,-0.7715443444669247,-1.002890509620309,0.1974740326404571,-0.2718158364295959,0.051112663000822,walking,2026-03-04_14-01-59
1772632922016094500,2.721094482421875,0.5037374208679423,-0.696297234172374,-1.1936650104105473,0.1592771112918853,-0.2464723885059356,0.0362849831581115,walking,2026-03-04_14-01-59
1772632922026043400,2.73104345703125,0.2714541575275361,-0.5717825273618101,-1.3687281473278998,0.1102189123630523,-0.2142461240291595,0.0201115719974041,walking,2026-03-04_14-01-59
1772632922035992300,2.740992431640625,0.0815382828606292,-0.3671998659715056,-1.5299457142442463,0.0660402625799179,-0.1886912286281585,0.011875744909048,walking,2026-03-04_14-01-59
1772632922045941500,2.75094140625,-0.0653471361141651,-0.1352173026107251,-1.7278081274688244,0.0316734872758388,-0.1485534459352493,0.0013449457474052,walking,2026-03-04_14-01-59
1772632922055890700,2.760890625,-0.179692422419507,0.0846720873743295,-1.9209405895620584,0.0215044729411602,-0.108251579105854,-0.0084014255553483,walking,2026-03-04_14-01-59
1772632922065839600,2.770839599609375,-0.2840932743482292,0.3788594702355563,-2.0468746616512536,0.035020999610424,-0.0727172568440437,-0.0171828120946884,walking,2026-03-04_14-01-59
1772632922075788500,2.78078857421875,-0.3980369393164292,0.6977582466356456,-2.087945507708192,0.0712463855743408,-0.050405565649271,-0.025853531435132,walking,2026-03-04_14-01-59
1772632922085737500,2.790737548828125,-0.4501865575421601,1.0301599170789122,-2.045831874600053,0.1324576735496521,-0.0348277725279331,-0.0344647988677024,walking,2026-03-04_14-01-59
1772632922095686400,2.800686279296875,-0.4423242266692221,1.3651323147930203,-1.9573118796259164,0.2198096364736557,0.012595135718584,-0.0273293908685445,walking,2026-03-04_14-01-59
1772632922105635300,2.81063525390625,-0.3925083486206829,1.7186922163382172,-1.7811837438255549,0.3233041763305664,0.0843107029795646,0.0041358922608196,walking,2026-03-04_14-01-59
1772632922115584300,2.820584228515625,-0.259770825328026,1.9663525335632264,-1.4226555523484945,0.4270375072956085,0.154801920056343,0.059757076203823,walking,2026-03-04_14-01-59
1772632922125533700,2.83053369140625,-0.1400997226237319,2.094044555235654,-0.9579869535326956,0.5162416100502014,0.2053446769714355,0.1262967884540558,walking,2026-03-04_14-01-59
1772632922135482600,2.840482666015625,-0.1051288556760177,2.125908304747194,-0.3727496090531349,0.5784777998924255,0.2213140577077865,0.1880557537078857,walking,2026-03-04_14-01-59
1772632922145431600,2.850431640625,-0.1403486376171931,2.038998229187727,0.2168289795011281,0.6118780374526978,0.2090571522712707,0.2339574098587036,walking,2026-03-04_14-01-59
1772632922155380500,2.86038037109375,-0.2860730499885976,1.872640230643004,0.7405103237777948,0.6189420819282532,0.1565814316272735,0.2493126541376114,walking,2026-03-04_14-01-59
1772632922165329400,2.870329345703125,-0.4707074405886232,1.6711531971804796,1.0462427446126936,0.6103675365447998,0.1335237473249435,0.233795017004013,walking,2026-03-04_14-01-59
1772632922175278300,2.8802783203125,-0.7286758013382554,1.489671863783896,1.2847498874366283,0.5735695958137512,0.1376348733901977,0.1916765868663787,walking,2026-03-04_14-01-59
1772632922185227500,2.8902275390625,-0.9950793974779546,1.32145026332438,1.6500854208409783,0.4793745279312134,0.142427921295166,0.1233889460563659,walking,2026-03-04_14-01-59
1772632922195176700,2.9001767578125,-1.1943065231844785,1.056096906889975,2.015872205144167,0.3334908187389374,0.1377308964729309,0.0222165156155824,walking,2026-03-04_14-01-59
1772632922205125600,2.910125732421875,-1.3102382566973567,0.8241073292665183,2.206891620606184,0.1639657616615295,0.1357622146606445,-0.0979305505752563,walking,2026-03-04_14-01-59
1772632922215074600,2.920074462890625,-1.3161034954689443,0.7368006556048989,2.2454408392310143,-0.0003206562250852,0.1258352845907211,-0.2155458629131317,walking,2026-03-04_14-01-59
1772632922225023500,2.9300234375,-1.1536067754622548,0.7534102834917604,2.1363994497537613,-0.1438170969486236,0.1155291199684143,-0.3025544583797455,walking,2026-03-04_14-01-59
1772632922234972400,2.939972412109375,-0.8804573583241552,0.844044786401838,1.9041940374225377,-0.2534021735191345,0.1055039167404174,-0.3377116322517395,walking,2026-03-04_14-01-59
1772632922244921300,2.94992138671875,-0.6189268481135368,0.9503991287522018,1.6033745230704546,-0.3333445191383362,0.0942799225449562,-0.3325022757053375,walking,2026-03-04_14-01-59
1772632922254870500,2.95987060546875,-0.3631792686859145,0.9913099619418382,1.297005557897687,-0.3795484900474548,0.04488280788064,-0.307581216096878,walking,2026-03-04_14-01-59
1772632922264819500,2.9698193359375,-0.1467525133101269,0.9552779868349432,0.8890063562870025,-0.3781867325305938,0.0099826576188206,-0.2602420747280121,walking,2026-03-04_14-01-59
1772632922274768600,2.9797685546875,-0.0808384274955838,0.9120096307337284,0.4477157104492187,-0.3388571739196777,0.0100511005148291,-0.203548714518547,walking,2026-03-04_14-01-59
1772632922284717600,2.989717529296875,-0.1488017009248957,0.8120597485981881,0.1436719733536243,-0.2888599932193756,0.0183891113847494,-0.1564669460058212,walking,2026-03-04_14-01-59
1772632922294666500,2.99966650390625,-0.3021379034742713,0.6289632350899279,-0.0011322189003229,-0.2389305233955383,0.0188791323453187,-0.1364876478910446,walking,2026-03-04_14-01-59
1772632922304615400,3.009615478515625,-0.4030946976300328,0.4537444692194461,-0.120958621764183,-0.183167815208435,0.0317881107330322,-0.127998873591423,walking,2026-03-04_14-01-59
1772632922314564400,3.019564453125,-0.3890637245921418,0.34898908649832,-0.1881008976668119,-0.1267173141241073,0.0531714297831058,-0.1081942841410636,walking,2026-03-04_14-01-59
1772632922324513500,3.029513427734375,-0.3179943018410354,0.2827458052620291,-0.0598830985546112,-0.087975762784481,0.0624530762434005,-0.06986004114151,walking,2026-03-04_14-01-59
1772632922334462500,3.03946240234375,-0.2457152841044589,0.1788102144911885,0.1963221980452537,-0.0753920599818229,0.049502920359373,-0.0317821614444255,walking,2026-03-04_14-01-59
1772632922344411400,3.049411376953125,-0.1798568374672904,0.0209377202190458,0.4484855257779359,-0.081132635474205,0.03284128382802,-0.0011400320800021,walking,2026-03-04_14-01-59
1772632922354360600,3.059360595703125,-0.2041515034314245,-0.1223139818958938,0.6413263114482164,-0.1006634533405304,0.0132433483377099,0.0191236957907676,walking,2026-03-04_14-01-59
1772632922364309500,3.0693095703125,-0.2564864150961861,-0.2507018768779933,0.8363467792451381,-0.1370947360992431,-0.0102117666974663,0.0194981470704078,walking,2026-03-04_14-01-59
1772632922374258400,3.079258544921875,-0.3218025350175797,-0.3343590881213545,0.9384458022385836,-0.1752032488584518,-0.0402903072535991,0.0063514513894915,walking,2026-03-04_14-01-59
1772632922384207400,3.089207275390625,-0.3198311253467574,-0.3328494142107665,0.9121329648524522,-0.1938785016536712,-0.0646718516945838,-0.0110590402036905,walking,2026-03-04_14-01-59
1772632922394156500,3.099156494140625,-0.2512761696346104,-0.2191688206255435,0.787998635661602,-0.1826508790254593,-0.1081349104642868,-0.0127528104931116,walking,2026-03-04_14-01-59
1772632922404105500,3.10910546875,-0.1110671596838161,-0.0192119193397462,0.6416460449218749,-0.1514147520065307,-0.1683213263750076,0.0068516102619469,walking,2026-03-04_14-01-59
1772632922414054400,3.119054443359375,0.0222385736845433,0.1462418238416314,0.507395395386219,-0.1114423125982284,-0.2141804248094558,0.0442873984575271,walking,2026-03-04_14-01-59
1772632922424003600,3.129003662109375,0.0246499822078272,0.2641349205553531,0.3612099779069423,-0.0880934298038482,-0.2247740477323532,0.0899734646081924,walking,2026-03-04_14-01-59
1772632922433952500,3.138952392578125,-0.1451787246547639,0.299164586751908,0.2471761869698762,-0.0935901924967765,-0.1831360608339309,0.1178852543234825,walking,2026-03-04_14-01-59
1772632922443901400,3.1489013671875,-0.2851278780929744,0.2577795601792633,0.2135042189925909,-0.1199523732066154,-0.1076972037553787,0.1322233974933624,walking,2026-03-04_14-01-59
1772632922453850600,3.1588505859375,-0.3287522445576265,0.1543731078490614,0.2188432419329881,-0.1581615656614303,-0.0211814902722835,0.1396951675415039,walking,2026-03-04_14-01-59
1772632922463799600,3.168799560546875,-0.298581306971237,0.0477989852681756,0.2948901243031024,-0.1944442689418792,0.0474425964057445,0.1445303410291671,walking,2026-03-04_14-01-59
1772632922473748500,3.17874853515625,-0.235021492665261,-0.0237434252895414,0.4008154275864362,-0.219937652349472,0.0753373503684997,0.155264750123024,walking,2026-03-04_14-01-59
1772632922483698700,3.18869873046875,-0.1096703350305557,-0.0909863850876688,0.4885761286258697,-0.2270665168762207,0.0607316680252552,0.1688236594200134,walking,2026-03-04_14-01-59
1772632922493646300,3.198646240234375,0.0023714783716946,-0.1553089273944497,0.4981722244888544,-0.2081897556781768,0.0249244030565023,0.1883339881896972,walking,2026-03-04_14-01-59
1772632922503596500,3.208596435546875,0.0717412210654467,-0.2138011561125516,0.4439513894796371,-0.1760582625865936,-0.0064177243039011,0.2011547982692718,walking,2026-03-04_14-01-59
1772632922513545500,3.21854541015625,0.0444756860643625,-0.2553000183232128,0.4074433212935924,-0.1474503278732299,-0.0083240149542689,0.2177281826734542,walking,2026-03-04_14-01-59
1772632922523494400,3.228494384765625,-0.0068439841432496,-0.3078494129888713,0.4012976581454276,-0.1336738914251327,0.013561800122261,0.2305766940116882,walking,2026-03-04_14-01-59
1772632922533443300,3.238443359375,-0.0202105384556576,-0.4042662986926734,0.4144306959629059,-0.1290024369955063,0.0681046769022941,0.2471668571233749,walking,2026-03-04_14-01-59
1772632922543392500,3.248392578125,0.0106500618953257,-0.5039538766302168,0.4846154083013534,-0.129742220044136,0.1147298216819763,0.259993314743042,walking,2026-03-04_14-01-59
1772632922553341400,3.258341552734375,0.1242140798961743,-0.5643668442778289,0.5315601148277521,-0.1231599450111389,0.1409403830766677,0.2802088260650635,walking,2026-03-04_14-01-59
1772632922563290600,3.26829052734375,0.2694571019588038,-0.6028194706603884,0.5305675966590643,-0.0982247069478035,0.128431499004364,0.3115715384483337,walking,2026-03-04_14-01-59
1772632922573239600,3.278239501953125,0.3012972513990476,-0.6374808880664408,0.533141831061244,-0.0737305507063865,0.0714307948946952,0.3372089862823486,walking,2026-03-04_14-01-59
1772632922583188500,3.2881884765625,0.228719798705168,-0.7000425581805407,0.5102852716088294,-0.0677476823329925,-0.000528962817043,0.3473032414913177,walking,2026-03-04_14-01-59
1772632922593137400,3.298137451171875,0.0453577661285176,-0.8015519447177648,0.408889428448677,-0.0818674936890602,-0.0520097315311431,0.3321605026721954,walking,2026-03-04_14-01-59
1772632922603086600,3.308086669921875,-0.1059262531314045,-0.8542983232602477,0.1656862367630004,-0.1068360432982444,-0.0657132714986801,0.3095420002937317,walking,2026-03-04_14-01-59
1772632922613035500,3.318035400390625,-0.1737848240772262,-0.838336053366214,-0.2003273420333862,-0.1248302236199379,-0.0392531678080558,0.30388143658638,walking,2026-03-04_14-01-59
1772632922622984400,3.327984375,-0.1935730820002034,-0.7650942915447055,-0.612290771099925,-0.1257254332304,0.0112786125391721,0.3138252198696136,walking,2026-03-04_14-01-59
1772632922632933400,3.337933349609375,-0.219237611545436,-0.6999110407553613,-0.9048276102751492,-0.1149697378277778,0.0562575384974479,0.3334631025791168,walking,2026-03-04_14-01-59
1772632922642882600,3.347882568359375,-0.2632936108930036,-0.6819339239075779,-1.1139555138796566,-0.0934209823608398,0.0697721391916275,0.3568017482757568,walking,2026-03-04_14-01-59
1772632922652831500,3.35783154296875,-0.3226403375485911,-0.7304507020562887,-1.40936644718647,-0.0422246418893337,0.0981049761176109,0.3728001713752746,walking,2026-03-04_14-01-59
1772632922662780400,3.367780517578125,-0.4313929366797208,-0.7623002769120037,-1.7454507516652344,0.0380799025297164,0.1590485870838165,0.3870078921318054,walking,2026-03-04_14-01-59
1772632922672729600,3.3777294921875,-0.5015685889288782,-0.7920927731074392,-1.9041344161897895,0.1266877949237823,0.2202347218990326,0.4013013541698456,walking,2026-03-04_14-01-59
1772632922682678500,3.387678466796875,-0.4621535107223317,-0.9039838529273868,-1.8563801468461751,0.2068346738815307,0.2575072944164276,0.418663740158081,walking,2026-03-04_14-01-59
1772632922692627500,3.39762744140625,-0.396544910660386,-1.0539775766484438,-1.589434845045209,0.2630555927753448,0.2460935115814209,0.4328048825263977,walking,2026-03-04_14-01-59
1772632922702576400,3.407576416015625,-0.3731921286562457,-1.1584632025174797,-1.2103987030684946,0.2790818810462951,0.1886182725429535,0.4403972029685974,walking,2026-03-04_14-01-59
1772632922712525600,3.417525634765625,-0.3998392394980415,-1.294274233237654,-0.8699947818249464,0.2598642408847809,0.1066688001155853,0.4261106848716736,walking,2026-03-04_14-01-59
1772632922722474500,3.427474609375,-0.5700193536141887,-1.3937944917842744,-0.7260977675437926,0.21817247569561,0.0391976758837699,0.3874096572399139,walking,2026-03-04_14-01-59
1772632922732423400,3.43742333984375,-0.7964682117126881,-1.3942369748547672,-0.7786766805648804,0.1674211472272873,0.0057923160493373,0.3196103572845459,walking,2026-03-04_14-01-59
1772632922742372600,3.44737255859375,-0.8645544904671609,-1.3382970609679818,-0.9620382747501134,0.1283552795648574,-0.000975715694949,0.2500186264514923,walking,2026-03-04_14-01-59
1772632922752321500,3.457321533203125,-0.8399769524410367,-1.2023000061564146,-1.187450958201289,0.1009353622794151,0.0009476193226873,0.1866161972284317,walking,2026-03-04_14-01-59
1772632922762270500,3.4672705078125,-0.7791499240998179,-0.972671604706347,-1.3356599904626607,0.0822182819247245,-0.0093259578570723,0.1252086609601974,walking,2026-03-04_14-01-59
1772632922772219400,3.477219482421875,-0.7911673288255929,-0.6992667515024542,-1.5136638570070269,0.052137341350317,0.0755375325679779,0.0451175644993782,walking,2026-03-04_14-01-59
1772632922782168300,3.487168212890625,-0.8010976981442421,-0.2926607578158378,-1.5104711984455583,0.0196375735104084,0.0455283373594284,0.0005608827341347,walking,2026-03-04_14-01-59
1772632922792117500,3.497117431640625,-0.6747235541373491,0.1424601133458316,-1.4628952082782982,-0.0064808470197021,0.042901661247015,-0.0325712375342845,walking,2026-03-04_14-01-59
1772632922802066700,3.507066650390625,-0.5197624537998811,0.3737316058278083,-1.5368150154918432,-0.014975307509303,-0.0184920448809862,-0.0661517232656478,walking,2026-03-04_14-01-59
1772632922812015600,3.517015625,-0.3629785219494253,0.752793905159086,-1.696810347136855,0.0175288412719964,-0.0714516714215278,-0.0791567414999008,walking,2026-03-04_14-01-59
1772632922821964500,3.526964599609375,-0.2888463140942156,0.9778877319194376,-2.0107623147845266,0.0738041773438453,-0.0423353500664234,-0.0778514817357063,walking,2026-03-04_14-01-59
1772632922831913500,3.53691357421875,-0.2340657628430053,1.3185887364134192,-2.089416164782643,0.1477473825216293,-0.0503322891891002,-0.0479769334197044,walking,2026-03-04_14-01-59
1772632922841862400,3.5468623046875,-0.1213477306796237,1.5355318438135086,-2.1348802773624658,0.2516506314277649,0.0104336524382233,-0.0001631453633308,walking,2026-03-04_14-01-59
1772632922851811300,3.556811279296875,-0.045220293886587,1.6203138213030992,-2.050046277424693,0.361551284790039,0.1176802143454551,0.0589638240635395,walking,2026-03-04_14-01-59
1772632922861760300,3.56676025390625,-0.0770824359629303,1.6801627253271638,-1.6161410656630992,0.4459913671016693,0.2444038689136505,0.1245985254645347,walking,2026-03-04_14-01-59
1772632922871709700,3.576709716796875,-0.1235634339677169,1.573213924214989,-0.9173959999471902,0.4914640486240387,0.3564603626728058,0.1679127067327499,walking,2026-03-04_14-01-59
1772632922881658400,3.586658447265625,-0.1268498717598617,1.3578602779634297,-0.1192979950755834,0.5108816623687744,0.4108369350433349,0.1882719844579696,walking,2026-03-04_14-01-59
1772632922891607300,3.596607177734375,-0.0662531450431793,1.1843440782271324,0.5124386502504349,0.5368708968162537,0.4240866899490356,0.1785357445478439,walking,2026-03-04_14-01-59
1772632922901556200,3.60655615234375,-0.0373737085720524,1.0746028699174524,1.0006932918369769,0.5547918081283569,0.4383746981620788,0.1449400633573532,walking,2026-03-04_14-01-59
1772632922911505400,3.61650537109375,-0.027649127491191,1.0563407986484468,1.5333189900696276,0.5454643368721008,0.4084285199642181,0.1033811718225479,walking,2026-03-04_14-01-59
1772632922921454300,3.626454345703125,0.0250429635807871,1.0958376733869313,2.069334330740571,0.498285561800003,0.3446350991725921,0.0712436661124229,walking,2026-03-04_14-01-59
1772632922931403500,3.636403564453125,0.1255727644961327,1.144883297715336,2.4663643945693967,0.4081245064735412,0.2312747240066528,0.0305795930325984,walking,2026-03-04_14-01-59
1772632922941352400,3.6463525390625,0.2206607396837323,1.2004724984683095,2.726403570243716,0.3156400322914123,0.0984922051429748,0.003653391264379,walking,2026-03-04_14-01-59
1772632922951301400,3.65630126953125,0.3472372013296931,1.3553347050085662,2.54060451977849,0.2351995110511779,0.0085860127583146,-0.0086778430268168,walking,2026-03-04_14-01-59
1772632922961250300,3.666250244140625,0.420672147635743,1.4901007567204534,2.4530396335721014,0.1474329084157943,-0.0847556516528129,-0.003475358011201,walking,2026-03-04_14-01-59
1772632922971199200,3.67619921875,0.5872467846058309,1.429439659530669,2.2536925347477195,0.0615880377590656,-0.1564218550920486,0.0263320729136466,walking,2026-03-04_14-01-59
1772632922981148400,3.6861484375,0.6699726332832128,1.286901950903982,1.938972505337,-0.0102808466181159,-0.1829001158475875,0.0475434884428978,walking,2026-03-04_14-01-59
1772632922991097300,3.696097412109375,0.592580912175402,1.195354424802214,1.6658429619431494,-0.0802066698670387,-0.1977017074823379,0.0531627610325813,walking,2026-03-04_14-01-59
1772632923001046500,3.706046630859375,0.3750597856916487,1.0847526541404426,1.42492057467103,-0.1517611443996429,-0.223235934972763,0.0349545255303382,walking,2026-03-04_14-01-59
1772632923010995500,3.715995361328125,0.0613639116968959,0.9426984912469982,1.158735735848546,-0.2252513319253921,-0.2440152466297149,-0.0205103326588869,walking,2026-03-04_14-01-59
1772632923020944400,3.7259443359375,-0.258563404033333,0.8461125325866043,0.8871101672768592,-0.3034814298152923,-0.278420090675354,-0.1089702546596527,walking,2026-03-04_14-01-59
1772632923030893300,3.735893310546875,-0.4644213095238432,0.8127073988519609,0.545596238964796,-0.3734138906002044,-0.2922765016555786,-0.2084097564220428,walking,2026-03-04_14-01-59
1772632923040842200,3.74584228515625,-0.5274173159345984,0.8266535066179931,0.1395113465428352,-0.4325100183486938,-0.2648085355758667,-0.3003324568271637,walking,2026-03-04_14-01-59
1772632923050791200,3.755791259765625,-0.4296626422883942,0.9196779734045266,-0.2599637723505497,-0.4655598402023315,-0.2045680880546569,-0.3573113083839416,walking,2026-03-04_14-01-59
1772632923060740400,3.765740234375,-0.2071864872131496,1.0725376079507172,-0.635318010944128,-0.4632181227207184,-0.1032342165708541,-0.377314031124115,walking,2026-03-04_14-01-59
1772632923070689500,3.775689453125,0.1366308957356959,1.1754570074163375,-0.9565741641253231,-0.4038320183753967,0.0501337610185146,-0.340590089559555,walking,2026-03-04_14-01-59
1772632923080638500,3.785638427734375,0.4686394021429121,1.3003709426775574,-1.10790688136518,-0.3196814656257629,0.1939390748739242,-0.2603324055671692,walking,2026-03-04_14-01-59
1772632923090587400,3.79558740234375,0.8209889780502766,1.3045596265390516,-0.8836579809963703,-0.2223541289567947,0.2742613554000854,-0.1326814889907837,walking,2026-03-04_14-01-59
1772632923100536300,3.805536376953125,1.0659026269156484,1.1052946530401706,-0.4861719900935888,-0.13588747382164,0.305444598197937,-0.0167490169405937,walking,2026-03-04_14-01-59
1772632923110485200,3.8154853515625,0.9950187533318996,0.842736480282247,0.0868985312521457,-0.0860501527786254,0.2834138572216034,0.0617274157702922,walking,2026-03-04_14-01-59
1772632923120434200,3.82543408203125,0.8231790354404598,0.4582499639451503,0.683377400714159,-0.0816456973552703,0.2246915102005005,0.1000126153230667,walking,2026-03-04_14-01-59
1772632923130383400,3.83538330078125,0.6669184333443642,0.0670265405684709,1.150825985637307,-0.1126816421747207,0.1544290632009506,0.0987864956259727,walking,2026-03-04_14-01-59
1772632923140332500,3.84533251953125,0.5388333207011222,-0.2109850757785141,1.4311042317420244,-0.1676396280527115,0.0771520435810089,0.0754483416676521,walking,2026-03-04_14-01-59
1772632923150281500,3.855281494140625,0.4334981653306633,-0.3743948920421302,1.5487854392707348,-0.2328644394874572,0.0132012907415628,0.0422720089554786,walking,2026-03-04_14-01-59
1772632923160230400,3.86523046875,0.38493477156125,-0.4750255960486829,1.518814079377055,-0.2939769625663757,-0.0531510598957538,0.004977710545063,walking,2026-03-04_14-01-59
1772632923170179300,3.875179443359375,0.3891818345464766,-0.4941178345315158,1.3401947112828492,-0.3326806724071502,-0.1347519159317016,-0.0328663401305675,walking,2026-03-04_14-01-59
1772632923180128300,3.885128173828125,0.4495450447682291,-0.3764047705598175,0.9599480244725942,-0.329816997051239,-0.2165138870477676,-0.0542963296175003,walking,2026-03-04_14-01-59
1772632923190077200,3.8950771484375,0.5282911761596799,-0.1763258503295481,0.4202712386846542,-0.2823400199413299,-0.2668918371200561,-0.0402644053101539,walking,2026-03-04_14-01-59
1772632923200026400,3.9050263671875,0.5252009550593794,0.0481596352741122,-0.0529588522493839,-0.2171604931354522,-0.2822835743427276,-6.23895321041e-05,walking,2026-03-04_14-01-59
1772632923209975600,3.9149755859375,0.4680896227730438,0.1411659818820655,-0.4101718694746494,-0.1463507711887359,-0.2572229504585266,0.0429340824484825,walking,2026-03-04_14-01-59
1772632923219924500,3.924924560546875,0.3105832949321717,0.0808849700510501,-0.6354717402011155,-0.0828758627176284,-0.2144891619682312,0.0679531618952751,walking,2026-03-04_14-01-59
1772632923229873400,3.934873291015625,0.0758631233010441,-0.0177738493606448,-0.7284007837891578,-0.0348132587969303,-0.1508774310350418,0.0583679154515266,walking,2026-03-04_14-01-59
1772632923239822300,3.944822265625,-0.1009542003398761,-0.1788635521136224,-0.7110147647023201,-0.0032021822407841,-0.0742647796869278,0.0337716229259967,walking,2026-03-04_14-01-59
1772632923249771300,3.954771240234375,-0.2438595367025584,-0.3276211581684649,-0.5698918913096189,0.0103527745231986,-0.0157042685896158,-0.0040457961149513,walking,2026-03-04_14-01-59
1772632923259720400,3.964720458984375,-0.294714256279543,-0.4372502844057977,-0.389334833151102,0.0224377214908599,0.0363431349396705,-0.0456716865301132,walking,2026-03-04_14-01-59
1772632923269669400,3.97466943359375,-0.2299577795349061,-0.5267556371554732,-0.2046510504513979,0.0440364927053451,0.0494631975889205,-0.0880135521292686,walking,2026-03-04_14-01-59
1772632923279618300,3.984618408203125,-0.0750114018425345,-0.580212794315815,-0.0388192677378654,0.0766170099377632,0.0181785970926284,-0.1193043813109397,walking,2026-03-04_14-01-59
1772632923289567500,3.9945673828125,0.1094588111717253,-0.6160154907114803,0.1054126775860786,0.1179988011717796,-0.0276773087680339,-0.1352561712265014,walking,2026-03-04_14-01-59
1772632923299516400,4.004516357421875,0.1955360161036252,-0.6478662346109747,0.2371048748105764,0.152358740568161,-0.0890538692474365,-0.1461471319198608,walking,2026-03-04_14-01-59
1772632923309465300,4.01446533203125,0.2338342191094532,-0.6855030145660043,0.332498847207427,0.1716064661741256,-0.1427192240953445,-0.1644819229841232,walking,2026-03-04_14-01-59
1772632923319414300,4.024414306640625,0.1644348484624177,-0.764457454945892,0.3381944285005331,0.1748122125864029,-0.1614174544811248,-0.1847789138555526,walking,2026-03-04_14-01-59
1772632923329363500,4.034363525390625,0.10007040324267,-0.856720289710164,0.3722375678777694,0.1502259075641632,-0.178163930773735,-0.2148920744657516,walking,2026-03-04_14-01-59
1772632923339312400,4.0443125,0.1006578112091869,-0.98597269256711,0.3415905006796121,0.1151337549090385,-0.1941813826560974,-0.2493250966072082,walking,2026-03-04_14-01-59
1772632923349261300,4.05426123046875,0.0966717372477054,-1.0493424641937017,0.1528735169410705,0.0917237699031829,-0.1894558817148208,-0.2898043394088745,walking,2026-03-04_14-01-59
1772632923359210200,4.064210205078125,0.103462676029466,-0.9954084833018482,-0.03826981716156,0.0700063034892082,-0.2012499719858169,-0.3277845978736877,walking,2026-03-04_14-01-59
1772632923369159400,4.074159423828125,0.1884457290491089,-0.9469003268510102,-0.1869365300625562,0.0523253083229064,-0.2157120108604431,-0.3473750948905945,walking,2026-03-04_14-01-59
1772632923379108400,4.0841083984375,0.2777314476987347,-0.8797472372934222,-0.3733288702458143,0.0433296859264373,-0.2113393545150756,-0.358694851398468,walking,2026-03-04_14-01-59
1772632923389057300,4.094057373046875,0.4030598820449784,-0.7940010909467935,-0.6869120045810937,0.0688667371869087,-0.1605012118816375,-0.3484672605991363,walking,2026-03-04_14-01-59
1772632923399006500,4.10400634765625,0.6859938668228686,-0.6876679375149309,-0.9893979908406734,0.1310484260320663,-0.0898603573441505,-0.3059143126010895,walking,2026-03-04_14-01-59
1772632923408955400,4.113955322265625,0.9609066403716802,-0.5916802370086311,-1.0598013143658638,0.206008955836296,-0.0427927114069461,-0.2367874383926391,walking,2026-03-04_14-01-59
1772632923418904300,4.123904296875,1.2008141515128314,-0.6416726406678557,-0.9379343455851078,0.2772765755653381,-0.0283469520509243,-0.1631517112255096,walking,2026-03-04_14-01-59
1772632923428853200,4.133853271484375,1.3150458031095564,-0.8374686228819191,-0.699390377882123,0.3238379657268524,-0.0574150867760181,-0.1127695068717002,walking,2026-03-04_14-01-59
1772632923438802400,4.143802490234375,1.2881889219745992,-1.0845219141244888,-0.3791197286069392,0.3284176886081695,-0.14460089802742,-0.1043356135487556,walking,2026-03-04_14-01-59
1772632923448751400,4.15375146484375,1.1786417018670587,-1.279628160508722,-0.1325017600417137,0.2851658165454864,-0.2544972896575928,-0.1281213611364364,walking,2026-03-04_14-01-59
1772632923458700500,4.163700439453125,0.9349097370669244,-1.329832453352958,-0.1113876603424549,0.2031789422035217,-0.3525558114051819,-0.1774937361478805,walking,2026-03-04_14-01-59
1772632923468649500,4.1736494140625,0.6202519592374562,-1.234469899007678,-0.3249035697728395,0.101592943072319,-0.3830189108848572,-0.2379427105188369,walking,2026-03-04_14-01-59
1772632923478598400,4.183598388671875,0.3300533537514508,-1.0495425168104469,-0.6937199310302734,-0.0065135867334902,-0.3416022658348083,-0.296110063791275,walking,2026-03-04_14-01-59
1772632923488547300,4.19354736328125,0.0731838941544294,-0.692730335471034,-1.1007605167418717,-0.0977798476815223,-0.29567551612854,-0.3478358387947082,walking,2026-03-04_14-01-59
1772632923498496300,4.203496337890625,-0.0419680506249889,-0.331660496687144,-1.474667479136586,-0.1773746609687805,-0.2625051736831665,-0.378367155790329,walking,2026-03-04_14-01-59
1772632923508445200,4.213445068359375,-0.1150529413843527,0.0648660015337169,-1.866912062254548,-0.2058113664388656,-0.2000537663698196,-0.3873974084854126,walking,2026-03-04_14-01-59
1772632923518394400,4.223394287109375,-0.1823857166240923,0.5380426087148488,-2.2419898219943044,-0.181715726852417,-0.1326838880777359,-0.3676753044128418,walking,2026-03-04_14-01-59
1772632923528343600,4.233343505859375,-0.1714760356782004,0.9761271519877016,-2.459508537325263,-0.1099874898791313,-0.0773812159895896,-0.3262399733066559,walking,2026-03-04_14-01-59
1772632923538292500,4.24329248046875,-0.1011673499002121,1.3145292318895458,-2.45613759958744,-0.0113364588469266,-0.0324792750179767,-0.2556540369987488,walking,2026-03-04_14-01-59
1772632923548241400,4.253241455078125,-0.1359004625692963,1.5871207228839397,-2.2603601759433745,0.0924051105976104,0.0297145918011665,-0.175394594669342,walking,2026-03-04_14-01-59
1772632923558190300,4.2631904296875,-0.2763513732508756,1.7101986748896538,-1.8154139302074908,0.1688261032104492,0.0905682891607284,-0.0986053124070167,walking,2026-03-04_14-01-59
1772632923568139300,4.27313916015625,-0.5236654160551727,1.6605023315675556,-1.1669383315265178,0.2045699805021286,0.1294728070497512,-0.056946013122797,walking,2026-03-04_14-01-59
1772632923578088200,4.283088134765625,-0.6816795107550918,1.5129266287736594,-0.5264923100441694,0.2240717709064483,0.094879150390625,-0.0635793134570121,walking,2026-03-04_14-01-59
1772632923588037400,4.293037353515625,-0.6605738866232335,1.425985573554039,-0.3575584696620703,0.3001683950424194,0.0710800811648368,-0.0607710108160972,walking,2026-03-04_14-01-59
1772632923597986600,4.302986572265625,-0.6691889355596154,1.598764983448386,-0.3755927235245704,0.4225208461284637,0.0945656597614288,-0.0401711016893386,walking,2026-03-04_14-01-59
1772632923607935500,4.312935546875,-0.7597806222412735,1.7437449706606565,-0.1720358980506658,0.5337632298469543,0.1481447368860244,-0.0154202133417129,walking,2026-03-04_14-01-59
1772632923617884400,4.322884521484375,-0.7697058769933879,1.6346359227746723,0.2854027495115995,0.6086496710777283,0.2000003457069397,-0.0002937149256467,walking,2026-03-04_14-01-59
1772632923627833300,4.332833251953125,-0.7414991886846721,1.4143701006926594,0.8698808000564575,0.6273911595344543,0.2099065035581588,-0.0198058970272541,walking,2026-03-04_14-01-59
1772632923637782300,4.3427822265625,-0.8063061535075307,1.2278249080352484,1.4353338321357965,0.5926936864852905,0.2432495206594467,-0.0646714940667152,walking,2026-03-04_14-01-59
1772632923647732200,4.352732177734375,-0.854520953034982,1.09776133492589,1.9714456189185376,0.504196286201477,0.2547727823257446,-0.1016409695148468,walking,2026-03-04_14-01-59
1772632923657681400,4.362681396484375,-0.8915592556402087,0.9496212762475014,2.30104523755312,0.3664188385009765,0.2537038326263428,-0.1672433316707611,walking,2026-03-04_14-01-59
1772632923667630300,4.37263037109375,-1.0828211015559732,0.9292498116090894,2.686207753455639,0.1871913075447082,0.1816618293523788,-0.2822231650352478,walking,2026-03-04_14-01-59
1772632923677579500,4.38257958984375,-0.9861680690087378,0.784354433940351,2.8495266765654086,-0.0064946715719997,0.0502744168043136,-0.3868461847305298,walking,2026-03-04_14-01-59
1772632923687528400,4.392528564453125,-0.8024727128244936,0.8211848659485578,2.728575069063902,-0.1881068050861358,-0.0464499928057193,-0.4485961198806762,walking,2026-03-04_14-01-59
1772632923697477400,4.402477294921875,-0.7033266944177449,1.0865700788259505,2.2801883274853227,-0.3391072750091553,-0.0818866640329361,-0.4627754986286163,walking,2026-03-04_14-01-59
1772632923707426300,4.41242626953125,-0.5587561647891998,1.3267172439418733,1.732680117419362,-0.4498502910137176,-0.0913150534033775,-0.4279123246669769,walking,2026-03-04_14-01-59
1772632923717375200,4.422375244140625,-0.3982534316113218,1.4259583932861686,1.1909580895394083,-0.5183008909225464,-0.0983104035258293,-0.3669145703315735,walking,2026-03-04_14-01-59
1772632923727324200,4.43232421875,-0.3663165072657168,1.4307375903867183,0.6767606129229068,-0.5410030484199524,-0.1125497967004776,-0.3063359260559082,walking,2026-03-04_14-01-59
1772632923737273300,4.4422734375,-0.4174380976179614,1.3724880843833087,0.1498322495490312,-0.5127200484275818,-0.1137057915329933,-0.2463070601224899,walking,2026-03-04_14-01-59
1772632923747222500,4.452222412109375,-0.5218194593949244,1.2909731458656488,-0.3514993157535791,-0.4410123229026794,-0.0767999738454818,-0.192880317568779,walking,2026-03-04_14-01-59
1772632923757171500,4.46217138671875,-0.6682369685970246,1.1666862564615903,-0.6351420698553324,-0.3520001471042633,-0.0150928683578968,-0.1469128727912902,walking,2026-03-04_14-01-59
1772632923767120400,4.472120361328125,-0.6889560776293278,0.9107821347653864,-0.6936328372687101,-0.2567849457263946,0.0368086770176887,-0.1124978959560394,walking,2026-03-04_14-01-59
1772632923777069300,4.4820693359375,-0.6336034621112048,0.6315943142458796,-0.5175900416642427,-0.177494615316391,0.0670713633298873,-0.1011335030198097,walking,2026-03-04_14-01-59
1772632923787018200,4.492018310546875,-0.5471024057440459,0.3413745198413729,-0.0958025531977415,-0.1382321566343307,0.0244655832648277,-0.1005409508943557,walking,2026-03-04_14-01-59
1772632923796967200,4.50196728515625,-0.3630663098307326,0.0602862725280225,0.3187234198331832,-0.1268980652093887,-0.0569758713245391,-0.0966390371322631,walking,2026-03-04_14-01-59
1772632923806916400,4.511916259765625,-0.2371062630500644,-0.1338221949905157,0.5596832165062428,-0.1368665397167205,-0.1204555109143257,-0.091216042637825,walking,2026-03-04_14-01-59
1772632923816865500,4.521865478515625,-0.2421897403268143,-0.2544340491436421,0.6864215907156467,-0.1706272065639495,-0.1708224564790725,-0.0957653746008873,walking,2026-03-04_14-01-59
1772632923826814500,4.531814453125,-0.3390433369474485,-0.3429159040644765,0.7031278108447789,-0.2321984320878982,-0.1962354034185409,-0.1080713123083114,walking,2026-03-04_14-01-59
1772632923836763400,4.541763427734375,-0.4426608016798272,-0.4283206896275282,0.6093997258335352,-0.2960734367370605,-0.208170861005783,-0.1272512227296829,walking,2026-03-04_14-01-59
1772632923846712300,4.55171240234375,-0.5552013583844527,-0.4499557444609701,0.3352595440924167,-0.3499273359775543,-0.1877318918704986,-0.1464789807796478,walking,2026-03-04_14-01-59
1772632923856661200,4.5616611328125,-0.6568707943215966,-0.3947055664040148,-0.0179547588855028,-0.3759369850158691,-0.1437096744775772,-0.1500162929296493,walking,2026-03-04_14-01-59
1772632923866610200,4.571610107421875,-0.7561338632367551,-0.3281653480477631,-0.3427952002942562,-0.3635916411876678,-0.0968172699213028,-0.1505720913410186,walking,2026-03-04_14-01-59
1772632923876559400,4.581559326171875,-0.7384685888171195,-0.2955282760761678,-0.6004197160422802,-0.3193217515945434,-0.0582252405583858,-0.1402569115161895,walking,2026-03-04_14-01-59
1772632923886508500,4.591508544921875,-0.6646940352931618,-0.271348066804558,-0.7402905435472726,-0.2441580295562744,-0.0397261269390583,-0.1142663210630416,walking,2026-03-04_14-01-59
1772632923896457500,4.60145751953125,-0.5901021740369499,-0.2351601704835891,-0.7977168965995312,-0.1552368104457855,-0.0315252915024757,-0.0787900239229202,walking,2026-03-04_14-01-59
1772632923906406400,4.611406494140625,-0.5386920855995267,-0.2533550217352807,-0.7770704144120216,-0.0605995133519172,-0.0056638647802174,-0.0437340326607227,walking,2026-03-04_14-01-59
1772632923916355300,4.621355224609375,-0.5421170550795271,-0.3362714976139366,-0.5450257456004619,0.0086106956005096,0.0244542937725782,-0.0161054637283086,walking,2026-03-04_14-01-59
1772632923926304500,4.631304443359375,-0.552357147934474,-0.4306497170969843,-0.12448913397789,0.0330638401210308,0.0327761396765708,-0.0089154615998268,walking,2026-03-04_14-01-59
1772632923936253400,4.64125341796875,-0.552168274298869,-0.5468072221897542,0.3412935635596513,0.0183463897556066,0.0399037636816501,-0.0130180902779102,walking,2026-03-04_14-01-59
1772632923946202600,4.65120263671875,-0.5197678971599787,-0.6436611841365695,0.6919219416975975,-0.0118972659111022,0.062073778361082,-0.0205095615237951,walking,2026-03-04_14-01-59
1772632923956151600,4.661151611328125,-0.4436125859793275,-0.6588629910521209,1.0234259326487778,-0.0583225563168525,0.0672850534319877,-0.0270758513361215,walking,2026-03-04_14-01-59
1772632923966100500,4.6711005859375,-0.3730348557353019,-0.6408754989407957,1.2887275588959457,-0.1095441952347755,0.0345609299838542,-0.0365766808390617,walking,2026-03-04_14-01-59
1772632923976049400,4.68104931640625,-0.267697289212048,-0.6836874895766377,1.376049868518114,-0.1454649418592453,-0.0061442172154784,-0.0462848283350467,walking,2026-03-04_14-01-59
1772632923985998300,4.690998291015625,-0.1660584310762584,-0.6482362369671464,1.3065958085417746,-0.1640058606863021,-0.051427811384201,-0.0481522344052791,walking,2026-03-04_14-01-59
1772632923995947500,4.700947509765625,-0.1681790034268051,-0.5473518504604696,1.163194468823075,-0.1745937466621399,-0.0973600223660469,-0.0483902618288993,walking,2026-03-04_14-01-59
1772632924005896400,4.710896484375,-0.1753452783269807,-0.5163318582966924,0.9564397240906952,-0.1799102127552032,-0.1022099032998085,-0.0469249933958053,walking,2026-03-04_14-01-59
1772632924015845600,4.720845703125,-0.1605748850986361,-0.4962238669000566,0.6501338872820138,-0.1679837554693222,-0.0639721751213073,-0.0354382880032062,walking,2026-03-04_14-01-59
1772632924025794600,4.730794677734375,-0.1505775880236178,-0.4419987941071391,0.4340647862374782,-0.1535632759332656,-0.025493761524558,-0.0259347967803478,walking,2026-03-04_14-01-59
1772632924035743500,4.740743408203125,-0.104244181795977,-0.4241092094123363,0.3237245891213416,-0.1393850147724151,-0.0144750978797674,-0.0157312266528606,walking,2026-03-04_14-01-59
1772632924045692400,4.7506923828125,0.0194171961208805,-0.432235524983704,0.2414233225315809,-0.1305252015590667,-0.0196653306484222,0.0005537383258342,walking,2026-03-04_14-01-59
1772632924055641300,4.760641357421875,0.0592677066026255,-0.4298365010179579,0.1794476356118917,-0.1344357877969741,-0.0334064438939094,0.0222281403839588,walking,2026-03-04_14-01-59
1772632924065590300,4.77059033203125,-0.0110574371198192,-0.4337333623260259,0.1225333237349987,-0.155700609087944,-0.0557873845100402,0.0314919464290142,walking,2026-03-04_14-01-59
1772632924075539700,4.780539794921875,-0.0980181103553622,-0.4770965571038424,-0.0598357522815465,-0.1703005731105804,-0.0625379011034965,0.0286946892738342,walking,2026-03-04_14-01-59
1772632924085488600,4.790488525390625,-0.1476779575919732,-0.4825758652977645,-0.4281073391377926,-0.1605704426765442,-0.0231380313634872,0.026835536584258,walking,2026-03-04_14-01-59
1772632924095437600,4.8004375,-0.2075340950744226,-0.3956114292025566,-0.7227069560617208,-0.13259357213974,0.0344416797161102,0.0349904783070087,walking,2026-03-04_14-01-59
1772632924105386500,4.810386474609375,-0.2031147807948291,-0.3008008096516132,-0.8852408662736415,-0.089103877544403,0.0801559016108512,0.0512171201407909,walking,2026-03-04_14-01-59
1772632924115335400,4.82033544921875,-0.1460372411802411,-0.2746818874023854,-0.968482628583908,-0.0367951579391956,0.099828615784645,0.082527607679367,walking,2026-03-04_14-01-59
1772632924125284400,4.830284423828125,-0.1331756772479042,-0.2309777702324092,-0.9935860901802778,0.017898978665471,0.1036505177617073,0.1177889257669448,walking,2026-03-04_14-01-59
1772632924135233300,4.8402333984375,-0.1688128808835521,-0.2295889462225139,-0.8840291523963213,0.06048583984375,0.0891117304563522,0.1509146988391876,walking,2026-03-04_14-01-59
1772632924145182500,4.850182373046875,-0.2653768834404647,-0.3245442349411547,-0.7899468471199274,0.0900719612836837,0.1280820220708847,0.1840191185474395,walking,2026-03-04_14-01-59
1772632924155131600,4.860131591796875,-0.4582080975648015,-0.4385110981218517,-0.7628057422161102,0.1082732155919075,0.2023111432790756,0.2021475881338119,walking,2026-03-04_14-01-59
1772632924165080600,4.87008056640625,-0.569346422788687,-0.5674763546004891,-0.6523568240284919,0.1234154179692268,0.2790197730064392,0.2119070142507553,walking,2026-03-04_14-01-59
1772632924175029500,4.880029541015625,-0.5156546531548724,-0.7154520164974033,-0.5056237095385789,0.1419682949781417,0.3473672866821289,0.2278570532798767,walking,2026-03-04_14-01-59
1772632924184978400,4.889978515625,-0.3783103484528139,-0.8581678581699729,-0.2941892825573682,0.165170282125473,0.3593057096004486,0.2555392980575561,walking,2026-03-04_14-01-59
1772632924194927400,4.89992724609375,-0.2108868761010467,-0.9777803260222075,-0.0310538944333791,0.1868815422058105,0.2877980172634125,0.2925190925598144,walking,2026-03-04_14-01-59
1772632924204876500,4.90987646484375,-0.1294701372608542,-1.1186571156993508,0.2025754132211208,0.1912286132574081,0.1369198262691497,0.3111612200736999,walking,2026-03-04_14-01-59
1772632924214825500,4.919825439453125,-0.2089985781364143,-1.2976479474544524,0.240714297479391,0.1826609373092651,-0.0203071534633636,0.2964800000190735,walking,2026-03-04_14-01-59
1772632924224774700,4.929774658203125,-0.4556856664150953,-1.3774370850928126,0.1094938094198703,0.1524934470653534,-0.139156311750412,0.2457648962736129,walking,2026-03-04_14-01-59
1772632924234723600,4.9397236328125,-0.6897919439315795,-1.3760203501626849,-0.1954974376589059,0.1113551631569862,-0.1772940754890442,0.1839498430490493,walking,2026-03-04_14-01-59
1772632924244672500,4.949672607421875,-0.7946125008434056,-1.265733198408037,-0.5407400311052799,0.0556093379855155,-0.1739366203546524,0.1289217472076416,walking,2026-03-04_14-01-59
1772632924254621400,4.959621337890625,-0.8034433844875544,-1.0747096912927925,-0.8692045082300901,0.0023396015167236,-0.1520617753267288,0.0938008353114128,walking,2026-03-04_14-01-59
1772632924264570400,4.9695703125,-0.7513860111225396,-0.8353143674574792,-1.205351356551051,-0.0375444293022155,-0.1301197260618209,0.0745062306523323,walking,2026-03-04_14-01-59
1772632924274519600,4.97951953125,-0.7411132581070065,-0.6015795536018907,-1.536824367842078,-0.0588780492544174,-0.1218192353844642,0.0506547875702381,walking,2026-03-04_14-01-59
1772632924284468500,4.989468505859375,-0.8278812217820435,-0.3463268815517425,-1.8468103544682264,-0.0529623664915561,-0.1125237345695495,0.0135292550548911,walking,2026-03-04_14-01-59
1772632924294417400,4.99941748046875,-0.8628567466385662,-0.0848554811172187,-2.095693345355988,-0.0201941542327404,-0.0961344763636589,-0.0322776846587657,walking,2026-03-04_14-01-59
1772632924304366600,5.00936669921875,-0.7781793985672295,0.2018460760332643,-2.327441661569476,0.0409722626209259,-0.0587655343115329,-0.0576102063059806,walking,2026-03-04_14-01-59
1772632924314315500,5.0193154296875,-0.5752928005050868,0.4917458447031676,-2.411305355170369,0.1157259494066238,-0.0025017510633915,-0.0505706258118152,walking,2026-03-04_14-01-59
1772632924324264400,5.029264404296875,-0.3341920609913766,0.7415230079516768,-2.2742139292508363,0.1831761002540588,0.0599624216556549,-0.0081017268821597,walking,2026-03-04_14-01-59
1772632924334213400,5.03921337890625,-0.1759730548365041,0.891869198372215,-1.9083365440547464,0.2325590103864669,0.1100325956940651,0.0476378500461578,walking,2026-03-04_14-01-59
1772632924344162600,5.04916259765625,-0.1224673823593184,0.9137192111305892,-1.4316981059819458,0.2572500109672546,0.1322979629039764,0.094907633960247,walking,2026-03-04_14-01-59
1772632924354111500,5.059111572265625,-0.1252192748833447,0.8387567629963159,-0.968510685634613,0.2651662826538086,0.1294809877872467,0.131954163312912,walking,2026-03-04_14-01-59
1772632924364060400,5.069060302734375,-0.185615327928774,0.7104555233843625,-0.5556704737335443,0.2510318160057068,0.0986242741346359,0.1543052643537521,walking,2026-03-04_14-01-59
1772632924374009300,5.07900927734375,-0.2718168533600866,0.5033182090751827,-0.2938426610767841,0.2321121841669082,0.0665536895394325,0.1567087769508361,walking,2026-03-04_14-01-59
1772632924383958500,5.08895849609375,-0.3626057431142777,0.3105722620815038,-0.2294505606651306,0.2335398942232132,0.060073684900999,0.1430853754281997,walking,2026-03-04_14-01-59
1772632924393907500,5.098907470703125,-0.4038125270431861,0.2303847727753221,-0.2790916666686535,0.2676337957382202,0.099176324903965,0.1206541433930397,walking,2026-03-04_14-01-59
1772632924403856600,5.108856689453125,-0.3854491142915561,0.1895971275739371,-0.2825432684272527,0.3229854702949524,0.1540619432926178,0.0932222530245781,walking,2026-03-04_14-01-59
1772632924413805600,5.1188056640625,-0.2873998416129499,0.1988580001331865,-0.1156219369113445,0.3870236873626709,0.1925748884677887,0.0624833106994628,walking,2026-03-04_14-01-59
1772632924423754500,5.12875439453125,-0.098881339588575,0.2944606468446553,0.1927671359121799,0.4473453462123871,0.2191969156265258,0.0333344787359237,walking,2026-03-04_14-01-59
1772632924433703400,5.138703369140625,0.1150709884976968,0.4351584266930818,0.5517465782880783,0.4969761669635772,0.224359393119812,0.0050041964277625,walking,2026-03-04_14-01-59
1772632924443652400,5.14865234375,0.2790332510123029,0.6288257263153791,0.9435732282549142,0.5193800330162048,0.1903646737337112,-0.0195291079580783,walking,2026-03-04_14-01-59
1772632924453601500,5.1586015625,0.4560325801566243,0.812027161502838,1.316177875879407,0.507749617099762,0.1029549017548561,-0.0406596697866916,walking,2026-03-04_14-01-59
1772632924463550500,5.168550537109375,0.5977483414085581,0.9787569159694016,1.6770903321444988,0.4654639661312103,0.0041023562662303,-0.0558620579540729,walking,2026-03-04_14-01-59
1772632924473499600,5.178499755859375,0.6717712071377784,1.1394655104503035,1.830771658337116,0.4004569053649902,-0.0655057877302169,-0.0561793148517608,walking,2026-03-04_14-01-59
1772632924483448600,5.188448486328125,0.7705756455652415,1.293919720711559,1.825421529480815,0.3241546750068664,-0.1150357872247695,-0.0459375977516174,walking,2026-03-04_14-01-59
1772632924493397500,5.1983974609375,0.8986606851432472,1.3975503371864555,1.743372191825509,0.2483046054840088,-0.1345516145229339,-0.0165918096899986,walking,2026-03-04_14-01-59
1772632924503346400,5.208346435546875,0.9676254272326826,1.4452683661729095,1.6472995895147322,0.1679556965827942,-0.1506759971380233,0.0127160120755434,walking,2026-03-04_14-01-59
1772632924513295400,5.21829541015625,0.953429290228337,1.4140413071297109,1.5734791510224342,0.0806723907589912,-0.1835382580757141,0.0292128771543502,walking,2026-03-04_14-01-59
1772632924523244300,5.228244384765625,0.8609896375924349,1.3214390112780037,1.470387609860301,-0.0193788427859544,-0.2391581088304519,0.0300624258816242,walking,2026-03-04_14-01-59
1772632924533193500,5.238193359375,0.5770615637432783,1.199987053038925,1.299343645456433,-0.1355879157781601,-0.2971526980400085,0.0012276282068341,walking,2026-03-04_14-01-59
1772632924543142700,5.248142578125,0.1546816258089617,1.0823280573420226,1.025190019711852,-0.268080472946167,-0.3355073034763336,-0.0663711279630661,walking,2026-03-04_14-01-59
1772632924553091600,5.258091552734375,-0.2441891705157235,1.0139286209851504,0.5988502747684716,-0.3887051343917846,-0.3392591178417206,-0.1645653992891311,walking,2026-03-04_14-01-59
1772632924563040500,5.26804052734375,-0.550496760890074,1.032870783472806,0.0206990891575813,-0.4765569567680359,-0.2845026552677154,-0.2683487832546234,walking,2026-03-04_14-01-59
1772632924572989400,5.277989501953125,-0.5544044723857194,1.1723907517135144,-0.6476087527185678,-0.4970600605010986,-0.1952805072069168,-0.3390123248100281,walking,2026-03-04_14-01-59
1772632924582938400,5.2879384765625,-0.3444666406378149,1.3870498398296534,-1.2336965765476229,-0.4454255998134613,-0.0652852207422256,-0.3571636378765106,walking,2026-03-04_14-01-59
1772632924592887300,5.29788720703125,-0.0139322619037702,1.5700458155728876,-1.6480968773722648,-0.3318105041980743,0.124317891895771,-0.3109570145606994,walking,2026-03-04_14-01-59
1772632924602836500,5.30783642578125,0.2830804805764928,1.720721384078264,-1.7967606676638126,-0.1860548853874206,0.3279322683811188,-0.2100549042224884,walking,2026-03-04_14-01-59
1772632924612785700,5.31778564453125,0.5690558058116585,1.723491871704906,-1.4314081831246614,-0.0556279867887496,0.4551840126514435,-0.0884078815579414,walking,2026-03-04_14-01-59
1772632924623356700,5.328356689453125,0.694878015024215,1.5823941327534614,-0.9544920971542596,0.035112839192152,0.4774075448513031,0.0321654081344604,walking,2026-03-04_14-01-59
1772632924633305600,5.3383056640625,0.8386586363840848,1.1771912838630378,0.0859387463092803,0.0634720399975776,0.4304610788822174,0.115754410624504,walking,2026-03-04_14-01-59
1772632924643254500,5.348254638671875,0.7812861324109137,0.698685444483161,1.0773194353997706,0.0511011220514774,0.3529793322086334,0.1660617887973785,walking,2026-03-04_14-01-59
1772632924653203500,5.358203369140625,0.6883403568837791,0.4051718692302704,1.5172902308106422,0.0106181371957063,0.2740229666233063,0.1972182095050811,walking,2026-03-04_14-01-59
1772632924663152400,5.36815234375,0.5524373370312154,0.1337970605492592,1.8574346243351696,-0.0464230440557003,0.1894431263208389,0.2061661630868911,walking,2026-03-04_14-01-59
1772632924673101300,5.378101318359375,0.4305097971696406,-0.1204309446282684,1.9853654231995344,-0.1033391281962394,0.0980322733521461,0.1902210414409637,walking,2026-03-04_14-01-59
1772632924683050500,5.388050537109375,0.3246777251277118,-0.2875656266339123,1.9665093315601347,-0.1482195258140564,0.0022527494002133,0.1582481861114502,walking,2026-03-04_14-01-59
1772632924692999700,5.397999755859375,0.2214382999274879,-0.3394305461667478,1.8176093944251537,-0.1814500540494918,-0.0649450942873954,0.1209551841020584,walking,2026-03-04_14-01-59
1772632924702948600,5.407948486328125,0.1258746700521558,-0.318089798104763,1.6157546966940164,-0.2074430435895919,-0.111701413989067,0.0860107839107513,walking,2026-03-04_14-01-59
1772632924712897500,5.4178974609375,0.0748238799137994,-0.2997476473368704,1.3985896171063184,-0.2309457063674926,-0.1437091529369354,0.0586521327495574,walking,2026-03-04_14-01-59
1772632924722846500,5.427846435546875,0.0597785056689754,-0.2771083838969468,1.1602782891154289,-0.2507955729961395,-0.1655188351869583,0.0365383066236972,walking,2026-03-04_14-01-59
1772632924732796400,5.43779638671875,0.0794496765509247,-0.2616534790031611,0.912607012104988,-0.2670512497425079,-0.1618513315916061,0.0206116661429405,walking,2026-03-04_14-01-59
1772632924742745300,5.447745361328125,0.0844315566167235,-0.2686032981410622,0.6349982774704694,-0.269887775182724,-0.1385137885808944,0.0167415607720613,walking,2026-03-04_14-01-59
1772632924752694500,5.457694580078125,0.0540345917221158,-0.2677164323039352,0.3773462891936301,-0.2616101503372192,-0.1116865575313568,0.0077625564299523,walking,2026-03-04_14-01-59
1772632924762643500,5.4676435546875,0.0443629464048892,-0.3141609342232346,0.1666109503924846,-0.2397538721561432,-0.0924212485551834,-0.0024250999558717,walking,2026-03-04_14-01-59
1772632924772592600,5.477592529296875,0.0622676190709695,-0.3938496802270412,-0.0111941787093877,-0.1997016221284866,-0.078585110604763,-0.0154327843338251,walking,2026-03-04_14-01-59
1772632924782541600,5.48754150390625,0.0371501654818654,-0.4549892085835337,-0.1396989780694246,-0.1525559425354004,-0.0676975697278976,-0.0337553322315216,walking,2026-03-04_14-01-59
1772632924792490500,5.497490478515625,0.0221588595118373,-0.5244111198559404,-0.204546421033144,-0.1063761338591575,-0.0604104474186897,-0.0580117516219615,walking,2026-03-04_14-01-59
1772632924802439400,5.507439453125,0.0241342512380331,-0.6502183506950736,-0.2071265006542205,-0.0677120983600616,-0.040219958871603,-0.0828651711344719,walking,2026-03-04_14-01-59
1772632924812388400,5.517388427734375,0.0054564022423699,-0.7644710450798272,-0.1472778888911008,-0.043753258883953,-0.0198114160448312,-0.1135825291275978,walking,2026-03-04_14-01-59
1772632924822337300,5.527337158203125,0.0216984389258548,-0.8711449747733772,-0.0277589445412158,-0.037094559520483,-0.0235584825277328,-0.1459146440029144,walking,2026-03-04_14-01-59
1772632924832286700,5.53728662109375,0.1258374798469245,-0.9915465471766888,0.0063344637185335,-0.0281141735613346,-0.0250657517462968,-0.1689448803663253,walking,2026-03-04_14-01-59
1772632924842235600,5.547235595703125,0.1825972952818498,-1.0721459782846272,-0.0244973123967647,-0.0215305723249912,-0.0297273490577936,-0.1941687315702438,walking,2026-03-04_14-01-59
1772632924852184600,5.5571845703125,0.2065616698456928,-1.1267629730045794,-0.025973814690113,-0.0233741533011198,-0.0511675588786602,-0.2206020057201385,walking,2026-03-04_14-01-59
1772632924862133500,5.567133544921875,0.2448497898489236,-1.2077937812671065,-0.1195522620975971,-0.0176709946244955,-0.0602286979556083,-0.2475164383649826,walking,2026-03-04_14-01-59
1772632924872082400,5.57708251953125,0.2847748634042218,-1.2138237090811133,-0.3439876249492168,-0.0002284562215209,-0.0468154624104499,-0.263515293598175,walking,2026-03-04_14-01-59
1772632924882031900,5.587031982421875,0.2762670377019792,-1.161548893573135,-0.5077952083587646,0.0181585401296615,-0.0329662226140499,-0.2722741663455963,walking,2026-03-04_14-01-59
1772632924891980800,5.596980712890625,0.3728095590794458,-1.1444228405967354,-0.5331950225532055,0.0278429128229618,-0.0370326861739158,-0.2735494375228882,walking,2026-03-04_14-01-59
1772632924901929700,5.6069296875,0.5056935233717784,-1.0839819620288909,-0.5310469046086073,0.0402074381709098,-0.0464578792452812,-0.2628203332424164,walking,2026-03-04_14-01-59
1772632924911879000,5.61687890625,0.6026383054072036,-0.9475625901520252,-0.5889788690954446,0.0670489892363548,-0.0451902374625206,-0.2350275665521621,walking,2026-03-04_14-01-59
1772632924921827800,5.626827880859375,0.6824089940734207,-0.790302674820274,-0.6354886913359165,0.1009374484419822,-0.0520231090486049,-0.1912132501602172,walking,2026-03-04_14-01-59
1772632924931776800,5.63677685546875,0.8020300836235285,-0.7000390510492026,-0.6520329989016056,0.1432185620069503,-0.0547009781002998,-0.1422048062086105,walking,2026-03-04_14-01-59
1772632924941726000,5.646725830078125,0.9306212460927664,-0.7005842638418078,-0.6432505575090647,0.1895719468593597,-0.0572749227285385,-0.0954114720225334,walking,2026-03-04_14-01-59
1772632924951675000,5.6566748046875,1.0159062046684324,-0.6760187085144221,-0.5475859514772892,0.2263553142547607,-0.0744188949465751,-0.0502936393022537,walking,2026-03-04_14-01-59
1772632924962244900,5.667244873046875,1.0998374105475843,-0.6979464626841246,-0.434587348806858,0.2522353827953338,-0.120179459452629,-0.0056659821420907,walking,2026-03-04_14-01-59
1772632924972194000,5.677194091796875,1.0930150171816349,-0.7451631180197,-0.3443459368675947,0.2598593235015869,-0.1708886176347732,0.0231208615005016,walking,2026-03-04_14-01-59
1772632924982143000,5.68714306640625,0.9844158185139298,-0.7712478457383811,-0.3709451899796724,0.2586939334869385,-0.2040974348783493,0.0327567085623741,walking,2026-03-04_14-01-59
1772632924992092000,5.697091796875,0.7854254241727292,-0.7373097741708159,-0.5101315423518419,0.2505468130111694,-0.2174701541662216,0.0228972826153039,walking,2026-03-04_14-01-59
1772632925002040800,5.707040771484375,0.5852702603684737,-0.6975372973613441,-0.6431307305216789,0.2342306971549987,-0.2199636846780777,0.0052706189453601,walking,2026-03-04_14-01-59
1772632925011989800,5.71698974609375,0.500872204162553,-0.6069089319311082,-0.7702332618683576,0.2030901908874511,-0.2135368436574936,-0.0050709331408143,walking,2026-03-04_14-01-59
1772632925021938700,5.726938720703125,0.4075512021148577,-0.4885172380454838,-0.842829711523652,0.1650237739086151,-0.2189656943082809,-0.0168508924543857,walking,2026-03-04_14-01-59
1772632925031888000,5.736887939453125,0.3062542892845347,-0.3697919282913208,-0.8990805910557508,0.1116040870547294,-0.2351008951663971,-0.0303469896316528,walking,2026-03-04_14-01-59
1772632925041837000,5.746837158203125,0.1175910450272262,-0.2235119643963873,-0.9307844738304616,0.0372616797685623,-0.2673933207988739,-0.0555812418460845,walking,2026-03-04_14-01-59
1772632925051786000,5.756785888671875,-0.1287006141930818,-0.0671868456967175,-1.0276917733997106,-0.0444009788334369,-0.3031433820724487,-0.0968154221773147,walking,2026-03-04_14-01-59
1772632925061735000,5.76673486328125,-0.3691356563396751,0.1443267840005457,-1.3172300152808427,-0.1136554181575775,-0.2843678295612335,-0.1319499760866165,walking,2026-03-04_14-01-59
1772632925071683800,5.776683837890625,-0.5646490222200751,0.3726937872126698,-1.7040736161381005,-0.1639507710933685,-0.1897655725479126,-0.1691831052303314,walking,2026-03-04_14-01-59
1772632925081632800,5.7866328125,-0.6512219017144292,0.6881095438025892,-1.8960627534151075,-0.1700848340988159,-0.0873201489448547,-0.1700100153684616,walking,2026-03-04_14-01-59
1772632925091581700,5.796581787109375,-0.593869819474779,1.016632034724951,-2.042629863688349,-0.11815045773983,0.036131128668785,-0.1469363123178482,walking,2026-03-04_14-01-59
1772632925101531000,5.80653076171875,-0.4361428346205502,1.2312002296872435,-2.042388456147909,-0.023072151467204,0.1365070044994354,-0.1147607937455177,walking,2026-03-04_14-01-59
1772632925111479800,5.816479736328125,-0.2634591584519483,1.3359379306212067,-1.841719168809056,0.1074483022093772,0.2263732403516769,-0.07603220641613,walking,2026-03-04_14-01-59
1772632925121429000,5.826428955078125,-0.145536780844815,1.4606439222201704,-1.3459884922534229,0.2276444882154464,0.279959499835968,-0.029425024986267,walking,2026-03-04_14-01-59
1772632925131378000,5.8363779296875,-0.1388625637779012,1.4927715833649038,-0.5988894377350806,0.3165924847126007,0.2972992062568664,0.0182369258254766,walking,2026-03-04_14-01-59
1772632925141326800,5.846326904296875,-0.2127793753167614,1.390614546573907,0.1102051725596189,0.3677611351013183,0.3007059097290039,0.0470565892755985,walking,2026-03-04_14-01-59
1772632925151275800,5.85627587890625,-0.3860150410786271,1.245442690051347,0.7571709511995315,0.3790878057479858,0.3247719705104828,0.0395140945911407,walking,2026-03-04_14-01-59
1772632925161225000,5.866224853515625,-0.6323474707007408,1.1175379024110734,1.2290624870061877,0.350907564163208,0.3342291414737701,-0.0029135236982256,walking,2026-03-04_14-01-59
1772632925171174000,5.876173828125,-0.7067943705283105,0.9445828436888754,1.6002660356611011,0.300641655921936,0.2984613180160522,-0.0491875931620597,walking,2026-03-04_14-01-59
1772632925181122800,5.886122802734375,-0.7450041280657053,0.9007891485393048,1.792537497010827,0.2407924234867096,0.1869584769010543,-0.1394849866628646,walking,2026-03-04_14-01-59
1772632925191071700,5.89607177734375,-0.6632565498359501,1.0161822451308369,1.8409505225241185,0.217742770910263,0.0323515906929969,-0.1979408413171768,walking,2026-03-04_14-01-59
1772632925201021000,5.90602099609375,-0.3767132154544815,1.0564439667619765,1.561315835019946,0.2195028513669967,-0.0607698261737823,-0.194727212190628,walking,2026-03-04_14-01-59
1772632925210969900,5.915969970703125,-0.5017711257636547,1.2430742073543368,1.3206716801673173,0.2021158635616302,-0.0854038000106811,-0.1974252611398697,walking,2026-03-04_14-01-59
1772632925220918800,5.925918701171875,-0.8395713673148304,1.2533610619604587,1.2480910126030444,0.1332763582468032,-0.057315707206726,-0.2370877116918563,walking,2026-03-04_14-01-59
1772632925230868000,5.935867919921875,-1.0324391140572726,1.0557210593149065,1.2418781294375658,0.0126725081354379,-0.0258833020925521,-0.3157336115837097,walking,2026-03-04_14-01-59
1772632925240817000,5.94581689453125,-1.2213269973833114,0.9687282739080488,1.2534054856240748,-0.1392131745815277,0.0126851303502917,-0.4083064198493957,walking,2026-03-04_14-01-59
1772632925250765800,5.955765869140625,-1.2746379510059953,1.020171022506058,1.1332388910204172,-0.2925013601779938,0.0874935463070869,-0.4813173115253448,walking,2026-03-04_14-01-59
1772632925260714800,5.96571484375,-1.0955055188231169,1.103149457705021,0.8872247335672379,-0.416477620601654,0.1760154366493225,-0.5129519701004028,walking,2026-03-04_14-01-59
1772632925270664000,5.975663818359375,-0.7574013258893042,1.1875193472623824,0.6235258663415908,-0.4910095334053039,0.2436156123876571,-0.503354012966156,walking,2026-03-04_14-01-59
1772632925280612900,5.98561279296875,-0.4513587065940722,1.215021686694026,0.4130325196027755,-0.5167298316955566,0.2656449973583221,-0.4612153172492981,walking,2026-03-04_14-01-59
1772632925290561800,5.995561767578125,-0.1506911314006895,1.1444862612217663,0.2861585363149643,-0.4994111061096191,0.2194061577320099,-0.4082947373390198,walking,2026-03-04_14-01-59
1772632925300511000,6.005510986328125,0.1551302828919142,1.045291435237229,0.1623421870321035,-0.4390212297439575,0.1258708834648132,-0.3398490846157074,walking,2026-03-04_14-01-59
1772632925310460000,6.0154599609375,0.3210116038355976,0.9911027489319444,0.0088566756725311,-0.3656791448593139,0.0037574998568743,-0.2616638243198395,walking,2026-03-04_14-01-59
1772632925320408800,6.025408935546875,0.3361820657648146,0.8939785917416214,-0.0978337667644023,-0.3037545084953308,-0.0948452353477478,-0.1897046566009521,walking,2026-03-04_14-01-59
1772632925330357800,6.035357666015625,0.2035661778241395,0.683577014939487,-0.1690145044028758,-0.2716925144195556,-0.1421482264995575,-0.1452684998512268,walking,2026-03-04_14-01-59
1772632925340306700,6.045306640625,-0.0105693248093128,0.4589524131260812,-0.2436830841571092,-0.2652998566627502,-0.1296683847904205,-0.1322155445814132,walking,2026-03-04_14-01-59
1772632925350255900,6.055255859375,-0.1219306086014956,0.2542451024428009,-0.276975697427988,-0.2745448648929596,-0.0845364928245544,-0.131532609462738,walking,2026-03-04_14-01-59
1772632925360205000,6.065205078125,-0.1071819522809237,0.1430618786312639,-0.3352951999276876,-0.2865842282772064,-0.0329350866377353,-0.1218261867761612,walking,2026-03-04_14-01-59
1772632925370154000,6.075154052734375,0.0136857032641768,0.0926036110259592,-0.3497685464382171,-0.27888223528862,-8.40306747704e-05,-0.0912245437502861,walking,2026-03-04_14-01-59
1772632925380103000,6.08510302734375,0.1503673062738031,0.0762858056925237,-0.4069821335226297,-0.2413958460092544,-0.0093323905020952,-0.0459569282829761,walking,2026-03-04_14-01-59
1772632925390051800,6.0950517578125,0.2598034672223031,0.0663761138357222,-0.4747276360154152,-0.1679697930812835,-0.038038745522499,0.0082919178530573,walking,2026-03-04_14-01-59
1772632925400000800,6.105000732421875,0.2398051467452198,0.050082712291181,-0.5289566543310881,-0.0869311392307281,-0.065996877849102,0.0570251010358333,walking,2026-03-04_14-01-59
1772632925409949700,6.11494970703125,0.1074568236995488,-0.0046361353680491,-0.4533358884185552,-0.0215191673487424,-0.0744209066033363,0.0872370526194572,walking,2026-03-04_14-01-59
1772632925419898600,6.124898681640625,-0.1085630313757806,-0.0927465266279876,-0.2513631172657012,0.0052061863243579,-0.0708045959472656,0.09436846524477,walking,2026-03-04_14-01-59
1772632925429848000,6.13484814453125,-0.348667088002339,-0.1731274926796555,0.014037877702713,-0.0116517897695302,-0.0476824603974819,0.0835993438959121,walking,2026-03-04_14-01-59
1772632925439797000,6.144796875,-0.4586892321452498,-0.2332676347352564,0.2844605002254247,-0.0570975691080093,-0.0131183583289384,0.0703921988606453,walking,2026-03-04_14-01-59
1772632925449746000,6.154745849609375,-0.5125010114295407,-0.2609580440849066,0.5040776491403579,-0.1213537752628326,0.0116989025846123,0.0584432519972324,walking,2026-03-04_14-01-59
1772632925459694800,6.16469482421875,-0.5534091046728193,-0.3099249040886759,0.6473118155986071,-0.1806391924619674,0.0331131145358085,0.0397547855973243,walking,2026-03-04_14-01-59
1772632925469643800,6.174643798828125,-0.5064546439373866,-0.3270619168505072,0.6285971782565116,-0.2141529768705368,0.0475454553961753,0.0298815611749887,walking,2026-03-04_14-01-59
1772632925479592700,6.1845927734375,-0.4058962014494464,-0.2425306992515921,0.5889022967278957,-0.213596910238266,0.0199343357235193,0.036788735538721,walking,2026-03-04_14-01-59
1772632925489542000,6.1945419921875,-0.2255515073999762,-0.1452870073348283,0.4717758004724979,-0.1779466867446899,-0.0360248237848281,0.0653740912675857,walking,2026-03-04_14-01-59
1772632925499491000,6.204490966796875,-0.0783821203846484,-0.0712120095595717,0.2820171987265348,-0.1081420332193374,-0.0723247751593589,0.1128129810094833,walking,2026-03-04_14-01-59
1772632925509440000,6.21443994140625,-0.0587304579207673,0.006795943750441,0.094156539556384,-0.0285755731165409,-0.0669193565845489,0.1644724458456039,walking,2026-03-04_14-01-59
1772632925519389000,6.224388916015625,-0.1050061426118016,-0.0069371057868003,0.1060164886981248,0.0251174829900264,-0.0513566434383392,0.2069152444601059,walking,2026-03-04_14-01-59
1772632925529337900,6.234337890625,-0.2138118236370384,-0.1428277776144444,0.3547703002482652,0.0175362806767225,-0.056229367852211,0.2254669517278671,walking,2026-03-04_14-01-59
1772632925539286800,6.244286865234375,-0.4387720871455967,-0.3080292996004223,0.5703992563098669,-0.0265339743345975,-0.0196090377867221,0.2112054526805877,walking,2026-03-04_14-01-59
1772632925549235700,6.254235595703125,-0.5492530079066753,-0.4668953349545597,0.6660895813047886,-0.07959995418787,0.0519223622977733,0.1831749826669693,walking,2026-03-04_14-01-59
1772632925559185000,6.264184814453125,-0.4951208010289817,-0.5341033695697784,0.7089864737451076,-0.1298708468675613,0.1078048050403595,0.1683363765478134,walking,2026-03-04_14-01-59
1772632925569133800,6.2741337890625,-0.3146030519675463,-0.571033170299232,0.8057546571046114,-0.1679094135761261,0.108845055103302,0.1667209565639495,walking,2026-03-04_14-01-59
1772632925579084000,6.284083984375,-0.0622587416447699,-0.6476257038533687,0.7027730060577392,-0.1639000177383422,0.1052663028240203,0.1815126836299896,walking,2026-03-04_14-01-59
1772632925589033000,6.294032958984375,0.0913623057279735,-0.649658086463809,0.5240267967134714,-0.1268260776996612,0.0861694887280464,0.2111850082874298,walking,2026-03-04_14-01-59
1772632925598982000,6.30398193359375,0.1345423624912276,-0.6209878722965717,0.4543120399743318,-0.0859713330864906,0.0414630025625228,0.2303810715675354,walking,2026-03-04_14-01-59
1772632925608930800,6.313930908203125,0.1187571296645328,-0.6983937680602074,0.4429717307925224,-0.0577909424901008,-0.0120519883930683,0.2379844635725021,walking,2026-03-04_14-01-59
1772632925618879700,6.323879638671875,0.0525863656751811,-0.7490735694617032,0.3621364451020956,-0.0398332513868808,-0.0642134621739387,0.2282799035310745,walking,2026-03-04_14-01-59
1772632925628828700,6.33382861328125,-0.1085281792581081,-0.7533416021697222,0.2402753215402364,-0.045565191656351,-0.1020141690969467,0.1987527757883072,walking,2026-03-04_14-01-59
1772632925638777900,6.34377783203125,-0.2335216825615614,-0.7606282520465553,0.069943304798007,-0.0759420022368431,-0.1128204762935638,0.1701679974794387,walking,2026-03-04_14-01-59
1772632925648727000,6.35372705078125,-0.288423631702736,-0.7515737157143652,-0.2052022545933723,-0.1157638728618621,-0.0964445322751998,0.1408921331167221,walking,2026-03-04_14-01-59
1772632925658676000,6.363676025390625,-0.3376512615345418,-0.6720761083684861,-0.5624824918359518,-0.1503205150365829,-0.0716691389679908,0.1197272017598152,walking,2026-03-04_14-01-59
1772632925668625000,6.373625,-0.3365601783622056,-0.5936132508978247,-0.8897223956018686,-0.1734033375978469,-0.0644393563270568,0.11312036216259,walking,2026-03-04_14-01-59
1772632925678573800,6.38357373046875,-0.238631719051674,-0.4821081016555428,-1.2214058347731829,-0.1532368212938308,0.0154003491625189,0.137179896235466,walking,2026-03-04_14-01-59
1772632925688522800,6.393522705078125,-0.2826520260313526,-0.3157620858095586,-1.521694018727541,-0.0969764292240142,0.0635407716035842,0.1938805431127548,walking,2026-03-04_14-01-59
1772632925698471700,6.4034716796875,-0.1418047912422567,-0.2698046367548406,-1.9130179798692464,0.0330260470509529,0.1674543917179107,0.289937824010849,walking,2026-03-04_14-01-59
1772632925708420900,6.4134208984375,-0.2313007551090791,-0.2082161955870687,-2.0938392419219016,0.1869184821844101,0.2617571949958801,0.3615964651107788,walking,2026-03-04_14-01-59
1772632925718370000,6.4233701171875,-0.3690314653128385,-0.3365466612935066,-1.7795798157602547,0.3232110738754272,0.3047206401824951,0.4121906757354736,walking,2026-03-04_14-01-59
1772632925728319000,6.433319091796875,-0.3497917081180959,-0.6563742429763079,-1.2473399019747973,0.4179668724536896,0.2914718389511108,0.4447170794010162,walking,2026-03-04_14-01-59
1772632925738268000,6.443267822265625,-0.3023644422391429,-0.9160507228180764,-0.5881862574130297,0.4567677974700928,0.2099716812372207,0.4672133326530456,walking,2026-03-04_14-01-59
1772632925748216800,6.453216796875,-0.2761306979712098,-1.077044710111618,-0.0020446575701236,0.4324686229228973,0.0725721269845962,0.4775402247905731,walking,2026-03-04_14-01-59
1772632925758165800,6.463165771484375,-0.3744402655538171,-1.2006887715674937,0.3549000641077757,0.3642714619636535,-0.0668374374508857,0.4691883027553558,walking,2026-03-04_14-01-59
1772632925768114700,6.47311474609375,-0.6892609788600355,-1.3184215631529688,0.3039280017614364,0.2862807214260101,-0.138185903429985,0.4247282743453979,walking,2026-03-04_14-01-59
1772632925778064000,6.48306396484375,-1.0526929436653851,-1.3330482005290687,-0.0341267260074615,0.2218630909919738,-0.1376956105232238,0.3467344045639038,walking,2026-03-04_14-01-59
1772632925788013000,6.493012939453125,-1.245811815624684,-1.326071493384242,-0.4450561358511448,0.1771561503410339,-0.0804051682353019,0.2593052685260772,walking,2026-03-04_14-01-59
1772632925797962000,6.5029619140625,-1.1958131283551454,-1.2035941376201809,-0.7597937009185552,0.1515109837055206,-0.0311513412743806,0.1847223788499832,walking,2026-03-04_14-01-59
1772632925807911000,6.512910888671875,-1.0126472028724849,-1.0027655680663885,-0.9126508512467144,0.1441042870283126,-0.0139667205512523,0.1408773511648178,walking,2026-03-04_14-01-59
1772632925817859800,6.52285986328125,-0.6966571535259485,-0.7764863309137523,-1.0030109211295843,0.1501565873622894,-0.020772960036993,0.1229574605822563,walking,2026-03-04_14-01-59
1772632925827808800,6.532808837890625,-0.4388075968503951,-0.5492882253505289,-1.0311416215926408,0.1663869023323059,-0.0444491803646087,0.1215998604893684,walking,2026-03-04_14-01-59
1772632925837758000,6.542758056640625,-0.3303038579137995,-0.2969457416586578,-1.0024608860313893,0.1658188551664352,-0.08387141674757,0.1150420904159545,walking,2026-03-04_14-01-59
1772632925847707000,6.552706787109375,-0.366947023721598,-0.0411303211592137,-0.8932850565195083,0.1433969587087631,-0.1404215991497039,0.097291775047779,walking,2026-03-04_14-01-59
1772632925857655800,6.56265576171875,-0.4306432508235797,0.1661997392430901,-0.86629534278512,0.1019091755151748,-0.1856521964073181,0.0703184828162193,walking,2026-03-04_14-01-59
1772632925867605000,6.57260498046875,-0.493073001653701,0.3452465389691293,-1.0072124644726514,0.0654161423444747,-0.1909897029399871,0.038145899772644,walking,2026-03-04_14-01-59
1772632925877554000,6.582553955078125,-0.5351497733501717,0.5504940940089523,-1.2544172930151225,0.049377791583538,-0.138512909412384,0.0124317482113838,walking,2026-03-04_14-01-59
1772632925887502300,6.59250244140625,-0.532370700558275,0.7318857032954692,-1.5142168147146702,0.0631936118006706,-0.0481271892786026,-0.0057115042582154,walking,2026-03-04_14-01-59
1772632925897451500,6.602451416015625,-0.3510193502169102,0.8892140076883137,-1.6699194176018235,0.1166371256113052,0.0494406446814537,0.002050278475508,walking,2026-03-04_14-01-59
1772632925907400400,6.612400390625,-0.0526878167556598,1.0495185514129697,-1.6422446442127228,0.1962589174509048,0.1169539913535118,0.042636401951313,walking,2026-03-04_14-01-59
1772632925917349400,6.622349365234375,0.2463224562173709,1.1497267922237515,-1.3969634772092103,0.2790358364582062,0.1478804796934127,0.1185277104377746,walking,2026-03-04_14-01-59
1772632925927298300,6.63229833984375,0.4290032285315915,1.1212876103334128,-1.0375701933354138,0.3490999341011047,0.153223767876625,0.2086450010538101,walking,2026-03-04_14-01-59
1772632925937247200,6.642247314453125,0.3723962290382012,0.9762745976343752,-0.5730290202915668,0.3880364000797272,0.152987003326416,0.2668648958206177,walking,2026-03-04_14-01-59
