time,seconds_elapsed,acc_x,acc_y,acc_z,gyr_x,gyr_y,gyr_z,activity,session
1772632902992341000,0.067341064453125,-0.4562904639078304,0.5170965590588749,-1.1096382352024317,0.1345929950475692,0.0714073181152343,0.5465319752693176,walking,2026-03-04_14-01-42
1772632903002290000,0.0772900390625,-0.7348726101517676,0.4644892967261373,-1.0537550199389456,0.1361184567213058,0.1576676368713379,0.5074495077133179,walking,2026-03-04_14-01-42
1772632903012239000,0.087239013671875,-1.0956444158371537,0.3443666873946786,-0.9244698838561772,0.1156429350376129,0.2329751998186111,0.4444248974323272,walking,2026-03-04_14-01-42
1772632903022188300,0.097188232421875,-1.3952096192792056,0.2876841384470462,-0.7343611534982919,0.0931259095668792,0.3139608502388,0.3744125068187713,walking,2026-03-04_14-01-42
1772632903032137200,0.10713720703125,-1.486028392715007,0.2451741994976997,-0.5799468368560076,0.0719470679759979,0.3851646184921264,0.3169283866882324,walking,2026-03-04_14-01-42
1772632903042086100,0.117086181640625,-1.489669817957282,0.2374928512148559,-0.3781283794820308,0.0454400889575481,0.410568505525589,0.238748088479042,walking,2026-03-04_14-01-42
1772632903052035000,0.12703515625,-1.6005074432015418,0.29630744375512,-0.1149883151829242,0.0164717659354209,0.4023061096668243,0.1692526340484619,walking,2026-03-04_14-01-42
1772632903061984000,0.13698388671875,-1.5093926094286143,0.2767914269022643,0.0784241328954696,-0.0310470163822174,0.3656961619853973,0.1160162985324859,walking,2026-03-04_14-01-42
1772632903071933000,0.146932861328125,-1.4967217822954058,0.3894249956525862,0.2416308278024196,-0.082063041627407,0.2989206612110138,0.0891753956675529,walking,2026-03-04_14-01-42
1772632903081882000,0.156882080078125,-1.585211528261751,0.6257676539190113,0.2627139478415251,-0.105987548828125,0.2194066792726516,0.0731836408376693,walking,2026-03-04_14-01-42
1772632903091831000,0.1668310546875,-1.7100100204497577,0.8012181827187538,0.1381967568129301,-0.0891020372509956,0.1446453481912613,0.0504975020885467,walking,2026-03-04_14-01-42
1772632903101780200,0.1767802734375,-1.8340867742344733,0.8478798345200717,-0.1597200218349695,-0.0309774838387966,0.1143990382552146,0.02353379689157,walking,2026-03-04_14-01-42
1772632903111729200,0.186729248046875,-1.9193160571001469,0.9066169779099524,-0.4858674541890621,0.0494666770100593,0.1263374835252761,0.0067830001935362,walking,2026-03-04_14-01-42
1772632903121678000,0.196677978515625,-1.953308781464398,1.004480263029784,-0.6312824718177318,0.1352617442607879,0.1765561699867248,0.0127508770674467,walking,2026-03-04_14-01-42
1772632903131627000,0.206626953125,-1.9058201773196457,1.0742379821278154,-0.5645253958404064,0.1966052502393722,0.2353222817182541,0.0313566178083419,walking,2026-03-04_14-01-42
1772632903141576000,0.216575927734375,-1.8339397669792172,1.0391390500873328,-0.2336649634897708,0.2140891700983047,0.2637206315994262,0.0477126874029636,walking,2026-03-04_14-01-42
1772632903151525000,0.226525146484375,-1.7670383140951391,0.8816836121834815,0.2887088053196668,0.188214436173439,0.2402629852294922,0.0444017499685287,walking,2026-03-04_14-01-42
1772632903161474000,0.23647412109375,-1.7398473787002264,0.6925174233727157,0.8324094397962093,0.144861102104187,0.1968910098075866,0.0375736653804779,walking,2026-03-04_14-01-42
1772632903171423000,0.246423095703125,-1.6492659211516378,0.503479829377681,1.109974919810891,0.094765767455101,0.1741464734077453,0.0110898818820714,walking,2026-03-04_14-01-42
1772632903181372200,0.2563720703125,-1.7312892475828527,0.4878834701865911,1.3050795587599278,0.0299947634339332,0.1103999689221382,-0.0358270294964313,walking,2026-03-04_14-01-42
1772632903191321000,0.266321044921875,-1.698025422015041,0.411253381101042,1.490667596822977,-0.0403749793767929,0.0015931259840726,-0.0857197195291519,walking,2026-03-04_14-01-42
1772632903201270000,0.27627001953125,-1.4506144033759831,0.1012840533487498,1.5751900465935469,-0.1050269454717636,-0.0975933745503425,-0.1205453425645828,walking,2026-03-04_14-01-42
1772632903211219200,0.28621923828125,-1.2549373713664709,0.014205635485053,1.4698288069337606,-0.1606723964214325,-0.1886680275201797,-0.1483679115772247,walking,2026-03-04_14-01-42
1772632903221168000,0.296168212890625,-1.2049085812196134,0.0735579881638288,1.2738923933357,-0.1990144550800323,-0.2280652225017547,-0.1651173382997512,walking,2026-03-04_14-01-42
1772632903231117000,0.306116943359375,-1.08159382478334,0.0551975710868835,0.955127472448349,-0.2196587473154068,-0.2168204933404922,-0.1761767715215683,walking,2026-03-04_14-01-42
1772632903241066000,0.31606591796875,-0.9704312053684144,0.0179207104854285,0.620683336392045,-0.2331279516220092,-0.1985213756561279,-0.1833896785974502,walking,2026-03-04_14-01-42
1772632903251015200,0.32601513671875,-0.915598595136404,0.0177922618001699,0.4020534449487924,-0.2392778694629669,-0.1675117015838623,-0.1892712414264679,walking,2026-03-04_14-01-42
1772632903260964000,0.335964111328125,-0.8338426874697208,-0.0437510250516235,0.2166939549446105,-0.2257647216320037,-0.116176076233387,-0.186421662569046,walking,2026-03-04_14-01-42
1772632903270913000,0.3459130859375,-0.7122909221179783,-0.1025130106218159,0.0189303259193897,-0.1933377683162689,-0.0542521961033344,-0.1821126341819763,walking,2026-03-04_14-01-42
1772632903280862200,0.3558623046875,-0.6131355513609945,-0.1374140820026397,-0.0745920073866844,-0.1545317769050598,-0.0131263295188546,-0.1729921102523803,walking,2026-03-04_14-01-42
1772632903290811100,0.36581103515625,-0.524968644140847,-0.1971479813449084,-0.0188882403433322,-0.1259172558784485,-0.0084998663514852,-0.1732181012630462,walking,2026-03-04_14-01-42
1772632903300760000,0.375760009765625,-0.4455464401187375,-0.2755969564206898,0.1641623881965875,-0.1089145839214325,-0.0307897254824638,-0.1768048405647277,walking,2026-03-04_14-01-42
1772632903310709000,0.385708984375,-0.3401324838910252,-0.3372730758719146,0.4046674268394708,-0.1143335551023483,-0.0987500697374343,-0.1767780780792236,walking,2026-03-04_14-01-42
1772632903320658000,0.395657958984375,-0.2638085746778175,-0.3604147358760237,0.5823591586947441,-0.1286163628101349,-0.1736874282360077,-0.175923466682434,walking,2026-03-04_14-01-42
1772632903330607000,0.405607177734375,-0.2271450602017342,-0.3678765961892902,0.5804489411592483,-0.1447211503982544,-0.198908731341362,-0.1651162952184677,walking,2026-03-04_14-01-42
1772632903340556000,0.41555615234375,-0.2571166758237406,-0.3639519700914621,0.4335334558397531,-0.1624082624912262,-0.1870219707489013,-0.1597183346748352,walking,2026-03-04_14-01-42
1772632903350505200,0.425505126953125,-0.3563537335148081,-0.310423647391051,0.2733773806750774,-0.176903560757637,-0.1674550771713256,-0.1516858041286468,walking,2026-03-04_14-01-42
1772632903360454100,0.4354541015625,-0.3775757505679503,-0.2757128378853202,0.0545855766683816,-0.1695729345083236,-0.1293321847915649,-0.1290308386087417,walking,2026-03-04_14-01-42
1772632903370403000,0.445403076171875,-0.306242964172922,-0.2248037577725946,-0.203520585116744,-0.1462695598602295,-0.089868925511837,-0.0815849751234054,walking,2026-03-04_14-01-42
1772632903380352000,0.45535205078125,-0.2435959903955459,-0.1531967575460672,-0.3138771488457918,-0.1184059754014015,-0.0628154650330543,-0.0275789983570575,walking,2026-03-04_14-01-42
1772632903390302200,0.46530224609375,-0.2550628485664725,-0.1459948633432388,-0.3846124808043241,-0.0667937323451042,-0.0202946774661541,0.0128200836479663,walking,2026-03-04_14-01-42
1772632903400251100,0.475251220703125,-0.3447833784367889,-0.2022453044839203,-0.4352110336631536,-0.0134828481823205,0.0206026881933212,0.0403036400675773,walking,2026-03-04_14-01-42
1772632903410200000,0.485199951171875,-0.4258067340452224,-0.2615978032931685,-0.3116355073988437,0.0130973644554615,0.0232722386717796,0.0572067238390445,walking,2026-03-04_14-01-42
1772632903420149000,0.49514892578125,-0.467796485045366,-0.4063701391041278,0.0131949971377849,0.0097002368420362,0.0080930208787322,0.0554828606545925,walking,2026-03-04_14-01-42
1772632903430098200,0.50509814453125,-0.4516321167079731,-0.5927993041664361,0.3547410741537809,-0.0080858170986175,0.0078087607398629,0.0414686724543571,walking,2026-03-04_14-01-42
1772632903440047000,0.515047119140625,-0.3814355678012594,-0.7161896831221878,0.6110545073032378,-0.0447596758604049,0.0030555510893464,0.0339966379106044,walking,2026-03-04_14-01-42
1772632903449996000,0.52499609375,-0.2506956298002973,-0.7497758725121617,0.850832400715351,-0.0859470292925834,-0.0117273293435573,0.0383106246590614,walking,2026-03-04_14-01-42
1772632903459945000,0.534945068359375,-0.0662987377505749,-0.7279919107273221,0.9416741166353224,-0.1128595992922782,-0.0159127544611692,0.0569567456841468,walking,2026-03-04_14-01-42
1772632903469894100,0.54489404296875,0.0902052446473389,-0.6914993323713541,0.8904355123072862,-0.1254441291093826,-0.023028515279293,0.0761193260550499,walking,2026-03-04_14-01-42
1772632903479843000,0.554843017578125,0.1712903403803706,-0.6216434135958552,0.7657704372406006,-0.1202624216675758,-0.0012577045708894,0.0983495265245437,walking,2026-03-04_14-01-42
1772632903489792000,0.5647919921875,0.2213466030560433,-0.5907243975885212,0.5597276401698589,-0.0889194458723068,0.0559647120535373,0.1191331148147583,walking,2026-03-04_14-01-42
1772632903499741200,0.5747412109375,0.2311806358607485,-0.5487305914677679,0.364584422776103,-0.0558072961866855,0.1170847937464714,0.1374452710151672,walking,2026-03-04_14-01-42
1772632903509690000,0.584690185546875,0.2433963761702179,-0.5085490954659879,0.3247077549397945,-0.0327431745827198,0.1566992998123169,0.1600300073623657,walking,2026-03-04_14-01-42
1772632903519639000,0.59463916015625,0.2934861392566934,-0.5440538318283855,0.4596025475978851,-0.0321980267763137,0.1485154032707214,0.177420437335968,walking,2026-03-04_14-01-42
1772632903529588000,0.604587890625,0.3303496698169037,-0.6241799463361501,0.6510767210900783,-0.0449751578271389,0.132778525352478,0.185336634516716,walking,2026-03-04_14-01-42
1772632903539537200,0.614537109375,0.280553373251669,-0.7154048163548111,0.6967378175467253,-0.0667678043246269,0.1198630034923553,0.1762856096029281,walking,2026-03-04_14-01-42
1772632903549486000,0.624486083984375,0.1462667025545612,-0.7830440819941461,0.6786568019330501,-0.102443940937519,0.0931043997406959,0.1572380661964416,walking,2026-03-04_14-01-42
1772632903559435000,0.63443505859375,0.0591054287130013,-0.7986049314804374,0.588265752390027,-0.1438374519348144,0.0657665207982063,0.1372172236442566,walking,2026-03-04_14-01-42
1772632903569384200,0.64438427734375,-0.0127020259890705,-0.7500257556200027,0.419982484871149,-0.1838449090719223,0.0556730367243289,0.1293869614601135,walking,2026-03-04_14-01-42
1772632903579333000,0.6543330078125,-0.1465836595492437,-0.6414739032253622,0.197552616623044,-0.2126214355230331,0.0608060099184513,0.1264090090990066,walking,2026-03-04_14-01-42
1772632903589282000,0.664281982421875,-0.2679275543039664,-0.5399845365628599,-0.1023246484428644,-0.2205656617879867,0.087337426841259,0.132341980934143,walking,2026-03-04_14-01-42
1772632903599231000,0.67423095703125,-0.3756245434349403,-0.4481283829033374,-0.4835848962098359,-0.1938983649015426,0.1332327425479889,0.1537364870309829,walking,2026-03-04_14-01-42
1772632903609180000,0.684179931640625,-0.3635072219986468,-0.3730371938228607,-0.8204355088859796,-0.1312910616397857,0.1752370297908783,0.2044055610895156,walking,2026-03-04_14-01-42
1772632903619129000,0.694129150390625,-0.2175169982979074,-0.3074063453964888,-1.125428509530425,-0.0330017767846584,0.2110418975353241,0.2901588082313537,walking,2026-03-04_14-01-42
1772632903629078300,0.704078369140625,-0.0208468270651996,-0.2612038355395197,-1.2910995487242936,0.0674223080277443,0.2301356941461563,0.3962592184543609,walking,2026-03-04_14-01-42
1772632903639027200,0.714027099609375,-0.0122545014172792,-0.2865745697699487,-1.2358844419807196,0.157002791762352,0.2444770783185959,0.4812718331813812,walking,2026-03-04_14-01-42
1772632903648976100,0.72397607421875,-0.169835246201232,-0.4986155843421817,-1.05555593188107,0.2278720289468765,0.2849447131156921,0.5237290859222412,walking,2026-03-04_14-01-42
1772632903658925000,0.733925048828125,-0.381045874363929,-0.8126094914354384,-0.8713964653164148,0.2724519968032837,0.3187338411808014,0.540192186832428,walking,2026-03-04_14-01-42
1772632903668874000,0.7438740234375,-0.5312264258939773,-1.1369539660207926,-0.6453033983856439,0.2845562398433685,0.3075882494449615,0.5428436994552612,walking,2026-03-04_14-01-42
1772632903678823000,0.753822998046875,-0.5962203646562994,-1.406529470194876,-0.3682441143274307,0.2738343477249145,0.2541016042232513,0.5323790907859802,walking,2026-03-04_14-01-42
1772632903688771800,0.763771728515625,-0.6334845849718899,-1.606206970017403,-0.1745335600852966,0.2502991557121277,0.157751128077507,0.5034850835800171,walking,2026-03-04_14-01-42
1772632903698721300,0.77372119140625,-0.7137699086293577,-1.7100135275810957,-0.096083123704791,0.2184661030769348,0.0578847080469131,0.4536075592041015,walking,2026-03-04_14-01-42
1772632903708670200,0.783670166015625,-0.8332304738555103,-1.7468556500270962,-0.1816471914827823,0.1882724016904831,-0.0134118804708123,0.3862173557281494,walking,2026-03-04_14-01-42
1772632903718619100,0.793619140625,-0.9722953187398612,-1.7281478808172046,-0.4277899437516927,0.1689961850643158,-0.0227928664535284,0.3050157129764557,walking,2026-03-04_14-01-42
1772632903728568000,0.803568115234375,-1.075146183013916,-1.6449990574873985,-0.8004559661746025,0.1547326296567917,-0.0122897084802389,0.2285130321979522,walking,2026-03-04_14-01-42
1772632903738517000,0.81351708984375,-1.0303229986861349,-1.44297835553959,-1.0748264495402573,0.1333005726337433,-0.0141576491296291,0.1674736440181732,walking,2026-03-04_14-01-42
1772632903748466000,0.8234658203125,-0.9220724673256278,-1.1883930613569915,-1.2177777074038982,0.0931777954101562,0.0218907985836267,0.1001064926385879,walking,2026-03-04_14-01-42
1772632903758415000,0.8334150390625,-0.9342315455444156,-0.9453799854159356,-1.373694245302677,0.0119404643774032,0.0825083404779434,0.030493326485157,walking,2026-03-04_14-01-42
1772632903768364300,0.8433642578125,-1.1093190131854265,-0.5269342085927724,-1.3983616535693406,-0.0921232551336288,0.1377668529748916,-0.0300308316946029,walking,2026-03-04_14-01-42
1772632903778313200,0.853313232421875,-1.1657231105178594,-0.0428016153723001,-1.4533961430490017,-0.1842169612646103,0.2027937769889831,-0.0707598850131034,walking,2026-03-04_14-01-42
1772632903788262100,0.86326220703125,-1.0061148054290563,0.3607993512794375,-1.6144985591530798,-0.2204525470733642,0.2331132888793945,-0.073557011783123,walking,2026-03-04_14-01-42
1772632903798211000,0.873211181640625,-0.6559474689316004,0.7604980497956275,-1.90706170181334,-0.1914113163948059,0.3318204283714294,-0.037582229822874,walking,2026-03-04_14-01-42
1772632903808160000,0.883159912109375,-0.3689682638835161,1.0465839592657982,-2.1801590965032576,-0.1114562153816223,0.4036674201488495,0.0325931757688522,walking,2026-03-04_14-01-42
1772632903818109000,0.89310888671875,-0.0978591204013675,1.3491380423255264,-2.0692659416794776,0.0106609025970101,0.3996465802192688,0.1620318591594696,walking,2026-03-04_14-01-42
1772632903828058000,0.90305810546875,0.3238379133027046,1.340644793137908,-1.7848872745186088,0.1494868397712707,0.3582146167755127,0.2789578437805176,walking,2026-03-04_14-01-42
1772632903838007000,0.913007080078125,0.4173400075383484,1.2606634939283132,-1.3540414503276348,0.2721685469150543,0.2764334678649902,0.3527021110057831,walking,2026-03-04_14-01-42
1772632903847956200,0.922956298828125,0.1864453124795109,1.082007300955057,-0.7951181122779846,0.3504605889320373,0.1881736069917678,0.3871118426322937,walking,2026-03-04_14-01-42
1772632903857905200,0.9329052734375,-0.0412481753852218,0.7770685147158801,-0.2476917352765798,0.3808336853981018,0.142994686961174,0.3822329044342041,walking,2026-03-04_14-01-42
1772632903867855400,0.94285546875,-0.3699567634642124,0.4891439916417002,0.1697667840749025,0.3820107877254486,0.1723696887493133,0.3334391415119171,walking,2026-03-04_14-01-42
1772632903877804300,0.95280419921875,-0.761122026912868,0.2663822610907256,0.4767261163562536,0.3591105341911316,0.230768010020256,0.2419521063566208,walking,2026-03-04_14-01-42
1772632903887753200,0.962753173828125,-1.0104350067157295,0.10161474660784,0.7294067459613084,0.3392028510570526,0.301920086145401,0.1320036798715591,walking,2026-03-04_14-01-42
1772632903897702100,0.9727021484375,-0.9000527240235358,0.022656068444252,0.8925696017265319,0.3339020907878876,0.3428800404071808,0.0460906364023685,walking,2026-03-04_14-01-42
1772632903907652000,0.982652099609375,-0.578218990150094,0.1835461569719016,1.0376122789114712,0.3447082638740539,0.3104375898838043,0.0117109883576631,walking,2026-03-04_14-01-42
1772632903917601000,0.99260107421875,-0.2226289710167795,0.5405379326619207,1.1963701777160167,0.3669792115688324,0.2456995993852615,0.0211271252483129,walking,2026-03-04_14-01-42
1772632903927550200,1.00255029296875,0.0318373729612678,0.8225443177334963,1.2517290768444538,0.3816465437412262,0.1310021877288818,0.0172243732959032,walking,2026-03-04_14-01-42
1772632903937499400,1.01249951171875,0.1273574559558183,1.0643712526299058,1.4212509462475775,0.3829059600830078,-0.0039961119182407,0.014745770022273,walking,2026-03-04_14-01-42
1772632903947448300,1.0224482421875,0.2541799282521009,1.2451364005811512,1.5228823517292738,0.3528708219528198,-0.159024566411972,0.0252741426229476,walking,2026-03-04_14-01-42
1772632903957397200,1.032397216796875,0.410896749683097,1.4143052187629044,1.588755630609393,0.2908894717693329,-0.3003372251987457,0.0589628629386425,walking,2026-03-04_14-01-42
1772632903967346200,1.04234619140625,0.4593341059200465,1.5495447332054375,1.5526234099984169,0.2160508781671524,-0.3633099198341369,0.1039831787347793,walking,2026-03-04_14-01-42
1772632903977295000,1.052295166015625,0.3305193638280034,1.580763024420291,1.246672377976775,0.1511611044406891,-0.320414662361145,0.1312129348516464,walking,2026-03-04_14-01-42
1772632903987244000,1.062244140625,0.0599091828439384,1.5256982859328387,0.8534615801751613,0.0824843645095825,-0.219117134809494,0.1129445359110832,walking,2026-03-04_14-01-42
1772632903997193200,1.072193115234375,-0.2618895527813583,1.3202828269802034,0.6055629241496324,0.0021040420979261,-0.1223440021276474,0.0550764426589012,walking,2026-03-04_14-01-42
1772632904007142400,1.082142333984375,-0.531851206728816,1.0208351855032145,0.5049146844863891,-0.0859412550926208,-0.062895156443119,-0.0404175259172916,walking,2026-03-04_14-01-42
1772632904017091300,1.09209130859375,-0.7397168353125453,0.8204837319418787,0.4716986435830593,-0.1641809344291687,-0.0652315467596054,-0.155507892370224,walking,2026-03-04_14-01-42
1772632904027040300,1.102040283203125,-0.7967789581622928,0.7337370302505791,0.3590045768171548,-0.2250855267047882,-0.1230619624257087,-0.2614888846874237,walking,2026-03-04_14-01-42
1772632904036989200,1.1119892578125,-0.6933328314088285,0.7559937241137027,0.1954571056485176,-0.2578373253345489,-0.1817838698625564,-0.3372800350189209,walking,2026-03-04_14-01-42
1772632904046938000,1.121938232421875,-0.5418753918107598,0.9286277341879904,-0.1337666654109954,-0.255778968334198,-0.187083825469017,-0.3683499693870544,walking,2026-03-04_14-01-42
1772632904056887000,1.131886962890625,-0.3086227354489266,1.1143529887646435,-0.518811107891798,-0.2183005809783935,-0.1318511962890625,-0.3475648164749145,walking,2026-03-04_14-01-42
1772632904066836200,1.141836181640625,-0.0273178497102111,1.2326713251531125,-0.7797650603234767,-0.1543028354644775,-0.0048838248476386,-0.2845567762851715,walking,2026-03-04_14-01-42
1772632904076785200,1.15178515625,0.1893778588000685,1.2862018398106096,-0.8822183035820722,-0.0878447145223617,0.1389159560203552,-0.2007561475038528,walking,2026-03-04_14-01-42
1772632904086734300,1.161734375,0.3154511201642453,1.2337800170473754,-0.6950958955585956,-0.0374424159526824,0.2458100169897079,-0.1253212690353393,walking,2026-03-04_14-01-42
1772632904096683300,1.171683349609375,0.3688764939468353,1.0101080397836864,-0.2809983770728111,-0.0132204350084066,0.289721816778183,-0.0770922154188156,walking,2026-03-04_14-01-42
1772632904106632200,1.181632080078125,0.305032017480582,0.6983119349956513,0.2664689164608717,-0.0270579382777214,0.2755136489868164,-0.0504570230841636,walking,2026-03-04_14-01-42
1772632904116581000,1.1915810546875,0.1701937042500823,0.3883836699061095,0.8561474582582712,-0.0608952641487121,0.2316223531961441,-0.0497531481087207,walking,2026-03-04_14-01-42
1772632904126530000,1.201530029296875,0.1394618083126843,0.0795977067194879,1.2681079647153617,-0.1040447428822517,0.1632100492715835,-0.0627816244959831,walking,2026-03-04_14-01-42
1772632904136479200,1.211479248046875,0.1072514373205602,-0.169593327204138,1.4689432562708853,-0.1426866799592971,0.0828052163124084,-0.0898241624236106,walking,2026-03-04_14-01-42
1772632904146428200,1.22142822265625,0.0613361469071358,-0.3574174537561834,1.5146458537817,-0.1708592921495437,0.0056043993681669,-0.1162913590669632,walking,2026-03-04_14-01-42
1772632904156377300,1.23137744140625,0.0847442027624696,-0.4357183986634015,1.4638257671266794,-0.18365578353405,-0.0603855364024639,-0.1303049027919769,walking,2026-03-04_14-01-42
1772632904166326300,1.241326171875,0.219332925146073,-0.4571018168233334,1.369610190859437,-0.1937586516141891,-0.1426537334918975,-0.1336635202169418,walking,2026-03-04_14-01-42
1772632904176275200,1.251275146484375,0.3035409021399915,-0.4601489294342696,1.2806798615187405,-0.2005100399255752,-0.2628142237663269,-0.1382324397563934,walking,2026-03-04_14-01-42
1772632904186224000,1.26122412109375,0.3804543382115662,-0.4209545447736978,1.104387475067377,-0.1940981745719909,-0.3385125994682312,-0.1337198168039322,walking,2026-03-04_14-01-42
1772632904196173300,1.27117333984375,0.3990340240623801,-0.3618777941659092,0.7836807724624871,-0.1768435537815094,-0.3670710027217865,-0.1248970329761505,walking,2026-03-04_14-01-42
1772632904206122200,1.281122314453125,0.2913031326618045,-0.2600486741550266,0.4295470165520906,-0.1610890179872512,-0.3439348936080932,-0.123256079852581,walking,2026-03-04_14-01-42
1772632904216071200,1.2910712890625,0.1184587677724659,-0.2350451658017933,0.180993111488223,-0.1692859679460525,-0.3162670433521271,-0.1388637870550155,walking,2026-03-04_14-01-42
1772632904226020000,1.30102001953125,-0.1061631306272,-0.2763305313922464,0.0382329922825098,-0.1838917881250381,-0.2667295336723327,-0.1796031147241592,walking,2026-03-04_14-01-42
1772632904235969300,1.31096923828125,-0.2536317928500473,-0.3721342536337673,-0.0867681828707456,-0.1919140219688415,-0.165378913283348,-0.2230810821056366,walking,2026-03-04_14-01-42
1772632904245918200,1.320918212890625,-0.2759874901082366,-0.4375507286570966,-0.2619371182501316,-0.1761618554592132,-0.0463262572884559,-0.2553079724311828,walking,2026-03-04_14-01-42
1772632904255867100,1.3308671875,-0.2057194834005087,-0.4245046384707093,-0.3583043195933103,-0.1375929117202758,0.017492402344942,-0.275434285402298,walking,2026-03-04_14-01-42
1772632904265816300,1.34081640625,-0.0024269348859786,-0.4407116769060492,-0.2983592617183923,-0.0752069801092147,0.0165542941540479,-0.2763659656047821,walking,2026-03-04_14-01-42
1772632904275765200,1.35076513671875,0.2834803300816566,-0.480720154428482,-0.2265893260151147,-0.0011881468817591,-0.0054838955402374,-0.2613241672515869,walking,2026-03-04_14-01-42
1772632904285714200,1.360714111328125,0.4599899394802749,-0.5209758847102522,-0.0566202973663806,0.0508657619357109,-0.0534769296646118,-0.2496931701898574,walking,2026-03-04_14-01-42
1772632904295663000,1.3706630859375,0.4548252501934766,-0.6036782794468104,0.2395651274442672,0.0592901408672332,-0.124264009296894,-0.2560139000415802,walking,2026-03-04_14-01-42
1772632904305612000,1.380612060546875,0.4002631274659186,-0.7751011601656674,0.5245511128485203,0.035172015428543,-0.1856384128332138,-0.287054032087326,walking,2026-03-04_14-01-42
1772632904315561200,1.390561279296875,0.2746000543378293,-0.9379280619747936,0.6460726291924714,-0.0125859193503856,-0.2317683696746826,-0.331887811422348,walking,2026-03-04_14-01-42
1772632904325510100,1.40051025390625,0.1690765367884188,-1.023399921424687,0.6721691934794187,-0.072909265756607,-0.2581400275230407,-0.3759729862213135,walking,2026-03-04_14-01-42
1772632904335459300,1.410459228515625,0.1144075196202844,-1.0182976298496127,0.5611334153145552,-0.1156367510557174,-0.2583030164241791,-0.3965464532375335,walking,2026-03-04_14-01-42
1772632904345408300,1.420408203125,0.18119447927922,-0.950050899836421,0.2867886509120464,-0.117923580110073,-0.2498362362384796,-0.3991853594779968,walking,2026-03-04_14-01-42
1772632904355357200,1.430357177734375,0.3300637290149927,-0.8398004268303513,-0.1527449221253395,-0.0671426951885223,-0.2159637510776519,-0.3768613934516907,walking,2026-03-04_14-01-42
1772632904365306000,1.44030615234375,0.4899132224485278,-0.7129885489933192,-0.5821434701174497,0.0069181658327579,-0.1918689310550689,-0.3313904106616974,walking,2026-03-04_14-01-42
1772632904375255000,1.450255126953125,0.6150322518277913,-0.6028232700526714,-0.7545575538307427,0.0842608883976936,-0.18839031457901,-0.2781500816345215,walking,2026-03-04_14-01-42
1772632904385204200,1.460204345703125,0.681426193581149,-0.5929470420740545,-0.7986755124986171,0.1499990075826645,-0.206410750746727,-0.2376945912837982,walking,2026-03-04_14-01-42
1772632904395153400,1.4701533203125,0.6733274236038327,-0.6483677543923259,-0.698218996015191,0.1763896048069,-0.2544222176074981,-0.2242251187562942,walking,2026-03-04_14-01-42
1772632904405102300,1.480102294921875,0.6079021076869219,-0.7306443249322474,-0.4803729484260082,0.1699462085962295,-0.2824271321296692,-0.2324149310588836,walking,2026-03-04_14-01-42
1772632904415051300,1.49005126953125,0.5666784091558307,-0.8542331490695476,-0.3586176233261823,0.1475953757762909,-0.2698247730731964,-0.2353473454713821,walking,2026-03-04_14-01-42
1772632904425000200,1.500000244140625,0.6449018318474292,-0.8383170564047991,-0.3740565999984741,0.1407195478677749,-0.2139122188091278,-0.2123914062976837,walking,2026-03-04_14-01-42
1772632904434949000,1.50994921875,0.8329934502292424,-0.7465747383832931,-0.4839911389231681,0.1615547984838485,-0.1334192454814911,-0.1553787291049957,walking,2026-03-04_14-01-42
1772632904444898000,1.51989794921875,1.1166385424185543,-0.6508844133883714,-0.5618968009024858,0.2094821184873581,-0.0857773646712303,-0.0861525535583496,walking,2026-03-04_14-01-42
1772632904454847000,1.529846923828125,1.3955658853709696,-0.6470123942606151,-0.5193295788079499,0.2699528932571411,-0.0884061679244041,-0.01742435246706,walking,2026-03-04_14-01-42
1772632904464796400,1.53979638671875,1.5744178931772708,-0.7236785775728524,-0.4035585888147354,0.3139582276344299,-0.1426112353801727,0.0333005972206592,walking,2026-03-04_14-01-42
1772632904474745300,1.549745361328125,1.5396467317864295,-0.8307055584877729,-0.2156160965800285,0.3250292539596557,-0.2294611781835556,0.0529478006064891,walking,2026-03-04_14-01-42
1772632904484694300,1.5596943359375,1.3396513981863856,-0.951883960482478,-0.0543698880910873,0.2982783317565918,-0.299106627702713,0.0410483069717884,walking,2026-03-04_14-01-42
1772632904494643200,1.569643310546875,1.0743120702773332,-1.064231990289688,-0.0423860203087329,0.2418440729379654,-0.3151649534702301,0.0105292797088623,walking,2026-03-04_14-01-42
1772632904504592100,1.579592041015625,0.8400478257201611,-1.1157776147402825,-0.1201040507614612,0.1685510724782943,-0.2874330878257751,-0.0197071507573127,walking,2026-03-04_14-01-42
1772632904514541000,1.589541015625,0.6898470351196825,-1.077974538307637,-0.3243827607691287,0.1042679548263549,-0.2260810583829879,-0.0360858589410781,walking,2026-03-04_14-01-42
1772632904524490200,1.599490234375,0.5925396303169429,-0.9714248195156454,-0.6371411347180604,0.0669077634811401,-0.1692554354667663,-0.047987513244152,walking,2026-03-04_14-01-42
1772632904534439200,1.609439208984375,0.5297759713573381,-0.7623216119609773,-0.9310305575460196,0.0558247566223144,-0.1618680953979492,-0.0442801266908645,walking,2026-03-04_14-01-42
1772632904544388400,1.619388427734375,0.5411881767315789,-0.5031546890765428,-1.143008005362749,0.0636075362563133,-0.1909126490354538,-0.0273308604955673,walking,2026-03-04_14-01-42
1772632904554338300,1.62933837890625,0.5510575365779921,-0.2761361778639257,-1.3066577678620814,0.0774615630507469,-0.2229558080434799,-0.0013437356101348,walking,2026-03-04_14-01-42
1772632904564287200,1.639287353515625,0.4597590533338487,-0.0481542284466326,-1.446485925269127,0.0902492254972457,-0.2263317555189132,0.0235307328402996,walking,2026-03-04_14-01-42
1772632904574236200,1.649236083984375,0.2433278044460341,0.1878904697865247,-1.544876156872511,0.093613862991333,-0.1918611228466034,0.0416013449430465,walking,2026-03-04_14-01-42
1772632904584185000,1.65918505859375,-0.0348244990132749,0.4114132478378713,-1.5465519811302422,0.0902807712554931,-0.0999659895896911,0.0532282069325447,walking,2026-03-04_14-01-42
1772632904594134000,1.669134033203125,-0.2269389797030016,0.6001470365807414,-1.5054378804534674,0.0942113250494003,0.0333113744854927,0.0691381990909576,walking,2026-03-04_14-01-42
1772632904604083200,1.679083251953125,-0.3413855161594227,0.7720731906466186,-1.3938093970924614,0.1200891435146331,0.1739560067653656,0.0906874984502792,walking,2026-03-04_14-01-42
1772632904614032400,1.689032470703125,-0.3239786369476467,0.9122904935017228,-1.176412262314558,0.1682998090982437,0.2829024493694305,0.1197516396641731,walking,2026-03-04_14-01-42
1772632904623981300,1.698981201171875,-0.2010321293018758,1.027177686397731,-0.7706342438846826,0.2267834991216659,0.3207548856735229,0.1556275486946106,walking,2026-03-04_14-01-42
1772632904633930200,1.70893017578125,-0.066697345146723,1.110133325242996,-0.2404723054170608,0.2860262989997864,0.2629741430282593,0.1856906414031982,walking,2026-03-04_14-01-42
1772632904643879200,1.718879150390625,0.0126632648812606,1.1729602221645414,0.2611427530020475,0.3482848405838012,0.1484199911355972,0.2069660425186157,walking,2026-03-04_14-01-42
1772632904653828000,1.728828125,0.0195854288272559,1.2160318866498767,0.6008253742337226,0.4118747413158417,0.0260458830744028,0.2176951169967651,walking,2026-03-04_14-01-42
1772632904663777000,1.738777099609375,-0.02807644952517,1.2404279306292534,0.7544254518836736,0.4556231796741485,-0.0807035118341445,0.2143985033035278,walking,2026-03-04_14-01-42
1772632904673726200,1.748726318359375,-0.208876851452887,1.2681795686468482,0.8256547048389912,0.4720748364925384,-0.1229529604315757,0.1978064775466919,walking,2026-03-04_14-01-42
1772632904683675400,1.75867529296875,-0.4682581112077459,1.2523451629161837,0.8019862444818019,0.4606689810752868,-0.0927265956997871,0.1660153567790985,walking,2026-03-04_14-01-42
1772632904693624300,1.768624267578125,-0.7958294754177332,1.2206795663252472,0.7560375632554293,0.4064731299877167,-0.0401243716478347,0.1158989369869232,walking,2026-03-04_14-01-42
1772632904703573200,1.7785732421875,-1.0764031242724508,1.1833119587004184,0.8319640341162681,0.3200428187847137,0.0228266511112451,0.0516317561268806,walking,2026-03-04_14-01-42
1772632904713522200,1.788522216796875,-1.266065499102324,1.0804787762135266,0.9383733215242624,0.2141707241535186,0.0875883400440216,-0.023065386340022,walking,2026-03-04_14-01-42
1772632904723471000,1.79847119140625,-1.39436688484475,1.02761812364161,1.0134522356450557,0.1001690924167633,0.123434342443943,-0.0995197892189025,walking,2026-03-04_14-01-42
1772632904733420000,1.808419921875,-1.4923837530910968,1.0160121492609382,1.0803653789669274,-0.0064652115106582,0.1255992352962494,-0.1846434772014618,walking,2026-03-04_14-01-42
1772632904743369200,1.818369140625,-1.5099880911037324,1.038920146639645,1.046377769169211,-0.0869929268956184,0.1132138893008232,-0.2626887261867523,walking,2026-03-04_14-01-42
1772632904753318400,1.828318359375,-1.4195751219898465,1.0708578381702305,0.922778862029314,-0.1527652740478515,0.0977875292301178,-0.3233648538589477,walking,2026-03-04_14-01-42
1772632904763267300,1.838267333984375,-1.3401362590938806,1.2005039165198803,0.7926543525129556,-0.20484159886837,0.1023046001791954,-0.3659416139125824,walking,2026-03-04_14-01-42
1772632904773216300,1.84821630859375,-1.243765258358419,1.2957646179258822,0.6258651229441166,-0.2463757097721099,0.1445420533418655,-0.3871318399906158,walking,2026-03-04_14-01-42
1772632904783165200,1.858165283203125,-1.0605248063348234,1.3328379187792538,0.4823807811170816,-0.2846459150314331,0.1834868788719177,-0.3781705498695373,walking,2026-03-04_14-01-42
1772632904793114000,1.868114013671875,-0.8328447624735533,1.3725544276177883,0.4958616094589233,-0.3300938308238983,0.1604545414447784,-0.346703439950943,walking,2026-03-04_14-01-42
1772632904803063000,1.87806298828125,-0.5780617172291502,1.3467080386996269,0.5489116471230984,-0.3481661677360534,0.1035272926092147,-0.3031032085418701,walking,2026-03-04_14-01-42
1772632904813012200,1.88801220703125,-0.3617896044258028,1.2669009270131588,0.3690419867068529,-0.3345281183719635,0.0440567769110202,-0.2458116710186004,walking,2026-03-04_14-01-42
1772632904822961200,1.897961181640625,-0.2238508409619331,1.1682552593439817,0.1581798066556453,-0.3271787762641907,-0.0177304428070783,-0.1868006736040115,walking,2026-03-04_14-01-42
1772632904832910300,1.907910400390625,-0.262243992242217,0.9835717689052224,0.041966333591938,-0.3364676237106323,-0.0478481277823448,-0.1457637548446655,walking,2026-03-04_14-01-42
1772632904842859300,1.917859375,-0.328054435019195,0.7102237604551017,-0.0499777906119823,-0.3470214009284973,-0.030137188732624,-0.1179644539952278,walking,2026-03-04_14-01-42
1772632904852808200,1.92780810546875,-0.3569569966375827,0.4394922181136906,-0.1403711782425642,-0.3535203039646148,0.0207888428121805,-0.0933997258543968,walking,2026-03-04_14-01-42
1772632904862756900,1.9377568359375,-0.322585867414996,0.2308297400638461,-0.1683329518795013,-0.3533079326152801,0.0741146877408027,-0.0624341145157814,walking,2026-03-04_14-01-42
1772632904872706000,1.9477060546875,-0.2151338660210371,0.0599031184293329,-0.0783995829761028,-0.3431658148765564,0.0954002663493156,-0.0250438675284385,walking,2026-03-04_14-01-42
1772632904882655000,1.957655029296875,-0.0954241483394056,-0.1197385784499347,0.1153764377176761,-0.3239169418811798,0.0723709538578987,0.0096206720918416,walking,2026-03-04_14-01-42
1772632904892604000,1.96760400390625,0.0218459941703826,-0.2896424329079687,0.2906412346869707,-0.2922658026218414,0.014543873257935,0.0373529680073261,walking,2026-03-04_14-01-42
1772632904902552800,1.977552734375,0.0814429692599922,-0.4442364900313317,0.4311392541795968,-0.2493116855621338,-0.0575213283300399,0.0542656071484088,walking,2026-03-04_14-01-42
1772632904912502000,1.987501953125,0.0737009768310934,-0.5467728815287352,0.4895014267772435,-0.1968378275632858,-0.106604978442192,0.0680021941661834,walking,2026-03-04_14-01-42
1772632904922451000,1.997450927734375,-0.0265782103240489,-0.6015836452551185,0.4533341348528861,-0.1512717455625534,-0.1475281566381454,0.0747901797294616,walking,2026-03-04_14-01-42
1772632904932399900,2.00739990234375,-0.1697048978198319,-0.625274025183171,0.4623059613376855,-0.1340400278568267,-0.1745310127735138,0.0708993002772331,walking,2026-03-04_14-01-42
1772632904942349000,2.01734912109375,-0.3026339068302884,-0.6734529496796429,0.5452759209692478,-0.1417470425367355,-0.1736761331558227,0.0482712760567665,walking,2026-03-04_14-01-42
1772632904952298000,2.027298095703125,-0.4363331695608794,-0.7402396901428699,0.5557260033130645,-0.1624909341335296,-0.1597757637500763,0.0194311048835515,walking,2026-03-04_14-01-42
1772632904962247000,2.037246826171875,-0.5366079728018492,-0.7484678586535155,0.5143956295371055,-0.202147901058197,-0.1596700698137283,-0.0184847600758075,walking,2026-03-04_14-01-42
1772632904972195800,2.04719580078125,-0.640438934154436,-0.6820917448177933,0.4730880521148443,-0.2324384301900863,-0.1364446431398391,-0.0432217977941036,walking,2026-03-04_14-01-42
1772632904982144800,2.057144775390625,-0.6418105878338217,-0.5518598294042051,0.2779208693236112,-0.2515324652194977,-0.0952669829130172,-0.0381742492318153,walking,2026-03-04_14-01-42
1772632904992094000,2.067093994140625,-0.5691535305650904,-0.3825897428050637,0.0970955156177282,-0.2534661889076233,-0.0791921392083168,-0.026342624798417,walking,2026-03-04_14-01-42
1772632905002043100,2.077043212890625,-0.5228577529340982,-0.2020635181762278,-0.0628214900940656,-0.2228345423936844,-0.077856957912445,-0.0050429869443178,walking,2026-03-04_14-01-42
1772632905011992000,2.086991943359375,-0.4013545394318178,-0.0435286144725978,-0.2975800940394401,-0.160177007317543,-0.0509326681494712,0.0373196490108966,walking,2026-03-04_14-01-42
1772632905021941000,2.09694091796875,-0.2400838906213641,0.0943650677405297,-0.4610673594534397,-0.089320883154869,-0.0070417234674096,0.0994267761707305,walking,2026-03-04_14-01-42
1772632905031890000,2.106889892578125,-0.1485157966556027,0.1705108804404735,-0.4414361917883157,-0.0463406592607498,0.0336745455861091,0.1606299579143524,walking,2026-03-04_14-01-42
1772632905041838800,2.1168388671875,-0.1196565261896699,0.0933414237812161,-0.1776286034911871,-0.0414168089628219,0.0604934580624103,0.2033877223730087,walking,2026-03-04_14-01-42
1772632905051787800,2.126787841796875,-0.1450579843519255,-0.0592240501239895,0.1968038440823555,-0.0613862574100494,0.0772458091378212,0.2258243113756179,walking,2026-03-04_14-01-42
1772632905061737000,2.136737060546875,-0.1883801164669916,-0.2181185809202492,0.5249094247668982,-0.0967143774032592,0.0718319937586784,0.2303406596183776,walking,2026-03-04_14-01-42
1772632905071686100,2.14668603515625,-0.2474721742417663,-0.308542802080512,0.7491559870481491,-0.1282443404197693,0.0631953626871109,0.2294144034385681,walking,2026-03-04_14-01-42
1772632905081635000,2.156635009765625,-0.2234034259879961,-0.3539014084592461,0.8562748840302229,-0.1457399725914001,0.0637985691428184,0.2346732467412948,walking,2026-03-04_14-01-42
1772632905091584000,2.166583984375,-0.1432055614182725,-0.3577648058891296,0.8346493276774882,-0.1498913019895553,0.0401132106781005,0.2469432353973388,walking,2026-03-04_14-01-42
1772632905101533000,2.176532958984375,-0.0510273361975327,-0.3451706972539424,0.7739367925614118,-0.1329203993082046,0.022684970870614,0.2651853263378143,walking,2026-03-04_14-01-42
1772632905111481900,2.18648193359375,0.0567346444610506,-0.3343783773437142,0.6152665720403194,-0.1099477037787437,0.0304190590977668,0.2955240607261657,walking,2026-03-04_14-01-42
1772632905121430800,2.1964306640625,0.116297936476767,-0.3466587438546121,0.4775993920594453,-0.099133588373661,0.0317000187933445,0.3196613788604736,walking,2026-03-04_14-01-42
1772632905131380000,2.2063798828125,0.0838293164072558,-0.39000995593369,0.4552940367490053,-0.1044119745492935,0.0251363907009363,0.3350746929645538,walking,2026-03-04_14-01-42
1772632905141329200,2.2163291015625,0.0479222828542813,-0.4953080672293901,0.4110866462320089,-0.1087202727794647,0.0279672890901565,0.3426866233348846,walking,2026-03-04_14-01-42
1772632905151278000,2.226278076171875,0.0335999256543815,-0.5810907461941242,0.2857698292583226,-0.1048973053693771,0.0333926826715469,0.3442067503929138,walking,2026-03-04_14-01-42
1772632905161227000,2.23622705078125,-0.0282468011233955,-0.6055844053290784,0.0950327378690242,-0.0979633182287216,0.042019747197628,0.3451189696788788,walking,2026-03-04_14-01-42
1772632905171176000,2.246176025390625,-0.1160024241289123,-0.6525896098710596,-0.0977723919659852,-0.0975550562143325,0.0589561164379119,0.3356799185276031,walking,2026-03-04_14-01-42
1772632905181124900,2.256124755859375,-0.2313916482629254,-0.7393808813564479,-0.2459212184727191,-0.1006115451455116,0.0798111334443092,0.3211699724197387,walking,2026-03-04_14-01-42
1772632905191073800,2.26607373046875,-0.3252580822989344,-0.8042670488953589,-0.4015852429151534,-0.1069685071706771,0.1038610711693763,0.3045132458209991,walking,2026-03-04_14-01-42
1772632905201023000,2.27602294921875,-0.3902759499261155,-0.8345885374009608,-0.5531558605641126,-0.100132867693901,0.1219876557588577,0.2967191338539123,walking,2026-03-04_14-01-42
1772632905210972000,2.285971923828125,-0.4051157916614785,-0.8136072703011333,-0.731321055150032,-0.0739396139979362,0.1516560614109039,0.30962935090065,walking,2026-03-04_14-01-42
1772632905220921000,2.295921142578125,-0.4302345969574526,-0.7264553488098084,-0.9336661667466164,-0.0293458011001348,0.1814256161451339,0.3378563225269317,walking,2026-03-04_14-01-42
1772632905230870000,2.3058701171875,-0.4477678790278732,-0.6501879555568099,-1.1121060866206884,0.0375402867794036,0.2248053103685379,0.3741768002510071,walking,2026-03-04_14-01-42
1772632905240819000,2.31581884765625,-0.4355899499781429,-0.6717211574509739,-1.2420084778189655,0.1158327162265777,0.261066734790802,0.4191123247146606,walking,2026-03-04_14-01-42
1772632905250768000,2.325767822265625,-0.4212303295077755,-0.7771355886027217,-1.2337959452688694,0.179697185754776,0.2582507133483886,0.4522348642349243,walking,2026-03-04_14-01-42
1772632905260717800,2.3357177734375,-0.4853078840775415,-0.912019567605853,-1.0264484953403472,0.2191952615976333,0.2206155061721801,0.461724191904068,walking,2026-03-04_14-01-42
1772632905270666800,2.345666748046875,-0.6362994231969118,-1.0838850775256752,-0.7602648255616427,0.230244442820549,0.1665794253349304,0.4392436742782593,walking,2026-03-04_14-01-42
1772632905280616000,2.355615966796875,-0.8177880631171166,-1.2358128380492328,-0.5710942528367042,0.2199739962816238,0.1261197030544281,0.3957989513874054,walking,2026-03-04_14-01-42
1772632905290565000,2.365565185546875,-0.9844676948316394,-1.2797479874961075,-0.5074976867169142,0.1871444135904312,0.1047483533620834,0.3422552943229675,walking,2026-03-04_14-01-42
1772632905300514000,2.37551416015625,-1.0603681544683874,-1.2773010327354073,-0.5051292040199041,0.132914587855339,0.1000053659081459,0.281814694404602,walking,2026-03-04_14-01-42
1772632905310463000,2.385462890625,-1.0758835573777557,-1.2602183805093168,-0.525454199168086,0.0847196206450462,0.0871785208582878,0.221890389919281,walking,2026-03-04_14-01-42
1772632905320412000,2.395411865234375,-0.9922706236675382,-1.1946521217517554,-0.6912602629184722,0.0539667457342147,0.0482955053448677,0.164313867688179,walking,2026-03-04_14-01-42
1772632905330360800,2.40536083984375,-0.8742188292607664,-0.9907083427868782,-0.9342489350706338,0.0396815538406372,-0.0130035374313592,0.1129076778888702,walking,2026-03-04_14-01-42
1772632905340309800,2.415309814453125,-0.7710278463121503,-0.7133490528687835,-1.1473504184812306,0.0288624782115221,-0.0628685057163238,0.0770067945122718,walking,2026-03-04_14-01-42
1772632905350259000,2.425259033203125,-0.7219203357286751,-0.366327320920676,-1.410740658149123,0.0121532743796706,-0.0621481202542781,0.0413587838411331,walking,2026-03-04_14-01-42
1772632905360208100,2.4352080078125,-0.7933116473779082,-0.0144178169310092,-1.6521312474548815,-0.0080995708703994,0.0081474920734763,0.0121527072042226,walking,2026-03-04_14-01-42
1772632905370157000,2.445156982421875,-0.8801157783448695,0.3694979137808084,-1.8179782277375456,-0.0213325526565313,0.1145461052656173,-0.0032749851234257,walking,2026-03-04_14-01-42
1772632905380106000,2.45510595703125,-0.7891223789945244,0.6662460870407522,-1.8679718004405497,-0.0157544203102588,0.214811086654663,0.0117524983361363,walking,2026-03-04_14-01-42
1772632905390055000,2.465054931640625,-0.5110754721384495,0.8768436248064041,-1.8159236332952973,0.0099011436104774,0.2961975336074829,0.0540546812117099,walking,2026-03-04_14-01-42
1772632905400003800,2.47500390625,-0.2186974767867475,1.0029517382882536,-1.6381798789918425,0.0549110174179077,0.3414413928985595,0.1116371303796768,walking,2026-03-04_14-01-42
1772632905409952800,2.484952880859375,-0.0218535198897123,1.060585742741823,-1.3632698819220066,0.1057784557342529,0.3627927303314209,0.1624132245779037,walking,2026-03-04_14-01-42
1772632905419902000,2.49490185546875,0.075554641873762,0.9463025070883332,-0.9866022226423024,0.1451956331729889,0.3337743580341339,0.196178525686264,walking,2026-03-04_14-01-42
1772632905429851100,2.50485107421875,0.0998937680341303,0.7551781699471175,-0.5273755226194858,0.1638342887163162,0.2314700931310653,0.2085630148649215,walking,2026-03-04_14-01-42
1772632905439800000,2.514800048828125,0.0075308338962495,0.5612468125611544,-0.1594745226413011,0.1895986199378967,0.1446873396635055,0.1978522539138794,walking,2026-03-04_14-01-42
1772632905449749000,2.5247490234375,-0.1528787776380777,0.4341775989621877,-0.0554816487252712,0.2244080007076263,0.113054059445858,0.1687793284654617,walking,2026-03-04_14-01-42
1772632905459698000,2.534697998046875,-0.3547705194439738,0.4459980928763747,-0.0555424390017986,0.2648257315158844,0.1379199922084808,0.1371519863605499,walking,2026-03-04_14-01-42
1772632905469646800,2.544646728515625,-0.4509286811463535,0.5029721721164881,-0.0360527256339788,0.3075513541698456,0.2172049582004547,0.1140898168087005,walking,2026-03-04_14-01-42
1772632905479595800,2.554595703125,-0.4282143066436052,0.5681517696440219,0.0769213271170854,0.3340832889080047,0.2962687015533447,0.0961178168654441,walking,2026-03-04_14-01-42
1772632905489545000,2.564544921875,-0.2839191598903388,0.6764858876347541,0.4169605067014694,0.3436368703842163,0.3292019069194793,0.0878495052456855,walking,2026-03-04_14-01-42
1772632905499494000,2.574493896484375,-0.0284250072345137,0.7691194554075598,0.8014847247004508,0.3593867719173431,0.3181978464126587,0.0986992269754409,walking,2026-03-04_14-01-42
1772632905509443000,2.584443115234375,0.2161009574875235,0.8932280656352639,1.0535165350079536,0.3834026157855987,0.2703813314437866,0.1101952940225601,walking,2026-03-04_14-01-42
1772632905519392000,2.59439208984375,0.2720123759321868,1.1219244469322265,1.2909025648474692,0.380231648683548,0.1257711350917816,0.1126081719994545,walking,2026-03-04_14-01-42
1772632905529341000,2.6043408203125,0.3997049090612679,1.2265315072238443,1.6431003842592238,0.3586038649082184,-0.0313569791615009,0.1192173361778259,walking,2026-03-04_14-01-42
1772632905539289900,2.614289794921875,0.4929226333975792,1.239304625687748,1.786715074467659,0.3039214015007019,-0.2005794197320938,0.1236971467733383,walking,2026-03-04_14-01-42
1772632905549239000,2.624239013671875,0.4616743854358792,1.2999443878285586,1.8722732970267533,0.2181029170751571,-0.3265464007854461,0.1241192668676376,walking,2026-03-04_14-01-42
1772632905559188000,2.63418798828125,0.3597601444248109,1.294232001531124,1.8008078972280024,0.115998588502407,-0.3890062272548675,0.1125861555337905,walking,2026-03-04_14-01-42
1772632905569137000,2.644136962890625,0.1478420986451208,1.2080498018547892,1.4728618910193445,0.0167167428880929,-0.3823664486408233,0.0810058638453483,walking,2026-03-04_14-01-42
1772632905579086000,2.654086181640625,-0.1572976169936359,1.099731758216023,1.049069492471218,-0.0730538889765739,-0.3249553442001343,0.0308060701936483,walking,2026-03-04_14-01-42
1772632905589035000,2.664034912109375,-0.4611276382733136,1.0279862263016402,0.6257587399601936,-0.1557442396879196,-0.2655586004257202,-0.0372382253408432,walking,2026-03-04_14-01-42
1772632905598984000,2.67398388671875,-0.7131915242195129,0.9617319852799175,0.2734539530426264,-0.2194745242595672,-0.2080839872360229,-0.1174693033099174,walking,2026-03-04_14-01-42
1772632905608932900,2.683932861328125,-0.8716600116234272,0.9640630585759876,-0.0613052403122186,-0.2519150078296661,-0.1530119478702545,-0.1996014565229416,walking,2026-03-04_14-01-42
1772632905618882000,2.693882080078125,-0.9375481958117337,1.0067239503033458,-0.3347048328191042,-0.2731629312038421,-0.1426470726728439,-0.2766816616058349,walking,2026-03-04_14-01-42
1772632905628831000,2.7038310546875,-0.9099015525385736,1.0762227262042463,-0.490442507019639,-0.2710353434085846,-0.1448982506990432,-0.3472394645214081,walking,2026-03-04_14-01-42
1772632905638780000,2.71377978515625,-0.7625530826292931,1.1393684798166157,-0.722419371291995,-0.2338583618402481,-0.0913685858249664,-0.387783795595169,walking,2026-03-04_14-01-42
1772632905648728800,2.723728759765625,-0.5535253514636308,1.2276488208159804,-0.9857821384310722,-0.1650763750076294,0.0366359800100326,-0.3863520920276642,walking,2026-03-04_14-01-42
1772632905658678000,2.733677978515625,-0.3046512745346874,1.3500697702176867,-1.1156360143125057,-0.0947009474039077,0.1935410946607589,-0.3479857444763183,walking,2026-03-04_14-01-42
1772632905668627000,2.743626953125,-0.0189681006465107,1.3687772471666335,-0.9070283351898192,-0.0372632183134555,0.3255302906036377,-0.2889711558818817,walking,2026-03-04_14-01-42
1772632905678575900,2.753575927734375,0.2987462882746011,1.2616187488265336,-0.4187731090813875,-0.0068219560198485,0.3819555044174194,-0.2171169519424438,walking,2026-03-04_14-01-42
1772632905688525000,2.763525146484375,0.5503924602653831,1.0594921022862196,0.2675812616169452,-0.0045084678567945,0.356470912694931,-0.1535457074642181,walking,2026-03-04_14-01-42
1772632905698474000,2.773473876953125,0.6679993604488671,0.7974294579602778,0.9554039513021708,-0.0303086582571268,0.2847500443458557,-0.1031622886657714,walking,2026-03-04_14-01-42
1772632905708423000,2.7834228515625,0.7071097931530326,0.4958635091550648,1.51298581161499,-0.0776503458619117,0.1896040886640548,-0.0741404891014099,walking,2026-03-04_14-01-42
1772632905718371800,2.793371826171875,0.6664895404078066,0.1994707252040505,1.863278674188256,-0.1415468454360962,0.0906761884689331,-0.0630529969930648,walking,2026-03-04_14-01-42
1772632905728320800,2.80332080078125,0.5796192854020744,-0.0804578306801617,2.026079126381874,-0.2099280357360839,0.017771890386939,-0.0715050771832466,walking,2026-03-04_14-01-42
1772632905738270000,2.81327001953125,0.5173386241864413,-0.2902551579788327,2.0316174712866544,-0.271287053823471,-0.0463363751769065,-0.0798163264989852,walking,2026-03-04_14-01-42
1772632905748219100,2.82321923828125,0.5094347922593355,-0.4437291250310838,1.925652420514822,-0.3236778080463409,-0.1215381920337677,-0.0923771262168884,walking,2026-03-04_14-01-42
1772632905758168000,2.83316796875,0.4625166814789175,-0.5224465417847037,1.7452672117918728,-0.3570473194122314,-0.185386449098587,-0.1096218973398208,walking,2026-03-04_14-01-42
1772632905768117000,2.843116943359375,0.387156977655366,-0.5483903997279703,1.4105132791340351,-0.3647227883338928,-0.2335779517889022,-0.1316560953855514,walking,2026-03-04_14-01-42
1772632905778066000,2.85306591796875,0.3317819311097264,-0.5171862831689417,0.9489239416331052,-0.3355961143970489,-0.2547900676727295,-0.1479352265596389,walking,2026-03-04_14-01-42
1772632905788014800,2.863014892578125,0.2445440849006175,-0.3904815189681947,0.4704319846481085,-0.2894731163978576,-0.2542718350887298,-0.1577329933643341,walking,2026-03-04_14-01-42
1772632905797963800,2.8729638671875,0.1791867196533829,-0.2645190975673496,0.1514957988470792,-0.2523075640201568,-0.2513363659381866,-0.1579055190086364,walking,2026-03-04_14-01-42
1772632905807913000,2.882912841796875,0.1406228149160742,-0.2163986252598464,-0.017551438781619,-0.2305964231491089,-0.2370562404394149,-0.159250408411026,walking,2026-03-04_14-01-42
1772632905817862100,2.892862060546875,0.1456120015054941,-0.2270724333569407,-0.0814490336745977,-0.2224314659833908,-0.2171444445848465,-0.1640505343675613,walking,2026-03-04_14-01-42
1772632905827811000,2.90281103515625,0.1429400788825005,-0.2603448806226253,-0.1361532682865858,-0.2119972109794616,-0.1948692351579666,-0.1671523302793502,walking,2026-03-04_14-01-42
1772632905837760000,2.912760009765625,0.2088136500235647,-0.2837595123492181,-0.2636322317302227,-0.1854715049266815,-0.1551644504070282,-0.158807635307312,walking,2026-03-04_14-01-42
1772632905847709000,2.922708984375,0.2426062487058341,-0.2938407613806426,-0.3964455419391393,-0.1514650732278823,-0.0987080931663513,-0.1501446366310119,walking,2026-03-04_14-01-42
1772632905857657900,2.932657958984375,0.1971653708711266,-0.3230037275008857,-0.4486760799139738,-0.1151490584015846,-0.0442960076034069,-0.1547214984893798,walking,2026-03-04_14-01-42
1772632905867606800,2.942606689453125,0.1651288951411843,-0.4279325670927763,-0.4314619102627038,-0.0745323896408081,-0.0134355640038847,-0.1723881065845489,walking,2026-03-04_14-01-42
1772632905877556000,2.952555908203125,0.2150060018576681,-0.5883474393241107,-0.3121206605672836,-0.0327701419591903,-0.0301693100482225,-0.1963842213153839,walking,2026-03-04_14-01-42
1772632905887505200,2.962505126953125,0.2482246000442654,-0.7019054294429719,-0.0985544822543859,-0.0032591205090284,-0.1084031239151954,-0.2255253344774246,walking,2026-03-04_14-01-42
1772632905897454000,2.9724541015625,0.3037564445868134,-0.7723071455329656,0.0936199484616518,0.0151004511862993,-0.1897267550230026,-0.2483284771442413,walking,2026-03-04_14-01-42
1772632905907403000,2.982403076171875,0.3495220243312418,-0.8577437875390053,0.1287362700283527,0.0114828143268823,-0.2190939635038375,-0.2815628945827484,walking,2026-03-04_14-01-42
1772632905917352000,2.99235205078125,0.2639511614862829,-0.9439572591364384,0.061315761706233,-0.0162322930991649,-0.2374112755060196,-0.3148897290229797,walking,2026-03-04_14-01-42
1772632905927300900,3.00230078125,0.1157615645777434,-0.9210204740546644,-0.0007277297526597,-0.0470352135598659,-0.233235701918602,-0.3477680385112762,walking,2026-03-04_14-01-42
1772632905937249800,3.012249755859375,0.0645428339939564,-0.948167278046906,-0.1712999849915504,-0.0587851032614707,-0.2011105865240097,-0.3742364346981048,walking,2026-03-04_14-01-42
1772632905947199200,3.02219921875,0.1450164467651397,-0.9384295817561448,-0.5000000244379044,-0.035578578710556,-0.1507459580898285,-0.382632851600647,walking,2026-03-04_14-01-42
1772632905957148200,3.032148193359375,0.1888005703687667,-0.8265284189336002,-0.8364636836230754,0.017251631245017,-0.1012997850775718,-0.370908260345459,walking,2026-03-04_14-01-42
1772632905967097000,3.04209716796875,0.2819027785666286,-0.7245233578339219,-0.9981576358795166,0.0836716741323471,-0.0740292817354202,-0.3364424109458923,walking,2026-03-04_14-01-42
1772632905977047000,3.052047119140625,0.4325673872865736,-0.6708874831058085,-0.9957944138795136,0.1492085456848144,-0.0844868347048759,-0.2914511859416961,walking,2026-03-04_14-01-42
1772632905986996000,3.061995849609375,0.5779449955143035,-0.6586369272112846,-0.8619196119189262,0.1996775716543197,-0.1186637133359909,-0.2464155405759811,walking,2026-03-04_14-01-42
1772632905996945000,3.07194482421875,0.6597967647708952,-0.6726528853431344,-0.6248632524251938,0.221219465136528,-0.1487749814987182,-0.2043581157922744,walking,2026-03-04_14-01-42
1772632906006893800,3.081893798828125,0.6888239756822586,-0.729569827568531,-0.3939741833895445,0.2291386425495147,-0.1586310714483261,-0.1724388003349304,walking,2026-03-04_14-01-42
1772632906016843000,3.091843017578125,0.7073534657157957,-0.8134421428672969,-0.2574415603965521,0.2369181662797927,-0.1384547352790832,-0.1453915536403656,walking,2026-03-04_14-01-42
1772632906026792000,3.1017919921875,0.7495047274205833,-0.8416590603090822,-0.1625719041347503,0.24693563580513,-0.1184208393096923,-0.1186078712344169,walking,2026-03-04_14-01-42
1772632906036741000,3.1117412109375,0.8315165826097131,-0.8478674134299159,-0.072291329228878,0.2608673274517059,-0.1134511530399322,-0.0885606631636619,walking,2026-03-04_14-01-42
1772632906046690000,3.12168994140625,1.0099116404287516,-0.8490722591750324,0.0212713360875844,0.2787917554378509,-0.1483026146888733,-0.0479352064430713,walking,2026-03-04_14-01-42
1772632906056639000,3.131638916015625,1.223691169231385,-0.8889837060637772,0.1208487316489219,0.2939373850822449,-0.2096275985240936,-0.0085456119850277,walking,2026-03-04_14-01-42
1772632906066588000,3.141587890625,1.351345489241928,-0.9105687842756508,0.15263210940063,0.3006743788719177,-0.2854883074760437,0.0267223641276359,walking,2026-03-04_14-01-42
1772632906076536800,3.151536865234375,1.3710400775320828,-0.9204716080002486,0.0918435864388942,0.2956405878067016,-0.3531404435634613,0.0529871918261051,walking,2026-03-04_14-01-42
1772632906086486000,3.161486083984375,1.2518845596671104,-0.9630169105239212,-0.0427080918699502,0.285831093788147,-0.3642889857292175,0.0589675866067409,walking,2026-03-04_14-01-42
1772632906096435000,3.17143505859375,1.0026563355382532,-0.983315894448012,-0.3162245887547731,0.2766172885894775,-0.3145778477191925,0.0488467290997505,walking,2026-03-04_14-01-42
1772632906106384100,3.181384033203125,0.7456636148877441,-0.9607286534562708,-0.5858797340363264,0.2609224617481231,-0.2364617586135864,0.0293558556586503,walking,2026-03-04_14-01-42
1772632906116333000,3.1913330078125,0.604492554971762,-0.9391229708477854,-0.7506342429071664,0.2357137650251388,-0.1570554077625274,0.0103029394522309,walking,2026-03-04_14-01-42
1772632906126282000,3.201281982421875,0.5792026674252003,-0.9139806385457516,-0.8157096494078636,0.2030527591705322,-0.1103896424174308,0.0005163548048585,walking,2026-03-04_14-01-42
1772632906136231000,3.21123095703125,0.6404567620720714,-0.8484608492784201,-0.7628899133682251,0.1587236076593399,-0.1327962577342987,-0.0019172311294823,walking,2026-03-04_14-01-42
1772632906146179800,3.221179931640625,0.6500801112681627,-0.758314129885286,-0.6874649622887372,0.1053354814648628,-0.2010855674743652,-0.013665766455233,walking,2026-03-04_14-01-42
1772632906156128800,3.231128662109375,0.5229145976878702,-0.620059505405277,-0.6877379340112209,0.0538013018667697,-0.2674828767776489,-0.0437875799834728,walking,2026-03-04_14-01-42
1772632906166078200,3.241078125,0.2587497751845978,-0.4504804989874362,-0.912647928637266,0.0234623048454523,-0.2816282510757446,-0.0783665999770164,walking,2026-03-04_14-01-42
1772632906176027100,3.251027099609375,0.0083490366776473,-0.1646916727676987,-1.3593962553590535,0.0197135191410779,-0.2234806418418884,-0.098796010017395,walking,2026-03-04_14-01-42
1772632906185976000,3.26097607421875,-0.1401312137405388,0.173713037482649,-1.774844019410014,0.0354400165379047,-0.1191342547535896,-0.1013318747282028,walking,2026-03-04_14-01-42
1772632906195925000,3.270925048828125,-0.2003610616398975,0.5386202624723315,-1.9691975477308037,0.0669464170932769,0.0018027168698608,-0.0834376588463783,walking,2026-03-04_14-01-42
1772632906205874000,3.2808740234375,-0.1833089324162341,0.8625523568645119,-1.933822867488861,0.1143658608198165,0.1105960458517074,-0.0473161414265632,walking,2026-03-04_14-01-42
1772632906215822800,3.29082275390625,-0.0216106693108566,1.0712360238328575,-1.7273370028257369,0.1713353991508484,0.1838745176792144,0.0096368882805109,walking,2026-03-04_14-01-42
1772632906225771800,3.300771728515625,0.1986646512518636,1.2195445709459485,-1.4109101694971322,0.2426452785730362,0.225993737578392,0.0747091025114059,walking,2026-03-04_14-01-42
1772632906235721000,3.310720947265625,0.3059624484647996,1.3430419174075126,-0.9880547595381736,0.3062620759010315,0.2406717538833618,0.1322323083877563,walking,2026-03-04_14-01-42
1772632906245670100,3.320670166015625,0.2890127567023038,1.4019542712338269,-0.476669417732954,0.3528538048267364,0.2394690662622451,0.1752570122480392,walking,2026-03-04_14-01-42
1772632906255619000,3.330619140625,0.1732086316244676,1.3555410412356257,0.0223731598496437,0.376072496175766,0.228410854935646,0.1977633386850357,walking,2026-03-04_14-01-42
1772632906265568000,3.340568115234375,0.0487812743037939,1.3009616020470858,0.5121890594035386,0.3788735866546631,0.1937415450811386,0.2062841355800628,walking,2026-03-04_14-01-42
1772632906275517000,3.350516845703125,-0.0629582682162523,1.2458522937655447,0.922968831643462,0.3680020570755005,0.1471807062625885,0.1998259574174881,walking,2026-03-04_14-01-42
1772632906285465900,3.3604658203125,-0.1915053723480552,1.175030160306394,1.2080448334187268,0.3478738665580749,0.0950535908341407,0.1811308413743972,walking,2026-03-04_14-01-42
1772632906295415000,3.3704150390625,-0.3423032885914668,1.1531029906585812,1.3382383165180682,0.324698805809021,0.056050855666399,0.1528419703245163,walking,2026-03-04_14-01-42
1772632906305364000,3.380364013671875,-0.5124762788470835,1.1445981971636414,1.3026350882172584,0.3089147806167602,0.0603569224476814,0.1210531443357467,walking,2026-03-04_14-01-42
1772632906315313200,3.390313232421875,-0.6869152925167232,1.138140107065439,1.1809960829734802,0.287525475025177,0.0827704593539238,0.0816526785492897,walking,2026-03-04_14-01-42
1772632906325262000,3.400261962890625,-0.8595172269523144,1.1154662107035518,1.166069147476554,0.2474475502967834,0.1022456213831901,0.0336175076663494,walking,2026-03-04_14-01-42
1772632906335211000,3.4102109375,-0.9804035141326488,1.0604381509646772,1.1962637947320938,0.188802033662796,0.1203917413949966,-0.0248704589903354,walking,2026-03-04_14-01-42
1772632906345160000,3.420159912109375,-1.083032040892914,0.9702344406872988,1.2830273014277218,0.1022738069295883,0.1241308152675628,-0.0955992266535759,walking,2026-03-04_14-01-42
1772632906355108900,3.43010888671875,-1.2089471890859305,0.9185238349333404,1.4151707495510577,-0.0107629802078008,0.1215862333774566,-0.1817109137773513,walking,2026-03-04_14-01-42
1772632906365058000,3.44005810546875,-1.285089494654536,0.8546554661348461,1.4899188242822885,-0.1404171139001846,0.1157256811857223,-0.2671866714954376,walking,2026-03-04_14-01-42
1772632906375007000,3.450007080078125,-1.2938017934203148,0.8457067282646894,1.4853291584044694,-0.268596738576889,0.1149027869105339,-0.3412910103797912,walking,2026-03-04_14-01-42
1772632906384956000,3.459955810546875,-1.199611789985746,0.9133572459504008,1.3669722435712814,-0.3715127408504486,0.1203241795301437,-0.3845032155513763,walking,2026-03-04_14-01-42
1772632906394905000,3.469905029296875,-0.9588011925250292,1.0323694098219276,1.069849245649576,-0.4287192225456238,0.1376120746135711,-0.3822210133075714,walking,2026-03-04_14-01-42
1772632906404854000,3.47985400390625,-0.6491168191939592,1.2009770869895815,0.7083470067977905,-0.4513217508792877,0.1525366902351379,-0.2706428170204162,walking,2026-03-04_14-01-42
1772632906414803000,3.489802978515625,-0.3415896969620138,1.321306178678572,0.4118833495676517,-0.4411321580410003,0.1525773555040359,-0.2976332306861877,walking,2026-03-04_14-01-42
1772632906424751900,3.499751953125,-0.1174619387548416,1.3121806229367852,0.239451730197668,-0.4180582463741302,0.1004209443926811,-0.1829780340194702,walking,2026-03-04_14-01-42
1772632906434701000,3.509701171875,0.0153068747252225,1.1777826738849282,0.1699719512581825,-0.4043840765953064,0.0452718958258628,-0.1239842846989631,walking,2026-03-04_14-01-42
1772632906444650000,3.51964990234375,-0.0032690117333084,0.9670976039662956,0.0982721581816673,-0.3923162519931793,-0.0100731179118156,-0.0894609317183494,walking,2026-03-04_14-01-42
1772632906454599000,3.529598876953125,-0.0833953089041635,0.7176628244146704,-0.0409580333322286,-0.3788278698921203,-0.0433871336281299,-0.1134882345795631,walking,2026-03-04_14-01-42
1772632906464547800,3.5395478515625,-0.0407552773017436,0.5109061799861491,-0.2153150678068399,-0.3573089838027954,-0.0438033863902092,0.041359931230545,walking,2026-03-04_14-01-42
1772632906474497000,3.5494970703125,-0.0003902048939839,0.4029508321799337,-0.3576747895181179,-0.3481266796588897,-0.0118119567632675,-0.042918425053358,walking,2026-03-04_14-01-42
1772632906484446000,3.559446044921875,0.0788321291744709,0.3240573282070457,-0.4042547543853521,-0.3212258219718933,0.0032415608875453,0.1506302803754806,walking,2026-03-04_14-01-42
1772632906494395100,3.56939501953125,0.1699061194803565,0.2188233681887388,-0.3841512930333614,-0.2885175049304962,0.0476746186614036,0.0718757137656211,walking,2026-03-04_14-01-42
1772632906504344000,3.579343994140625,0.2820177467158064,0.0986956442907452,-0.3597907587587833,-0.2321759313344955,0.0490578711032867,0.2695376574993133,walking,2026-03-04_14-01-42
1772632906514293000,3.58929296875,0.3557682617770508,-0.032769027788192,-0.2249205160200595,-0.1838808357715606,0.0672410726547241,0.1822710633277893,walking,2026-03-04_14-01-42
1772632906524242000,3.599241943359375,0.3624631197731942,-0.1912757283106446,-0.049842181533575,-0.1262817233800888,0.0222291219979524,0.3609476089477539,walking,2026-03-04_14-01-42
1772632906534190800,3.60919091796875,0.3645580096932128,-0.3347805284038186,0.1684159539878368,-0.0907783880829811,0.003129607765004,0.2467852979898452,walking,2026-03-04_14-01-42
1772632906544140000,3.61914013671875,0.3369322630776092,-0.4960381350696086,0.329710677793622,-0.0533015802502632,-0.0535283461213111,0.3990110456943512,walking,2026-03-04_14-01-42
1772632906554089000,3.6290888671875,0.2225506085509434,-0.5710461759112775,0.4975549693733453,-0.0539419800043106,-0.0768312960863113,0.2940605878829956,walking,2026-03-04_14-01-42
1772632906564038100,3.6390380859375,0.0347341538487002,-0.6642658730089664,0.6323883872330188,-0.0768259912729263,-0.1028911247849464,0.304531067609787,walking,2026-03-04_14-01-42
1772632906573987000,3.648987060546875,-0.1914218587830662,-0.7479844590507447,0.6977905414700508,-0.1247582510113716,-0.0819114372134208,0.2506415247917175,walking,2026-03-04_14-01-42
1772632906583936000,3.65893603515625,-0.4133169990999624,-0.8088133140228688,0.6765940241843461,-0.1808398962020874,-0.0517886839807033,0.1937540173530578,walking,2026-03-04_14-01-42
1772632906593885000,3.668885009765625,-0.5448879080323502,-0.7657859270706773,0.5814905591666698,-0.2243286520242691,-0.031471062451601,0.1539295762777328,walking,2026-03-04_14-01-42
1772632906603835100,3.678835205078125,-0.4986155478095636,-0.6086379476808012,0.3859919524639845,-0.2374098300933838,-0.0167653542011976,0.1415541321039199,walking,2026-03-04_14-01-42
1772632906613782800,3.68878271484375,-0.3937792818719521,-0.3333767990857362,0.1525847631275654,-0.220106303691864,0.0001697079278528,0.1621253937482834,walking,2026-03-04_14-01-42
1772632906623733000,3.69873291015625,-0.2846290617253631,-0.0197702838748693,-0.0569154809206724,-0.1874665915966034,0.0176070220768451,0.2080172598361969,walking,2026-03-04_14-01-42
1772632906633682000,3.708681884765625,-0.2089872895574197,0.1732118099622428,-0.1584025094956159,-0.1586980670690536,0.0456535667181015,0.2640025019645691,walking,2026-03-04_14-01-42
1772632906643631000,3.718631103515625,-0.1915811044653877,0.2250029336065054,-0.1460685131013393,-0.1417263150215149,0.087267942726612,0.312313437461853,walking,2026-03-04_14-01-42
1772632906653580000,3.728580078125,-0.2583124980121851,0.1968865539297461,-0.0584627103626728,-0.1361213475465774,0.125993549823761,0.3484204411506653,walking,2026-03-04_14-01-42
1772632906663529000,3.738529052734375,-0.2921695402327924,0.1017240522012114,0.1169984859615564,-0.142691895365715,0.1490272283554077,0.380530446767807,walking,2026-03-04_14-01-42
1772632906673478000,3.748477783203125,-0.3139822897206992,-0.0353013227447867,0.2776221786379814,-0.1432377398014068,0.1573858559131622,0.4020389020442962,walking,2026-03-04_14-01-42
1772632906683427000,3.758427001953125,-0.3454260602544993,-0.1813264350958168,0.3961351608157157,-0.1399253010749817,0.1497340649366378,0.4108976423740387,walking,2026-03-04_14-01-42
1772632906693376000,3.7683759765625,-0.3440001191046088,-0.3116176794812083,0.4382242440044879,-0.1255899220705032,0.1226779818534851,0.4120112955570221,walking,2026-03-04_14-01-42
1772632906703325000,3.778324951171875,-0.3359644774913787,-0.447312390345335,0.4620265598744154,-0.1120980829000473,0.1120996475219726,0.4031341671943664,walking,2026-03-04_14-01-42
1772632906713274000,3.788274169921875,-0.3395292573008686,-0.5729163536973297,0.4734487021207809,-0.1086014360189437,0.0908524319529533,0.3926251828670501,walking,2026-03-04_14-01-42
1772632906723223000,3.79822314453125,-0.3247606541708112,-0.5977843991026282,0.5175497096538544,-0.1053105592727661,0.0750444382429122,0.3860490322113037,walking,2026-03-04_14-01-42
1772632906733172000,3.808171875,-0.2600471397850662,-0.6316209099918604,0.4629273081064224,-0.0967875123023986,0.0755820348858833,0.3835784792900085,walking,2026-03-04_14-01-42
1772632906743121000,3.818120849609375,-0.2088673164395615,-0.5902236084595323,0.3627121991634369,-0.0935195460915565,0.0722320452332496,0.3933821320533752,walking,2026-03-04_14-01-42
1772632906753069800,3.82806982421875,-0.1830092736162245,-0.5524475661642849,0.2991676554918289,-0.095488540828228,0.0618528015911579,0.4057857394218445,walking,2026-03-04_14-01-42
1772632906763019000,3.83801904296875,-0.165906491917558,-0.5359985356666147,0.2336222933918237,-0.0955641716718673,0.0452147014439106,0.4139305055141449,walking,2026-03-04_14-01-42
1772632906772968000,3.847968017578125,-0.2131428383342921,-0.5474271076537668,0.0638642771452665,-0.0833929777145385,0.0467415526509285,0.4114201664924621,walking,2026-03-04_14-01-42
1772632906782917000,3.857917236328125,-0.3219827869553118,-0.5498917442016303,-0.1190028115212917,-0.0743395611643791,0.0543126501142978,0.4042051136493683,walking,2026-03-04_14-01-42
1772632906792866000,3.867865966796875,-0.4873553911918774,-0.5085492415964603,-0.2874146738559007,-0.0652760416269302,0.0739480778574943,0.3845607340335846,walking,2026-03-04_14-01-42
1772632906802815000,3.87781494140625,-0.6979626101013272,-0.5275858043693006,-0.4669587555795907,-0.0536199249327182,0.1216372996568679,0.3521276712417602,walking,2026-03-04_14-01-42
1772632906812764000,3.887763916015625,-0.8573901517957448,-0.534307367709279,-0.6747784991949797,-0.0316296257078647,0.1732649356126785,0.3272450268268585,walking,2026-03-04_14-01-42
1772632906822712800,3.897712890625,-0.9205522720210254,-0.5066127205759287,-0.7979138804763555,-0.0003036595880985,0.2167754024267196,0.3186001479625702,walking,2026-03-04_14-01-42
1772632906832662000,3.907662109375,-0.870976851664856,-0.4682616548717022,-0.8269792314410209,0.0371824167668819,0.2297509908676147,0.3362997174263,walking,2026-03-04_14-01-42
1772632906842611200,3.917611083984375,-0.7368968094557523,-0.4698709897644818,-0.8220657404363155,0.0926201120018959,0.2319571524858474,0.3687199652194977,walking,2026-03-04_14-01-42
1772632906852560100,3.92756005859375,-0.6235020470745861,-0.5251584310919046,-0.8211468720257282,0.1508280634880066,0.2378977239131927,0.4022716879844665,walking,2026-03-04_14-01-42
1772632906862508500,3.937508544921875,-0.6703840636283159,-0.604819412305951,-0.7491641703546047,0.1950511783361435,0.2396285086870193,0.4253008365631103,walking,2026-03-04_14-01-42
1772632906872457500,3.94745751953125,-0.7668339017536491,-0.7595008554518222,-0.5685445683538913,0.2256605774164199,0.2315428704023361,0.4414569735527038,walking,2026-03-04_14-01-42
1772632906882406400,3.957406494140625,-0.7868252079680561,-0.955311889104545,-0.3653898939400911,0.236643984913826,0.1897749155759811,0.4520816504955292,walking,2026-03-04_14-01-42
1772632906892355300,3.967355224609375,-0.7534878057073802,-1.1299677603952587,-0.1302414138942957,0.227237269282341,0.1203207820653915,0.4532396793365478,walking,2026-03-04_14-01-42
1772632906902304500,3.977304443359375,-0.84457019851543,-1.2749689365260302,0.0213993463814258,0.1995422542095184,0.0589077547192573,0.4353072941303253,walking,2026-03-04_14-01-42
1772632906912253400,3.98725341796875,-1.0459470496017484,-1.3952011437118053,0.0090285251080989,0.1666529029607772,0.0095680635422468,0.3827885687351227,walking,2026-03-04_14-01-42
1772632906922202600,3.99720263671875,-1.3217406245730816,-1.488709448492527,-0.1197077449202537,0.1391051560640335,-0.0031831511296331,0.2983834147453308,walking,2026-03-04_14-01-42
1772632906932151600,4.007151611328125,-1.527255452246964,-1.5414746778659525,-0.364185194325447,0.1300430446863174,0.0081286039203405,0.1958308815956115,walking,2026-03-04_14-01-42
1772632906942100500,4.0171005859375,-1.5846278831548988,-1.4712047714620828,-0.661092503669858,0.1417510956525802,0.0220127273350954,0.1086216792464256,walking,2026-03-04_14-01-42
1772632906952049400,4.02704931640625,-1.4663126155063508,-1.2997174472048878,-0.8784481373935937,0.1355812847614288,0.0020007537677884,0.0392368920147419,walking,2026-03-04_14-01-42
1772632906961998300,4.036998291015625,-1.2471483249254525,-1.138085892660171,-0.893999926790595,0.1197868734598159,-0.0315588042140007,-0.0075154337100684,walking,2026-03-04_14-01-42
1772632906971947500,4.046947509765625,-0.995623295096308,-0.9399728656753896,-0.932307153353095,0.0937395617365837,-0.0626493468880653,-0.0466265156865119,walking,2026-03-04_14-01-42
1772632906981896400,4.056896484375,-0.8785796548187732,-0.6893116130687296,-1.014175289222598,0.0465882942080497,-0.0715027600526809,-0.0914243459701538,walking,2026-03-04_14-01-42
1772632906991845600,4.066845703125,-0.9257027135867624,-0.4374462453693151,-1.1354004529684782,-0.0238160546869039,-0.0125631522387266,-0.1461379379034042,walking,2026-03-04_14-01-42
1772632907001794600,4.076794677734375,-1.0522295639373362,-0.2013461636871099,-1.2417401822715997,-0.0899812281131744,-0.0076783830299973,-0.1865074634552002,walking,2026-03-04_14-01-42
1772632907011743500,4.086743408203125,-1.0560846319302917,0.1271717971906066,-1.3531722662776708,-0.1188338249921798,0.0352301821112632,-0.2254716008901596,walking,2026-03-04_14-01-42
1772632907021692400,4.0966923828125,-0.8974331891749053,0.3140351158864796,-1.6164970394939184,-0.0954209119081497,0.0517130158841609,-0.2364459484815597,walking,2026-03-04_14-01-42
1772632907031641600,4.1066416015625,-0.6886462079625576,0.6364892466805875,-1.8368208753734825,-0.0213679336011409,0.0839558243751525,-0.2151777595281601,walking,2026-03-04_14-01-42
1772632907041590500,4.116590576171875,-0.4807249036688357,0.9094343734182416,-1.9959902775883676,0.0860083252191543,0.129012793302536,-0.1712278723716735,walking,2026-03-04_14-01-42
1772632907051539500,4.12653955078125,-0.3243123258814215,1.076777583608031,-1.9897528445035215,0.1958615183830261,0.1469721496105194,-0.1249874979257583,walking,2026-03-04_14-01-42
1772632907061488400,4.13648828125,-0.2257531674519181,1.1387405571766196,-1.7182815897107124,0.2862923443317413,0.1377179324626922,-0.071893386542797,walking,2026-03-04_14-01-42
1772632907071437600,4.1464375,-0.1459535084195435,1.0513380219250916,-1.2935901964962482,0.3434240818023681,0.1140772700309753,-0.0298099815845489,walking,2026-03-04_14-01-42
1772632907081386500,4.156386474609375,-0.1248057987116277,0.8994371494084596,-0.8404086218565702,0.3671914637088775,0.1076702326536178,0.0030062892474234,walking,2026-03-04_14-01-42
1772632907091335400,4.16633544921875,-0.2089938288960605,0.7290213999055326,-0.4053489793628454,0.3658001124858856,0.1366746872663498,0.014444924890995,walking,2026-03-04_14-01-42
1772632907101284600,4.17628466796875,-0.297500672127679,0.5874409920036793,-0.0306546659827232,0.3523008227348327,0.1774133294820785,0.0119910882785916,walking,2026-03-04_14-01-42
1772632907111233500,4.186233642578125,-0.3502743040032685,0.4893529582172632,0.3096680067181587,0.3535089492797851,0.211196482181549,0.0030186963267624,walking,2026-03-04_14-01-42
1772632907121182500,4.196182373046875,-0.3382805724140256,0.4898600309565663,0.5963304009020328,0.366966187953949,0.2433197945356369,-0.0188538450747728,walking,2026-03-04_14-01-42
1772632907131131400,4.20613134765625,-0.2104691621456295,0.4984463652551174,0.8376233750522136,0.3900785744190216,0.252791553735733,-0.0527614578604698,walking,2026-03-04_14-01-42
1772632907141080300,4.216080322265625,-0.065016442855075,0.6118330904603004,1.074322007149458,0.4247033894062042,0.2423335909843444,-0.0812772512435913,walking,2026-03-04_14-01-42
1772632907151029500,4.226029541015625,0.1305471188426017,0.8162395185008644,1.298376261729002,0.4513673484325409,0.154733270406723,-0.0919039621949195,walking,2026-03-04_14-01-42
1772632907160978400,4.235978515625,0.3171227066382766,1.0251334672190249,1.4903583847433328,0.4579035639762878,0.0611569732427597,-0.1093623116612434,walking,2026-03-04_14-01-42
1772632907170927600,4.245927734375,0.5360036502331494,1.1465747579336163,1.7199480616182088,0.431518942117691,-0.015153732150793,-0.1102493330836296,walking,2026-03-04_14-01-42
1772632907180876500,4.25587646484375,0.6625350306283683,1.2440695020020007,1.8247358853042124,0.3743494153022766,-0.1014159098267555,-0.1090543791651725,walking,2026-03-04_14-01-42
1772632907190826500,4.265826416015625,0.7826098552953451,1.340478496660292,1.93001996807456,0.2858306765556335,-0.1712004393339157,-0.0984500870108604,walking,2026-03-04_14-01-42
1772632907200775400,4.275775390625,0.7888933194790035,1.4754019308909774,2.004430189153552,0.1616788953542709,-0.2572911381721496,-0.0796335265040397,walking,2026-03-04_14-01-42
1772632907210724600,4.285724609375,0.8476940296243876,1.495050049690902,2.0088047509759663,0.0305806081742048,-0.3352466523647308,-0.0514665581285953,walking,2026-03-04_14-01-42
1772632907220672500,4.295672607421875,0.8518690502867102,1.4940505172595382,1.7811691307783126,-0.0949397683143615,-0.3706810772418976,-0.0307106785476207,walking,2026-03-04_14-01-42
1772632907230622500,4.30562255859375,0.6610738720346242,1.4256220009386538,1.3634534217953682,-0.2017261534929275,-0.3611046969890594,-0.0294247660785913,walking,2026-03-04_14-01-42
1772632907240571400,4.3155712890625,0.4220873481959104,1.2775728354141116,0.9066255996078252,-0.2937162518501282,-0.3329683840274811,-0.0694163888692855,walking,2026-03-04_14-01-42
1772632907250520600,4.3255205078125,0.0725659814517945,1.1905533081308006,0.5090361483305692,-0.3692782521247864,-0.3057509958744049,-0.1304948627948761,walking,2026-03-04_14-01-42
1772632907260469500,4.335469482421875,-0.1877734923433512,1.1594228413298726,0.1433206756979227,-0.4189083874225616,-0.2841695249080658,-0.1982097327709198,walking,2026-03-04_14-01-42
1772632907270418400,4.34541845703125,-0.34282771432437,1.1432461980327964,-0.2711883461982011,-0.4337122142314911,-0.2686577141284942,-0.2656913995742798,walking,2026-03-04_14-01-42
1772632907280367400,4.355367431640625,-0.4402123856144025,1.225930326460302,-0.6919839010179042,-0.4196909368038177,-0.2465931624174118,-0.3309497535228729,walking,2026-03-04_14-01-42
1772632907290316500,4.365316650390625,-0.3892536211410537,1.2887792890831828,-1.099926404005289,-0.3675025999546051,-0.1822547763586044,-0.3689580857753753,walking,2026-03-04_14-01-42
1772632907300265500,4.375265380859375,-0.1743479013200849,1.3344824711158871,-1.4948381605058907,-0.2731177806854248,-0.0181646402925252,-0.3505503237247467,walking,2026-03-04_14-01-42
1772632907310214400,4.38521435546875,0.0004680193705484,1.424938987110555,-1.771855943509936,-0.172475665807724,0.1836601197719574,-0.2966662645339966,walking,2026-03-04_14-01-42
1772632907320163600,4.39516357421875,0.1798695873510092,1.500663797919452,-1.6027736345678567,-0.0942075029015541,0.345978170633316,-0.2218524813652038,walking,2026-03-04_14-01-42
1772632907330112500,4.405112548828125,0.4661812684010714,1.3610817242279647,-1.0035574490964412,-0.0585186593234539,0.4180172085762024,-0.1389325261116027,walking,2026-03-04_14-01-42
1772632907340061400,4.4150615234375,0.7017736197568476,1.0736406007565558,-0.1782791763544082,-0.0566131733357906,0.4068636298179626,-0.0694796741008758,walking,2026-03-04_14-01-42
1772632907350010400,4.42501025390625,0.8127456119704991,0.7363388833120464,0.5851975969910621,-0.0820888876914978,0.3307003974914551,-0.0163294244557619,walking,2026-03-04_14-01-42
1772632907359959600,4.43495947265625,0.8025561533242463,0.4135993597052991,1.183193300756812,-0.123427003622055,0.2264842391014099,0.0201132707297801,walking,2026-03-04_14-01-42
1772632907369908500,4.444908447265625,0.7449610926415771,0.1076077034123241,1.510737155905366,-0.1619382202625274,0.131993293762207,0.0354194678366184,walking,2026-03-04_14-01-42
1772632907379857700,4.454857666015625,0.6533931813389062,-0.1124503211379051,1.672720446497202,-0.2007434070110321,0.0277912560850381,0.0452875457704067,walking,2026-03-04_14-01-42
1772632907389806600,4.464806640625,0.5611280815523118,-0.2632971545569598,1.6791648003309965,-0.2341895401477813,-0.0639413893222808,0.0439728796482086,walking,2026-03-04_14-01-42
1772632907399755500,4.474755615234375,0.4179385579533874,-0.4392357591345906,1.5325433295220137,-0.2536977231502533,-0.116620048880577,0.0305638629943132,walking,2026-03-04_14-01-42
1772632907409704400,4.484704345703125,0.2799096319880336,-0.5260382826663553,1.2579291005283593,-0.2567138671875,-0.1575896888971328,0.0094743547961115,walking,2026-03-04_14-01-42
1772632907419653400,4.4946533203125,0.1745383093256503,-0.5457336016088724,0.9418225851953028,-0.2433064728975296,-0.1875433325767517,-0.0063621322624385,walking,2026-03-04_14-01-42
1772632907429602300,4.504602294921875,0.1553269014425575,-0.4849890639193355,0.5931640458256006,-0.2136085629463195,-0.2072432339191436,-0.0043945359066128,walking,2026-03-04_14-01-42
1772632907439551500,4.514551513671875,0.1582194810789078,-0.3949433206826448,0.2816629784613847,-0.1754912734031677,-0.2196317315101623,0.0068248286843299,walking,2026-03-04_14-01-42
1772632907449500700,4.524500732421875,0.1549335912760347,-0.329897140276432,0.049178164666891,-0.13344207406044,-0.2087268233299255,0.0178303718566894,walking,2026-03-04_14-01-42
1772632907459449600,4.53444970703125,0.1293857469130307,-0.3468596732541918,-0.1507289061278104,-0.0930371284484863,-0.16912642121315,0.0208549238741397,walking,2026-03-04_14-01-42
1772632907469398500,4.5443984375,0.0134966104328632,-0.3979493706308305,-0.2560743636965751,-0.0656809136271476,-0.1100650876760482,0.007466522976756,walking,2026-03-04_14-01-42
1772632907479347500,4.554347412109375,-0.1188622340068221,-0.4825825872994959,-0.2451823828041553,-0.0562820807099342,-0.0566300898790359,-0.0185206029564142,walking,2026-03-04_14-01-42
1772632907489296400,4.56429638671875,-0.2288948264785111,-0.577635345043242,-0.0863029034465551,-0.0629036799073219,-0.0292890332639217,-0.0607706382870674,walking,2026-03-04_14-01-42
1772632907499245300,4.574245361328125,-0.2557486388735473,-0.6784487121403217,0.0911895064443349,-0.068425215780735,-0.0283742379397153,-0.1083570644259452,walking,2026-03-04_14-01-42
1772632907509194500,4.584194580078125,-0.2170998323317617,-0.7547356868766247,0.1932517045587301,-0.0604834221303463,-0.0253337696194648,-0.1555331349372863,walking,2026-03-04_14-01-42
1772632907519143700,4.594143798828125,-0.1496424991305917,-0.7881139326043427,0.1579851608663797,-0.0333809629082679,-0.028809992596507,-0.192599281668663,walking,2026-03-04_14-01-42
1772632907529092600,4.604092529296875,-0.071726096561551,-0.7633788659289479,0.1603992362707853,-0.003065017517656,-0.0512627363204956,-0.2247345298528671,walking,2026-03-04_14-01-42
1772632907539041500,4.61404150390625,0.0053949909113347,-0.7328627316340803,0.2170557739943265,0.0217204894870519,-0.0837610214948654,-0.250531256198883,walking,2026-03-04_14-01-42
1772632907548990500,4.623990478515625,0.087855174389854,-0.7112010810546576,0.2311725621521473,0.0350366905331611,-0.1151822283864021,-0.27017942070961,walking,2026-03-04_14-01-42
1772632907558939400,4.633939453125,0.0973502210311591,-0.6933848538570105,0.263377964708209,0.0262447986751794,-0.1337053030729293,-0.2901467382907867,walking,2026-03-04_14-01-42
1772632907568888300,4.643888427734375,0.0690193948861211,-0.7091236902587116,0.2853320223629474,-4.40226867794e-05,-0.1253290176391601,-0.3133922517299652,walking,2026-03-04_14-01-42
1772632907578837500,4.65383740234375,0.0131872522227466,-0.750539842621982,0.2183615958958864,-0.0382649078965187,-0.1099599078297615,-0.3413285315036773,walking,2026-03-04_14-01-42
1772632907588786700,4.66378662109375,-0.0300729936372488,-0.7688552515134215,0.0978776059061288,-0.0586082451045513,-0.0878643989562988,-0.3610172569751739,walking,2026-03-04_14-01-42
1772632907598735600,4.673735595703125,0.0349547743294388,-0.7409161280997097,-0.1264583882242441,-0.0515490062534809,-0.0682273134589195,-0.3519191145896911,walking,2026-03-04_14-01-42
1772632907608684500,4.6836845703125,0.1898847854088991,-0.6687213911131024,-0.3602671440988779,-0.0196236241608858,-0.0600310899317264,-0.3268056809902191,walking,2026-03-04_14-01-42
1772632907618633500,4.693633544921875,0.3350217898137867,-0.6211470083810389,-0.5283849919229745,0.0234332997351884,-0.0690994188189506,-0.2878201901912689,walking,2026-03-04_14-01-42
1772632907628582400,4.70358251953125,0.4205544395402074,-0.5954322830185294,-0.5958849952220916,0.0705275982618331,-0.0823432579636573,-0.2558173835277557,walking,2026-03-04_14-01-42
1772632907638531300,4.71353125,0.4347867438364773,-0.654599196127802,-0.6027315001159906,0.1158402115106582,-0.0949682369828224,-0.2323328405618667,walking,2026-03-04_14-01-42
1772632907648480500,4.72348046875,0.4794740998901426,-0.7301607791990041,-0.5685860694080591,0.154718741774559,-0.1092414036393165,-0.2083379477262497,walking,2026-03-04_14-01-42
1772632907658429400,4.733429443359375,0.5606268905645236,-0.7767058188833296,-0.5037409645318984,0.1934762448072433,-0.1202232167124748,-0.1811366826295852,walking,2026-03-04_14-01-42
1772632907668378600,4.743378662109375,0.6794077664308249,-0.8234618709698319,-0.413233010610938,0.2203699350357055,-0.1284797638654709,-0.1484686285257339,walking,2026-03-04_14-01-42
1772632907678327600,4.75332763671875,0.7847281626235694,-0.8588992411844432,-0.3279144420266151,0.2393204569816589,-0.1563183069229126,-0.1204511076211929,walking,2026-03-04_14-01-42
1772632907688276500,4.7632763671875,0.8675950272068381,-0.9284963628932832,-0.2481985157549381,0.2497472465038299,-0.170558288693428,-0.0969465151429176,walking,2026-03-04_14-01-42
1772632907698225400,4.773225341796875,0.8480984457068145,-0.9864851721338928,-0.2909182980626821,0.2607586085796356,-0.1577069461345672,-0.0876688584685325,walking,2026-03-04_14-01-42
1772632907708174600,4.783174560546875,0.7551581500723957,-1.0555734675377606,-0.383238269841671,0.2674626410007477,-0.1396490484476089,-0.0860246941447258,walking,2026-03-04_14-01-42
1772632907718123500,4.79312353515625,0.6965136534020304,-1.1044225463807582,-0.4525321708202361,0.2742952406406402,-0.1244834139943122,-0.087214320898056,walking,2026-03-04_14-01-42
1772632907728072400,4.803072509765625,0.6591727876536547,-1.1731611515641212,-0.5176110844522714,0.2706896066665649,-0.1464565098285675,-0.1024168282747268,walking,2026-03-04_14-01-42
1772632907738021400,4.813021484375,0.5768991031905636,-1.2065825057812034,-0.5195575423449278,0.2593389451503753,-0.1894106268882751,-0.1173592880368232,walking,2026-03-04_14-01-42
1772632907747970600,4.822970458984375,0.5524536305788904,-1.2202319686882197,-0.5723170726299286,0.2456899136304855,-0.203371912240982,-0.1304628551006317,walking,2026-03-04_14-01-42
1772632907757919500,4.83291943359375,0.5037960191873834,-1.2046456924997269,-0.7444038240849972,0.2282363623380661,-0.1878890842199325,-0.141705647110939,walking,2026-03-04_14-01-42
1772632907767868400,4.842868408203125,0.3814230371132492,-1.131183273664862,-0.9376648809939624,0.1991224586963653,-0.1762189865112304,-0.1596240550279617,walking,2026-03-04_14-01-42
1772632907777817600,4.852817626953125,0.2436058176698163,-1.0434157044932246,-1.001771150201559,0.1537866741418838,-0.1976880580186844,-0.1883244067430496,walking,2026-03-04_14-01-42
1772632907787766500,4.8627666015625,0.1088822533927857,-0.8940642241984605,-1.0091554152339697,0.0800346955657005,-0.19277985394001,-0.2371316254138946,walking,2026-03-04_14-01-42
1772632907797715500,4.872715576171875,-0.1098643597653135,-0.7200552725091576,-1.0792951193869114,-0.0136065790429711,-0.1921843737363815,-0.2741871178150177,walking,2026-03-04_14-01-42
1772632907807664400,4.882664306640625,-0.3536141159504651,-0.3730012457266449,-1.163480300027132,-0.0860932171344757,-0.1880977749824524,-0.2915606200695038,walking,2026-03-04_14-01-42
1772632907817613600,4.892613525390625,-0.4385667007666081,0.0104445293858647,-1.4504852240383623,-0.0929266214370727,-0.1530678868293762,-0.3057523369789123,walking,2026-03-04_14-01-42
1772632907827562500,4.9025625,-0.4093779426179826,0.3517132507652044,-1.8664952981472012,-0.0409533195197582,-0.0810654908418655,-0.3004629909992218,walking,2026-03-04_14-01-42
1772632907837511400,4.912511474609375,-0.3649583341224119,0.7660008849956095,-2.112089184361696,0.0563556551933288,0.0279542002826929,-0.2606327533721924,walking,2026-03-04_14-01-42
1772632907847460600,4.922460693359375,-0.2370480300568044,1.1060501475825906,-2.1837270181179047,0.1732979118824005,0.1390336006879806,-0.1924875229597091,walking,2026-03-04_14-01-42
1772632907857409500,4.932409423828125,-0.036877303357236,1.3344149588376284,-1.9409440976709127,0.2958019971847534,0.2148716449737548,-0.1166694536805152,walking,2026-03-04_14-01-42
1772632907867358200,4.942358154296875,0.1389398302651941,1.5130923407293857,-1.4004980810761452,0.3852096796035766,0.2358361631631851,-0.0442168377339839,walking,2026-03-04_14-01-42
1772632907877307400,4.952307373046875,0.2403925181791186,1.5476863919876516,-0.6394499961823225,0.4332698881626129,0.2097395807504654,0.0165365245193243,walking,2026-03-04_14-01-42
1772632907887256300,4.96225634765625,0.2570455102836713,1.4764593309894205,0.058059390258789,0.4425455331802368,0.1667296439409256,0.0539039075374603,walking,2026-03-04_14-01-42
1772632907897205200,4.972205322265625,0.0995106870006769,1.3917118402913211,0.6034083764642477,0.4325101971626282,0.128849372267723,0.0615088269114494,walking,2026-03-04_14-01-42
1772632907907154400,4.982154541015625,-0.1127924856390804,1.337709324207902,0.9532669392734764,0.4112260937690735,0.1055551320314407,0.0378205068409442,walking,2026-03-04_14-01-42
1772632907917103400,4.992103271484375,-0.3455511844715103,1.2891338016092777,1.1470312695294618,0.3867394030094147,0.0738861486315727,0.0003881820011883,walking,2026-03-04_14-01-42
1772632907927052300,5.00205224609375,-0.4341855630729347,1.2917094973161816,1.2579957360237837,0.3720619976520538,0.0413838475942611,-0.030088622123003,walking,2026-03-04_14-01-42
1772632907937001200,5.012001220703125,-0.4065410752242431,1.3243515377238393,1.2119085231095552,0.3786426782608032,0.0328942239284515,-0.032204769551754,walking,2026-03-04_14-01-42
1772632907946950400,5.021950439453125,-0.360169821204245,1.3943600167125465,1.1132412281304598,0.3831414878368377,0.0463799536228179,-0.0262897685170173,walking,2026-03-04_14-01-42
1772632907956899300,5.0318994140625,-0.4766592981977388,1.4269360061466694,1.1064309635937213,0.3621498942375183,0.0569971799850463,-0.048669908195734,walking,2026-03-04_14-01-42
1772632907966848300,5.04184814453125,-0.6760906047068536,1.3313640468344092,1.279410864496231,0.2892338037490845,0.042417723685503,-0.1025263592600822,walking,2026-03-04_14-01-42
1772632907976797400,5.05179736328125,-0.8728548474311828,1.1497963503286242,1.539920580291748,0.1691287010908126,0.0164540354162454,-0.176799789071083,walking,2026-03-04_14-01-42
1772632907986746400,5.061746337890625,-1.0832134618744254,1.0168401245176792,1.722194963762164,0.0347652100026607,0.0067393770441412,-0.2516790330410003,walking,2026-03-04_14-01-42
1772632907996695300,5.0716953125,-1.1896356087639928,0.9627353171035646,1.6637684937566517,-0.1066334620118141,0.0422664768993854,-0.3433152139186859,walking,2026-03-04_14-01-42
1772632908006644200,5.081644287109375,-1.359091427193582,1.0412991507306697,1.55640351305902,-0.2412063926458358,0.0804393440485,-0.429539293050766,walking,2026-03-04_14-01-42
1772632908016593200,5.09159326171875,-1.2940803181007503,1.073316337238252,1.406229318204522,-0.3499413728713989,0.1187680959701538,-0.4689721763134002,walking,2026-03-04_14-01-42
1772632908026542300,5.101542236328125,-0.9186451962906866,1.1027309400320051,1.1440911244243384,-0.4179515838623047,0.135725513100624,-0.4630642235279083,walking,2026-03-04_14-01-42
1772632908036491500,5.111491455078125,-0.6084787385310977,1.2645195848345756,0.9059422935187816,-0.4465134739875793,0.1145882606506347,-0.4170530438423157,walking,2026-03-04_14-01-42
1772632908046440400,5.1214404296875,-0.2891056226175278,1.3841206545099616,0.6461299123376607,-0.4317971765995025,0.0675334259867668,-0.3378963470458984,walking,2026-03-04_14-01-42
1772632908056389400,5.131389404296875,-0.0327360753666609,1.3604407959759235,0.354323141002655,-0.3925275504589081,0.022712955251336,-0.2546640336513519,walking,2026-03-04_14-01-42
1772632908066338300,5.14133837890625,0.0444581504076719,1.2577306553468108,0.0931792189568281,-0.3506598770618438,-0.0223594065755605,-0.18057481944561,walking,2026-03-04_14-01-42
1772632908076287200,5.151287353515625,0.0166554397899657,1.0924579678207635,-0.042182606691122,-0.3269492089748382,-0.0564998015761375,-0.1194853708148002,walking,2026-03-04_14-01-42
1772632908086236200,5.161236083984375,-0.0789179077617824,0.8280132506638764,-0.0574321982711553,-0.3182624876499176,-0.0623646974563598,-0.0755042135715484,walking,2026-03-04_14-01-42
1772632908096186400,5.171186279296875,-0.1720746226258575,0.5517648445971309,-0.1064420206338167,-0.3185873925685882,-0.0458198077976703,-0.0459772124886512,walking,2026-03-04_14-01-42
1772632908106134500,5.181134521484375,-0.2245918685875833,0.3059036857485771,-0.1205202303469181,-0.3197739720344543,-0.014904461801052,-0.0250414982438087,walking,2026-03-04_14-01-42
1772632908116084200,5.191084228515625,-0.2065500159405171,0.0931540845155715,-0.0975929437458515,-0.3095458447933197,0.0147285312414169,-0.0012605348601937,walking,2026-03-04_14-01-42
1772632908126033400,5.201033447265625,-0.1370136114429682,-0.0824377524510026,-0.042054011875391,-0.2875131070613861,0.0230636540800333,0.0201602615416049,walking,2026-03-04_14-01-42
1772632908135982300,5.210982421875,-0.0608562544357031,-0.2060074334964156,0.0740782126456499,-0.2566798329353332,-0.0102868461981415,0.0412005633115768,walking,2026-03-04_14-01-42
1772632908145931300,5.22093115234375,0.0239832253947854,-0.3192098881758749,0.2283013906300068,-0.2266315370798111,-0.0891220271587371,0.0573843754827976,walking,2026-03-04_14-01-42
1772632908155880200,5.230880126953125,0.0618175737485289,-0.4193792582809925,0.3194055568784475,-0.1890868246555328,-0.1652205288410186,0.0636089742183685,walking,2026-03-04_14-01-42
1772632908165829400,5.240829345703125,0.0189322256155312,-0.4615294240072369,0.2535702719211578,-0.1581005454063415,-0.2079640924930572,0.0666481480002403,walking,2026-03-04_14-01-42
1772632908175778300,5.2507783203125,-0.0932728885896503,-0.4552747475266456,0.1879559362381696,-0.1497504711151123,-0.2149373143911361,0.0699997320771217,walking,2026-03-04_14-01-42
1772632908185727200,5.260727294921875,-0.217671421674639,-0.4434120219059288,0.164637019971013,-0.169739082455635,-0.2118447870016098,0.0662003234028816,walking,2026-03-04_14-01-42
1772632908195676400,5.270676513671875,-0.3933590106332674,-0.4791007365331053,0.1046802716583013,-0.198978453874588,-0.156295508146286,0.0535143613815307,walking,2026-03-04_14-01-42
1772632908205625300,5.280625244140625,-0.5494769528556614,-0.485347229707241,-0.0706254418432712,-0.2184633612632751,-0.0644875168800354,0.042311318218708,walking,2026-03-04_14-01-42
1772632908215574300,5.29057421875,-0.6372703871209174,-0.4337772014677524,-0.2051414643168449,-0.2315653264522552,0.0098508913069963,0.0403485670685768,walking,2026-03-04_14-01-42
1772632908225523200,5.300523193359375,-0.6432523110747337,-0.3568775016605854,-0.1932376760333776,-0.2237515598535537,0.0291046053171157,0.04651490598917,walking,2026-03-04_14-01-42
1772632908235472400,5.310472412109375,-0.538527908013761,-0.2791590328164398,-0.2034358294427394,-0.1737254112958908,0.0350431874394416,0.068471074104309,walking,2026-03-04_14-01-42
1772632908245421300,5.32042138671875,-0.3940168900201097,-0.1891131434492766,-0.2606985163658857,-0.1079494953155517,0.0253482554107904,0.1035354882478714,walking,2026-03-04_14-01-42
1772632908255992300,5.330992431640625,-0.3211910885883495,-0.1219780279397964,-0.2151385421961545,-0.058507639914751,0.0011979127302765,0.1400652676820755,walking,2026-03-04_14-01-42
1772632908265941500,5.34094140625,-0.2284807292522862,-0.1064366138063371,0.0435386974751949,-0.0366683453321456,-0.0165617875754833,0.1702607125043869,walking,2026-03-04_14-01-42
1772632908275890400,5.350890380859375,-0.1656182130280882,-0.1724960629083216,0.3720382459133863,-0.0382651761174202,-0.0168771054595708,0.1911012679338455,walking,2026-03-04_14-01-42
1772632908285839400,5.36083935546875,-0.1805680179439485,-0.2449707858800888,0.6001356384038925,-0.0800815150141716,-0.0130301900207996,0.2065601795911789,walking,2026-03-04_14-01-42
1772632908295788300,5.370788330078125,-0.2058261951779946,-0.3176932000026106,0.8761860376805066,-0.1474477797746658,0.0009021374862641,0.2176517099142074,walking,2026-03-04_14-01-42
1772632908305737200,5.3807373046875,-0.2214602194983512,-0.4007039300359785,1.031340943557024,-0.208900436758995,0.0267858523875474,0.2247238606214523,walking,2026-03-04_14-01-42
1772632908315686100,5.39068603515625,-0.1725482314869761,-0.4535498234301805,1.0233172115772962,-0.253377616405487,0.0302703324705362,0.2306254208087921,walking,2026-03-04_14-01-42
1772632908325635300,5.40063525390625,-0.1180781709570437,-0.4448261264875531,0.936384193533659,-0.2671208679676056,0.0272444486618042,0.2390870898962021,walking,2026-03-04_14-01-42
1772632908335584500,5.41058447265625,-0.0513659935673698,-0.4350241327889263,0.7206710663199424,-0.2382330149412155,0.0391194820404052,0.2579957842826843,walking,2026-03-04_14-01-42
1772632908345533400,5.420533447265625,0.0419308604197576,-0.3858462603829801,0.4128793748676777,-0.173030823469162,0.0580093450844287,0.2834733724594116,walking,2026-03-04_14-01-42
1772632908355482400,5.430482421875,0.1294545378329232,-0.3574257831931114,0.1798690758943557,-0.1065460667014122,0.0595824755728244,0.3062580525875091,walking,2026-03-04_14-01-42
1772632908365431300,5.440431396484375,0.1643449782218784,-0.3668707801476121,0.0946142201960086,-0.0556432493031024,0.048358991742134,0.3261715173721313,walking,2026-03-04_14-01-42
1772632908375380200,5.450380126953125,0.1962097141141071,-0.4325244249276816,0.1887286741763353,-0.0346479527652263,0.0315499156713485,0.3395067453384399,walking,2026-03-04_14-01-42
1772632908385329200,5.4603291015625,0.1741127043247222,-0.4978285256177187,0.2738473362743854,-0.0575965493917465,0.0097102355211973,0.3388698399066925,walking,2026-03-04_14-01-42
1772632908395278300,5.4702783203125,0.0430620564067736,-0.5836036057978868,0.3467266945242881,-0.1034777536988258,0.0080867726355791,0.319671630859375,walking,2026-03-04_14-01-42
1772632908405227500,5.4802275390625,-0.0788836401659995,-0.6712395114138722,0.2880155623584985,-0.1501684337854385,0.0340710692107677,0.298386812210083,walking,2026-03-04_14-01-42
1772632908415176400,5.490176513671875,-0.1169802196525037,-0.6704214730292558,0.0304103358328342,-0.1839168071746826,0.0656287297606468,0.2855540812015533,walking,2026-03-04_14-01-42
1772632908425125400,5.50012548828125,-0.1592052772458642,-0.5935666352771223,-0.2371814471781253,-0.2027530670166015,0.0898313373327255,0.2785542011260986,walking,2026-03-04_14-01-42
1772632908435074300,5.51007421875,-0.2061683596791699,-0.495516303152591,-0.5064104760020971,-0.2011072337627411,0.1039812415838241,0.2806812524795532,walking,2026-03-04_14-01-42
1772632908445023200,5.520023193359375,-0.2567980017960071,-0.4140361436873674,-0.8164695278644561,-0.1633747816085815,0.1094675585627555,0.2916450202465057,walking,2026-03-04_14-01-42
1772632908454972200,5.52997216796875,-0.2795843090238049,-0.3177555977143347,-1.1728168681710958,-0.09282898157835,0.1244121491909027,0.3146547079086303,walking,2026-03-04_14-01-42
1772632908464921300,5.53992138671875,-0.2895492381991818,-0.2242458316288888,-1.472276784607768,-0.0013744602911174,0.1535726338624954,0.3599027097225189,walking,2026-03-04_14-01-42
1772632908474870300,5.549870361328125,-0.2730478199271485,-0.1987375886239111,-1.6534055051743983,0.0836789086461067,0.2265578955411911,0.4180560111999511,walking,2026-03-04_14-01-42
1772632908484819500,5.5598193359375,-0.3273258650163188,-0.2857353424668312,-1.631608099386096,0.1632941216230392,0.2492999583482742,0.4730486869812011,walking,2026-03-04_14-01-42
1772632908494768400,5.569768310546875,-0.4370114706812426,-0.4384524998024106,-1.488972483342886,0.2291791290044784,0.2696371972560882,0.5039730668067932,walking,2026-03-04_14-01-42
1772632908504717300,5.57971728515625,-0.5938884145773947,-0.6549528318710625,-1.2337170348137616,0.2553242743015289,0.2457960844039917,0.506672203540802,walking,2026-03-04_14-01-42
1772632908514666200,5.589666259765625,-0.7682672224923968,-0.910889394532144,-0.8849982896894216,0.248905524611473,0.1990754455327987,0.4898868799209595,walking,2026-03-04_14-01-42
1772632908524615200,5.599615234375,-0.8924426143459975,-1.1552150143764912,-0.615450111913681,0.2210193872451782,0.1433463841676712,0.454000174999237,walking,2026-03-04_14-01-42
1772632908534564400,5.609564453125,-1.0165840308647602,-1.343920307677239,-0.4821335283577442,0.1842725574970245,0.0738490670919418,0.4038411378860473,walking,2026-03-04_14-01-42
1772632908544513300,5.61951318359375,-1.072250607702881,-1.4142553882718083,-0.4929810855865478,0.163372591137886,0.0051941098645329,0.3501165807247162,walking,2026-03-04_14-01-42
1772632908554462500,5.62946240234375,-1.0649158809006214,-1.4123201824255287,-0.6929384252637625,0.1533671021461486,-0.0491229258477687,0.2966610789299011,walking,2026-03-04_14-01-42
1772632908564411400,5.639411376953125,-1.1043391058810057,-1.314527916715294,-0.9194546860426664,0.1403047740459442,-0.0930423662066459,0.236250564455986,walking,2026-03-04_14-01-42
1772632908574360300,5.6493603515625,-1.181659661448747,-1.149217527527362,-1.13351361630857,0.1223459988832473,-0.1147535219788551,0.1668840050697326,walking,2026-03-04_14-01-42
1772632908584309200,5.659309326171875,-1.2642973203860222,-0.9491068969845772,-1.2851076148331164,0.0945262387394905,-0.1261980235576629,0.0838070884346962,walking,2026-03-04_14-01-42
1772632908594879500,5.66987939453125,-1.3054922312140465,-0.6491727871648967,-1.4942361029595137,0.0773049145936966,-0.1036546304821968,0.0065328124910593,walking,2026-03-04_14-01-42
1772632908604828400,5.679828369140625,-1.280644936335832,-0.2624145265035331,-1.708884231290221,0.0783674493432045,-0.0499420538544654,-0.0372298657894134,walking,2026-03-04_14-01-42
1772632908614777300,5.68977734375,-1.198645063845441,0.1136256485275924,-1.8468810816168784,0.0954748019576072,0.0158393569290637,-0.0507472716271877,walking,2026-03-04_14-01-42
1772632908624726300,5.699726318359375,-1.0248338997505604,0.5037826117165386,-1.890340284115076,0.132402628660202,0.0778995528817176,-0.0390447564423084,walking,2026-03-04_14-01-42
1772632908634675200,5.70967529296875,-0.7657095008336007,0.7845455725982785,-1.8596400254249568,0.1911953687667846,0.1454509049654007,-0.0006443717284128,walking,2026-03-04_14-01-42
1772632908644624100,5.7196240234375,-0.556883356654644,0.9658610479086636,-1.7198334953278305,0.2578276991844177,0.2097705751657486,0.050410583615303,walking,2026-03-04_14-01-42
1772632908654573600,5.729573486328125,-0.4381212950866669,1.0742195696882904,-1.4105734848886728,0.3159154951572418,0.2409726977348327,0.1066778525710105,walking,2026-03-04_14-01-42
1772632908664522500,5.7395224609375,-0.3641814679984003,1.0609634900130331,-0.9301315628796816,0.354576975107193,0.2278932034969329,0.1573714315891266,walking,2026-03-04_14-01-42
1772632908674471400,5.749471435546875,-0.3108816933568566,0.8803957643300294,-0.4287994130551815,0.3768884241580963,0.1866488307714462,0.1950152069330215,walking,2026-03-04_14-01-42
1772632908684420400,5.75942041015625,-0.3612531594615429,0.6341741016060114,0.0373591320574283,0.3868178129196167,0.1292186826467514,0.2041175067424774,walking,2026-03-04_14-01-42
1772632908694370300,5.769370361328125,-0.4764570901565253,0.387393343694508,0.3543383385717868,0.3932866156101227,0.0884345099329948,0.1807474792003631,walking,2026-03-04_14-01-42
1772632908704319200,5.7793193359375,-0.6472197534009814,0.2141819721236824,0.5349199466496706,0.3927526175975799,0.0758994221687316,0.1339482963085174,walking,2026-03-04_14-01-42
1772632908714268200,5.78926806640625,-0.7644925993245094,0.1116905888117849,0.670807257476449,0.3870078921318054,0.0928610935807228,0.0828384980559349,walking,2026-03-04_14-01-42
1772632908724217300,5.79921728515625,-0.7735727815546095,0.0877038562856614,0.8239139986515045,0.3796850442886352,0.1237538158893585,0.0296949855983257,walking,2026-03-04_14-01-42
1772632908734166300,5.809166259765625,-0.6982246220383793,0.1267592708669603,0.9938982248693704,0.3681479692459106,0.1670799851417541,-0.029756624251604,walking,2026-03-04_14-01-42
1772632908744115500,5.819115478515625,-0.5561497816830873,0.2493582071840763,1.1763228304654358,0.359927237033844,0.1837071776390075,-0.0813783183693885,walking,2026-03-04_14-01-42
1772632908754064400,5.829064453125,-0.2838943177100271,0.4135287786871194,1.4253858540952205,0.3455006182193756,0.1425629407167434,-0.1220154911279678,walking,2026-03-04_14-01-42
1772632908764013300,5.839013427734375,0.098710476533696,0.592221504278481,1.6585539739787578,0.3291355073451996,0.0540210977196693,-0.1357233077287674,walking,2026-03-04_14-01-42
1772632908773962200,5.848962158203125,0.4432464560806751,0.8135179845824837,1.7877987780511375,0.2938677966594696,-0.0538241416215896,-0.1383159011602401,walking,2026-03-04_14-01-42
1772632908783911200,5.8589111328125,0.5978858136504889,1.001491164216399,1.8537661649554968,0.2337678074836731,-0.1624719500541687,-0.1457242518663406,walking,2026-03-04_14-01-42
1772632908793860400,5.8688603515625,0.6537638412822038,1.129483045618236,1.8409166202545164,0.1572314798831939,-0.2431193888187408,-0.1574101895093917,walking,2026-03-04_14-01-42
1772632908803809300,5.878809326171875,0.6338269686687737,1.2275745865359902,1.6883704355716704,0.0740107744932174,-0.2800125181674957,-0.1614613384008407,walking,2026-03-04_14-01-42
1772632908813758500,5.888758544921875,0.5682075184192508,1.365637195575237,1.4235264899641276,-0.0053487615659832,-0.2760574519634247,-0.1533970236778259,walking,2026-03-04_14-01-42
1772632908823707400,5.898707275390625,0.5613477156523615,1.511604294128716,1.137221238654852,-0.0727320536971092,-0.2446050196886062,-0.1299397200345993,walking,2026-03-04_14-01-42
1772632908833656300,5.90865625,0.5946956393070518,1.582917133714259,0.8513339204967021,-0.1260440200567245,-0.2108888626098632,-0.0956222340464592,walking,2026-03-04_14-01-42
1772632908843605200,5.918605224609375,0.6013072394665331,1.593589918898046,0.6180214237064123,-0.1660012900829315,-0.1861715316772461,-0.0675810128450393,walking,2026-03-04_14-01-42
1772632908853554200,5.92855419921875,0.5001646038824692,1.5165931884571908,0.4183516687989235,-0.1975786536931991,-0.1792861968278885,-0.069082498550415,walking,2026-03-04_14-01-42
1772632908863504000,5.93850390625,0.2890584590075537,1.3794248979091643,0.3051315323323011,-0.2441775947809219,-0.2130279839038849,-0.1052223294973373,walking,2026-03-04_14-01-42
1772632908873452800,5.948452880859375,0.0038105347314849,1.226584698715806,0.2590975109100342,-0.3048745393753052,-0.2481122016906738,-0.1750152707099914,walking,2026-03-04_14-01-42
1772632908883402000,5.958402099609375,-0.2751427463797852,1.0895283441096544,0.1084264724493026,-0.369293212890625,-0.2538754045963287,-0.2603392004966736,walking,2026-03-04_14-01-42
1772632908893351000,5.968350830078125,-0.4188438362300395,1.0256643592253327,-0.1753729335188865,-0.4127192497253418,-0.204202115535736,-0.3324301540851593,walking,2026-03-04_14-01-42
1772632908903300000,5.978300048828125,-0.3907001666875556,1.0600932830497622,-0.5358358924508094,-0.4265033006668091,-0.1022458374500274,-0.3731777369976043,walking,2026-03-04_14-01-42
1772632908913249000,5.9882490234375,-0.1991474845990538,1.1491348176799714,-0.8610819920510053,-0.4002514481544494,0.0467803925275802,-0.3568906486034393,walking,2026-03-04_14-01-42
1772632908923198000,5.998197998046875,0.1307135979833081,1.2436867862947285,-1.030637763723731,-0.3435072600841522,0.2115377336740493,-0.2857872247695923,walking,2026-03-04_14-01-42
1772632908933147000,6.00814697265625,0.4821290348457172,1.3029681195639071,-0.9582155015915632,-0.2707238793373108,0.3364397287368774,-0.1832648515701294,walking,2026-03-04_14-01-42
1772632908943095800,6.018095703125,0.7843460314381867,1.1990751988910138,-0.6229290694922208,-0.1971337497234344,0.3983712494373321,-0.0750717669725418,walking,2026-03-04_14-01-42
1772632908953045000,6.028044921875,0.9431667663458734,0.9922780763216316,-0.1017202528089284,-0.1408747285604477,0.388785719871521,0.0201636757701635,walking,2026-03-04_14-01-42
1772632908962994000,6.037993896484375,0.9944410265091806,0.694104838694632,0.5577835203647613,-0.1189787089824676,0.3071703612804413,0.0947716608643531,walking,2026-03-04_14-01-42
1772632908972942800,6.04794287109375,0.9067109398037194,0.3112378863833844,1.2152011349141596,-0.1352245211601257,0.1786728352308273,0.1290966123342514,walking,2026-03-04_14-01-42
1772632908982892000,6.05789208984375,0.77405888457112,-0.0577018089927732,1.652604125663638,-0.1726375520229339,0.0619135573506355,0.1276963651180267,walking,2026-03-04_14-01-42
1772632908992841000,6.067841064453125,0.6116986504256725,-0.3651562313146889,1.8669149848639963,-0.2319485396146774,-0.0404756627976894,0.0951559841632843,walking,2026-03-04_14-01-42
1772632909002790000,6.077789794921875,0.404936087713018,-0.5923628124453127,1.9416706583797927,-0.3097079992294311,-0.1646652817726135,0.0368430279195308,walking,2026-03-04_14-01-42
1772632909012738800,6.08773876953125,0.2809587026495486,-0.7109975213065743,1.873027330264449,-0.3631089031696319,-0.2590349316596985,-0.0186537895351648,walking,2026-03-04_14-01-42
1772632909022688000,6.09768798828125,0.3263827024146914,-0.6890386413462459,1.4228233101308343,-0.3719034790992737,-0.2949607670307159,-0.0424334518611431,walking,2026-03-04_14-01-42
1772632909032637000,6.107636962890625,0.4130284279495477,-0.47766062072739,0.8348603400796651,-0.3604188561439514,-0.3094265162944793,-0.0340695269405841,walking,2026-03-04_14-01-42
1772632909042585900,6.1175859375,0.4313787620238959,-0.2676318227604031,0.3451525770753622,-0.3301673829555511,-0.2874053418636322,-0.0120299290865659,walking,2026-03-04_14-01-42
1772632909052535000,6.12753515625,0.3990919282620772,-0.1983804457493126,-0.1073994674891233,-0.2789643704891205,-0.2233355343341827,0.0046079033054411,walking,2026-03-04_14-01-42
1772632909062484000,6.13748388671875,0.2567500710010528,-0.1734653463318944,-0.4916349316745996,-0.228356584906578,-0.150734081864357,0.0088990945369005,walking,2026-03-04_14-01-42
1772632909072433000,6.147432861328125,0.1042920760583132,-0.1950054163582623,-0.7095178041428327,-0.1862426996231079,-0.0884100049734115,-0.0137329809367656,walking,2026-03-04_14-01-42
1772632909082382000,6.157382080078125,-0.0560560876123607,-0.3092975659705698,-0.7699515223175287,-0.1622883081436157,-0.0390023216605186,-0.0570514090359211,walking,2026-03-04_14-01-42
1772632909092331000,6.1673310546875,-0.1802494169814512,-0.4148492136359215,-0.6919920843243599,-0.1520931869745254,0.0168518908321857,-0.1075033918023109,walking,2026-03-04_14-01-42
1772632909102280000,6.177280029296875,-0.2573785416303202,-0.5355817715592682,-0.6034603989124298,-0.1480722725391388,0.0772281289100647,-0.1604110449552536,walking,2026-03-04_14-01-42
1772632909112228900,6.187228759765625,-0.2906801419252529,-0.5703191768109798,-0.4965519298106431,-0.1342312842607498,0.1250385344028473,-0.2066986411809921,walking,2026-03-04_14-01-42
1772632909122177800,6.197177734375,-0.2016962922990322,-0.5903020805232226,-0.3964157313227653,-0.0969985798001289,0.1682321727275848,-0.2370495945215225,walking,2026-03-04_14-01-42
1772632909132127000,6.207126953125,-0.0713699035350233,-0.577023642885685,-0.3071931410372257,-0.050280075520277,0.18077352643013,-0.2529566586017608,walking,2026-03-04_14-01-42
1772632909142076000,6.217075927734375,0.0720329705536365,-0.542915183187276,-0.1163829844117164,-0.012650916352868,0.1451301127672195,-0.2607200145721435,walking,2026-03-04_14-01-42
1772632909152025000,6.227025146484375,0.1846455695811659,-0.5310433974772691,0.166524441152811,0.0170529168099164,0.0924136340618133,-0.2591109275817871,walking,2026-03-04_14-01-42
1772632909161974000,6.23697412109375,0.3116528238598257,-0.5526502491295338,0.3776829738020896,0.0310443248599767,0.0320628210902214,-0.2494243532419204,walking,2026-03-04_14-01-42
1772632909171923000,6.2469228515625,0.3675746175680309,-0.5769185750760137,0.535702621459961,0.0157250221818685,-0.0364619120955467,-0.242300659418106,walking,2026-03-04_14-01-42
1772632909181871900,6.256871826171875,0.3322869580224156,-0.5949084052748977,0.6450257504880428,-0.0139045994728803,-0.0772066563367843,-0.2335934191942215,walking,2026-03-04_14-01-42
1772632909191820800,6.26682080078125,0.2645578952077776,-0.6390183267667889,0.5829799209415912,-0.0436276048421859,-0.0893514677882194,-0.229837566614151,walking,2026-03-04_14-01-42
1772632909201769700,6.276769775390625,0.1577782401174307,-0.6763432642936706,0.414650476193428,-0.0637558698654174,-0.099721536040306,-0.236341044306755,walking,2026-03-04_14-01-42
1772632909211719000,6.286718994140625,0.0732629507400095,-0.6744131730139256,0.1788730505943298,-0.0580838657915592,-0.1087355315685272,-0.2414971888065338,walking,2026-03-04_14-01-42
1772632909221668000,6.296668212890625,0.1352753164082765,-0.7203275135792792,-0.1104500872313976,-0.0280022770166397,-0.1180810555815696,-0.233089879155159,walking,2026-03-04_14-01-42
1772632909231617000,6.306616943359375,0.28539252037853,-0.7155902559243142,-0.3566583059519529,0.0267163626849651,-0.1382377296686172,-0.2052944600582122,walking,2026-03-04_14-01-42
1772632909241566000,6.31656591796875,0.4475596431046724,-0.6753080760270357,-0.5578448951631784,0.0858343988656997,-0.1746299862861633,-0.1750058829784393,walking,2026-03-04_14-01-42
1772632909251515000,6.326514892578125,0.5152516253119335,-0.6795673409067093,-0.6004243922173976,0.1343622654676437,-0.2182919681072235,-0.1451776772737503,walking,2026-03-04_14-01-42
1772632909261463800,6.3364638671875,0.5625757230773568,-0.7312639181353151,-0.6517623652666806,0.1719926595687866,-0.2316393852233886,-0.1260852813720703,walking,2026-03-04_14-01-42
1772632909271412700,6.346412841796875,0.5449469082105904,-0.7846559011049569,-0.7206359950065613,0.1972284913063049,-0.1894836723804474,-0.1129937171936035,walking,2026-03-04_14-01-42
1772632909281362200,6.356362060546875,0.5078099675364792,-0.852664730709046,-0.7697744121849537,0.2134718894958496,-0.1278803646564483,-0.1092711389064788,walking,2026-03-04_14-01-42
1772632909291311000,6.36631103515625,0.5808873325765133,-0.9595704233318568,-0.7450929753929376,0.2213681638240814,-0.0889779701828956,-0.105307288467884,walking,2026-03-04_14-01-42
1772632909301260000,6.376260009765625,0.731159580978006,-1.0367344731636343,-0.635189416128397,0.2340161353349685,-0.087854079902172,-0.0981352254748344,walking,2026-03-04_14-01-42
1772632909311209000,6.386208984375,0.9365512206636368,-1.0532735200323164,-0.5222264692932367,0.2503362596035003,-0.1199739277362823,-0.0807154849171638,walking,2026-03-04_14-01-42
1772632909321158000,6.396157958984375,1.1059586699068549,-1.041749524846673,-0.4826502457082271,0.265235960483551,-0.1562551409006118,-0.0630199089646339,walking,2026-03-04_14-01-42
1772632909331106800,6.40610693359375,1.1502528619244694,-1.0404220756351947,-0.521992660537362,0.2781413793563843,-0.1878626048564911,-0.0542184300720691,walking,2026-03-04_14-01-42
1772632909341055700,6.4160556640625,1.06171094737947,-1.0189647154562174,-0.5988531973779201,0.2800798714160919,-0.2053204774856567,-0.0536980777978897,walking,2026-03-04_14-01-42
1772632909351005000,6.4260048828125,0.890257671522349,-0.9691836164601146,-0.7086936282783747,0.2715633511543274,-0.1887766420841217,-0.0676879286766052,walking,2026-03-04_14-01-42
1772632909360954000,6.4359541015625,0.6558896012645214,-0.9130427731737494,-0.8616706055939197,0.2486306428909301,-0.1575488448143005,-0.0866230502724647,walking,2026-03-04_14-01-42
1772632909370903000,6.445903076171875,0.5168298344140873,-0.8249811894915997,-0.9708756612002848,0.2153802812099456,-0.1274519264698028,-0.1033522263169288,walking,2026-03-04_14-01-42
1772632909380852000,6.45585205078125,0.4375833888176828,-0.6936188087433576,-0.9940689052611588,0.1715918630361557,-0.1264479309320449,-0.1160989329218864,walking,2026-03-04_14-01-42
1772632909390801000,6.46580078125,0.356836475530453,-0.5349205311715602,-0.9859721080452204,0.1175432801246643,-0.1509602069854736,-0.1270698308944702,walking,2026-03-04_14-01-42
1772632909400749800,6.475749755859375,0.2610071073910221,-0.3358472808524966,-1.0009715242564678,0.0607750341296196,-0.1698453277349472,-0.1346947103738784,walking,2026-03-04_14-01-42
1772632909410699000,6.485698974609375,0.0862018542248755,-0.0709558428414166,-1.1146920114606618,0.0157385878264904,-0.1490779966115951,-0.1409613937139511,walking,2026-03-04_14-01-42
1772632909420648000,6.49564794921875,-0.0746630998615175,0.2071665404036641,-1.3644108686506748,-0.0136435106396675,-0.0846914276480674,-0.1413107067346573,walking,2026-03-04_14-01-42
1772632909430596900,6.505596923828125,-0.2393877250507473,0.5080591199919581,-1.5438339543431996,-0.0221768114715814,-0.0706845372915268,-0.1214789524674415,walking,2026-03-04_14-01-42
1772632909440546000,6.515546142578125,-0.2867362266050651,0.8890556022562086,-1.5674690969526768,0.0040075457654893,-0.0367509052157402,-0.095877319574356,walking,2026-03-04_14-01-42
1772632909450496000,6.52549609375,-0.3060295406179502,1.1494606886334715,-1.625399307873845,0.058021243661642,0.0188708119094371,-0.0706284269690513,walking,2026-03-04_14-01-42
1772632909460444000,6.53544384765625,-0.3548906386923044,1.346668583472073,-1.5761545077115295,0.1257430464029312,0.0989832878112793,-0.0493146553635597,walking,2026-03-04_14-01-42
1772632909470393900,6.545393798828125,-0.3313949045535176,1.4671584186807274,-1.3785703269064429,0.2022748440504074,0.1649793535470962,-0.0174139775335788,walking,2026-03-04_14-01-42
1772632909480342800,6.5553427734375,-0.1573478858761489,1.5415899748086928,-1.0044862543791533,0.2735284566879272,0.1819608807563781,0.0244811195880174,walking,2026-03-04_14-01-42
1772632909490291700,6.565291748046875,-0.0179159977776929,1.5859582549758255,-0.5102776728242635,0.3331784605979919,0.1520210802555084,0.0738361477851867,walking,2026-03-04_14-01-42
1772632909500241200,6.5752412109375,0.0989247038062661,1.5991140891470017,0.009666238489747,0.3763313293457031,0.085710622370243,0.1064616963267326,walking,2026-03-04_14-01-42
1772632909510190000,6.585190185546875,0.0943080037910491,1.538751974903792,0.4129413341879844,0.3968677818775177,0.0150686781853437,0.1237453445792198,walking,2026-03-04_14-01-42
1772632909520139000,6.595138916015625,-0.0229803684951737,1.450791075117141,0.706924865040183,0.392485111951828,-0.0456134714186191,0.119310513138771,walking,2026-03-04_14-01-42
1772632909530088000,6.605087890625,-0.2455386488959193,1.387444099844247,0.9044815733164548,0.3708594441413879,-0.075864054262638,0.0953141003847122,walking,2026-03-04_14-01-42
1772632909540036900,6.615036865234375,-0.4514451793011277,1.2945163714304566,0.9804273333996534,0.3429782688617706,-0.0630778074264526,0.0688494816422462,walking,2026-03-04_14-01-42
1772632909549985800,6.62498583984375,-0.6327427536286413,1.2530652938842772,0.991739001008868,0.3020342886447906,-0.0240023098886013,0.0296301767230033,walking,2026-03-04_14-01-42
1772632909559935000,6.63493505859375,-0.8102167510800063,1.2066954646363854,1.0301946961313486,0.2554015815258026,0.0188758336007595,-0.0138312624767422,walking,2026-03-04_14-01-42
