time,seconds_elapsed,acc_x,acc_y,acc_z,gyr_x,gyr_y,gyr_z,activity,session
1772633096834216000,0.0652158203125,-1.3608612133450806,1.1451505703493952,-0.6208318049520254,-0.2547813057899475,-0.1109281554818153,-0.2363936752080917,walking,2026-03-04_14-04-56
1772633096844165000,0.0751650390625,-1.0078245319563894,1.7196785970270632,-0.8820610671937466,-0.0860818326473236,-0.1670075803995132,-0.2198032587766647,walking,2026-03-04_14-04-56
1772633096854114000,0.085114013671875,-0.6941874024115502,1.9188065001428125,-0.8738725000411272,0.0793097913265228,-0.1995026767253875,-0.15518219769001,walking,2026-03-04_14-04-56
1772633096864063000,0.09506298828125,-0.4449865046810358,1.9422208396084608,-0.6950099708408117,0.1683561354875564,-0.2112698704004287,-0.0769782587885856,walking,2026-03-04_14-04-56
1772633096874012000,0.105011962890625,-0.3621379064068198,1.89216530758515,-0.2362263384103775,0.1905189603567123,-0.2326185703277588,0.0410277359187603,walking,2026-03-04_14-04-56
1772633096883961900,0.1149619140625,-0.2021095127424225,1.78343488375321,0.058920975524187,0.2122361361980438,-0.1777913272380828,0.2137771546840667,walking,2026-03-04_14-04-56
1772633096893910800,0.124910888671875,-0.2645314821248874,1.5722389417029916,0.1392050570726394,0.1854575127363205,-0.0521598905324935,0.3115633726119995,walking,2026-03-04_14-04-56
1772633096903860000,0.13485986328125,-0.4359270729780197,1.223431641512364,0.3757493753910064,0.1176029965281486,0.0322289876639843,0.361826628446579,walking,2026-03-04_14-04-56
1772633096913809200,0.14480908203125,-0.5233008570590988,0.7314449737906455,0.685637746861577,0.0089116673916578,0.0697017908096313,0.379682332277298,walking,2026-03-04_14-04-56
1772633096923758000,0.154758056640625,-0.636851577186957,0.3392794472582638,0.99250004850924,-0.1232910081744194,0.0749956667423248,0.3727453947067261,walking,2026-03-04_14-04-56
1772633096933707000,0.16470703125,-0.8048783126614988,0.0780697664998471,1.161473051857948,-0.2472502291202545,0.0418901741504669,0.34416463971138,walking,2026-03-04_14-04-56
1772633096943656000,0.174656005859375,-0.864388193989545,-0.051339726614952,1.0447826089322567,-0.3395081758499145,-0.0781389847397804,0.2830954194068908,walking,2026-03-04_14-04-56
1772633096953604900,0.18460498046875,-0.8498767074257135,-0.1087646183624863,0.662894000133872,-0.3620086908340454,-0.1861514747142791,0.2168330550193786,walking,2026-03-04_14-04-56
1772633096963553800,0.1945537109375,-0.680299162312597,-0.1811110387794673,0.1357937873244285,-0.326185792684555,-0.2187180370092392,0.1893358826637268,walking,2026-03-04_14-04-56
1772633096973503000,0.2045029296875,-0.5964061695519834,-0.1096452005892991,-0.289516030049324,-0.2405319064855575,-0.1860056221485138,0.1865044087171554,walking,2026-03-04_14-04-56
1772633096983452200,0.2144521484375,-0.4929809394560754,-0.1097413544401526,-0.6146902334570884,-0.1185031682252883,-0.0960010513663292,0.1971964538097381,walking,2026-03-04_14-04-56
1772633096993401000,0.224401123046875,-0.3124899322710931,-0.21472733104676,-0.7190577859044075,0.0045468593016266,0.0147422403097152,0.2227718532085418,walking,2026-03-04_14-04-56
1772633097003350000,0.23435009765625,-0.1279310911253094,-0.3279593040816486,-0.5227905329167842,0.0902090221643447,0.0972173511981964,0.2557703256607055,walking,2026-03-04_14-04-56
1772633097013299000,0.244298828125,-0.0212914472938515,-0.4386994603008031,-0.0475958639115095,0.1209757253527641,0.1051354557275772,0.2876307666301727,walking,2026-03-04_14-04-56
1772633097023248000,0.254247802734375,0.0152964263964444,-0.589560176114738,0.4142857345342636,0.1098472252488136,0.0846061334013938,0.3143163323402405,walking,2026-03-04_14-04-56
1772633097033196800,0.26419677734375,-0.0536151424673385,-0.7482287892006337,0.7388187174290418,0.0790134146809578,0.0618030801415443,0.3195717930793762,walking,2026-03-04_14-04-56
1772633097043146000,0.27414599609375,-0.252103998760879,-0.8312151154451072,0.912177973037958,0.0417572706937789,0.038129337131977,0.3007349669933319,walking,2026-03-04_14-04-56
1772633097053095200,0.28409521484375,-0.4089171932384371,-0.8480981534458696,0.9379735085517168,0.003776867641136,0.0390569195151329,0.2743318378925323,walking,2026-03-04_14-04-56
1772633097063044000,0.294044189453125,-0.5364713773427531,-0.8321670093424618,0.9163871151655912,-0.0317795984447002,0.0483264029026031,0.2095143049955368,walking,2026-03-04_14-04-56
1772633097072993000,0.303992919921875,-0.6734052380803972,-0.7447387551277875,0.9784925659447908,-0.0596375949680805,0.0389062687754631,0.1378909796476364,walking,2026-03-04_14-04-56
1772633097082942000,0.31394189453125,-0.5365436023287474,-0.6806165576986968,0.8186638230383396,-0.0581506267189979,0.0405186489224433,0.1117698401212692,walking,2026-03-04_14-04-56
1772633097092891100,0.32389111328125,-0.3444631335064768,-0.4929933605462312,0.6057628306359052,-0.0237135551869869,0.0814008340239524,0.1197018027305603,walking,2026-03-04_14-04-56
1772633097102840000,0.333840087890625,-0.2450128714561462,-0.2214417339935898,0.5741361047506333,0.01316281221807,0.1157314181327819,0.1540268212556839,walking,2026-03-04_14-04-56
1772633097112789200,0.343789306640625,-0.1257348049237392,-0.1188818154901266,0.6785235309422015,0.0314480774104595,0.1164145171642303,0.2051195651292801,walking,2026-03-04_14-04-56
1772633097122738200,0.35373828125,-0.0381653886727057,-0.1687256044588983,0.833624076282978,0.0186615139245986,0.0953092128038406,0.25358846783638,walking,2026-03-04_14-04-56
1772633097132687000,0.36368701171875,-0.0722586325356736,-0.2537856682375073,0.972746131247282,-0.014722540974617,0.0718800500035286,0.291655421257019,walking,2026-03-04_14-04-56
1772633097142636000,0.373635986328125,-0.1464825007297098,-0.3541730650074779,1.0423971751004455,-0.061707530170679,0.0521318912506103,0.3197860419750213,walking,2026-03-04_14-04-56
1772633097152585000,0.3835849609375,-0.1691864086373709,-0.4654375373616814,1.031215855872631,-0.1021793261170387,0.0406651198863983,0.3477473855018616,walking,2026-03-04_14-04-56
1772633097162534000,0.393533935546875,-0.1853479639631696,-0.5632695505604147,0.8793944783329963,-0.1241417378187179,0.0395007468760013,0.3670787513256073,walking,2026-03-04_14-04-56
1772633097172483300,0.4034833984375,-0.2920237202876247,-0.6967961236052215,0.6735211926102638,-0.1212620586156845,0.0678466334939003,0.3684228360652923,walking,2026-03-04_14-04-56
1772633097182432300,0.413432373046875,-0.3898191826019436,-0.8175454865328967,0.5047463421821594,-0.102624699473381,0.1072846427559852,0.3558416068553924,walking,2026-03-04_14-04-56
1772633097192381200,0.423381103515625,-0.4622833476470783,-0.9073927845880388,0.3664876260489225,-0.0710595846176147,0.1477202326059341,0.3431681394577026,walking,2026-03-04_14-04-56
1772633097202330000,0.433330078125,-0.4964860980328172,-0.9840389480255544,0.211931855109334,-0.0209073685109615,0.2005847543478012,0.3043196499347687,walking,2026-03-04_14-04-56
1772633097212279000,0.443279052734375,-0.4502921002758666,-1.0669679911248384,0.0735731857329606,0.0472098998725414,0.2592858672142029,0.2756323516368866,walking,2026-03-04_14-04-56
1772633097222228000,0.45322802734375,-0.3519625858837738,-1.0531225672543048,0.0793336489558219,0.1014882773160934,0.2802251279354095,0.2666237950325012,walking,2026-03-04_14-04-56
1772633097232177000,0.463177001953125,-0.2851770144643262,-1.0125001956172286,0.244117968443036,0.1274319887161255,0.2550910115242004,0.2696733772754669,walking,2026-03-04_14-04-56
1772633097242126000,0.4731259765625,-0.2321832735646516,-1.002432098328322,0.3783271169245243,0.1328570395708084,0.1923301815986633,0.2751863300800323,walking,2026-03-04_14-04-56
1772633097252075300,0.4830751953125,-0.2394255728431046,-1.0310909143187106,0.354862070184946,0.1386153250932693,0.1125751659274101,0.2699481546878814,walking,2026-03-04_14-04-56
1772633097262024200,0.493024169921875,-0.439591842563264,-0.9098625357024372,0.1097135896503925,0.1592261046171188,0.0660746917128562,0.2517620921134949,walking,2026-03-04_14-04-56
1772633097271974100,0.50297412109375,-0.4083874337432905,-0.9359969477817416,-0.0951893897354602,0.157121405005455,0.0058326534926891,0.2543219327926636,walking,2026-03-04_14-04-56
1772633097281923000,0.512923095703125,-0.4082099582845345,-0.9119834733791649,-0.1914846948862075,0.107597678899765,-0.0527127832174301,0.2402037680149078,walking,2026-03-04_14-04-56
1772633097291872000,0.5228720703125,-0.6216489665538072,-0.7605721379451453,-0.2542342887878417,0.0377669334411621,-0.095354788005352,0.2375464588403701,walking,2026-03-04_14-04-56
1772633097301821000,0.532821044921875,-0.7221532677017152,-0.6910697087824345,-0.4587508992046117,-0.0206171050667762,-0.0853253602981567,0.23911052942276,walking,2026-03-04_14-04-56
1772633097311770000,0.54277001953125,-0.915334537372738,-0.684445906728506,-0.7751613659203052,-0.0530378967523574,-0.0362986996769905,0.2382370084524154,walking,2026-03-04_14-04-56
1772633097321719300,0.55271923828125,-0.9917810135196894,-0.6445946655943989,-1.0559715269446373,-0.0454212501645088,0.0712339431047439,0.2575936317443847,walking,2026-03-04_14-04-56
1772633097331668200,0.562668212890625,-0.7916908412430435,-0.6073924776643514,-1.3027502390295267,0.0113357752561569,0.1629659980535507,0.3007887601852417,walking,2026-03-04_14-04-56
1772633097341617200,0.5726171875,-0.5855268654780462,-0.6210754044495522,-1.5589572891950607,0.1324772387742996,0.2602691948413849,0.3656225502490997,walking,2026-03-04_14-04-56
1772633097351566000,0.582566162109375,-0.3692767087781801,-0.7150766073137521,-1.6083020426005123,0.2845967411994934,0.3282493352890014,0.425257921218872,walking,2026-03-04_14-04-56
1772633097361515000,0.592514892578125,-0.3324091230973601,-0.8002772486068308,-1.2697434569627046,0.3998439311981201,0.3066371381282806,0.4607850313186645,walking,2026-03-04_14-04-56
1772633097371464000,0.6024638671875,-0.3159872363349422,-0.9216647633075714,-0.6877180602669716,0.4436675906181335,0.1909267753362655,0.4740337431430816,walking,2026-03-04_14-04-56
1772633097381412900,0.612412841796875,-0.3613063509535044,-1.1193391066141425,-0.2684691503673792,0.432678759098053,0.0746015757322311,0.4546875357627868,walking,2026-03-04_14-04-56
1772633097391362300,0.6223623046875,-0.5579288105869665,-1.2801419552497566,-0.1196054535895586,0.3891757726669311,0.0291720423847436,0.3790854513645172,walking,2026-03-04_14-04-56
1772633097401311200,0.632311279296875,-0.7968349261332303,-1.2996212933540343,-0.0692599987089633,0.318575918674469,0.0374452769756317,0.269481748342514,walking,2026-03-04_14-04-56
1772633097411260200,0.64226025390625,-0.879885476720333,-1.2421803272545338,-0.0717798725754022,0.2244209498167038,0.0531241074204444,0.1534424722194671,walking,2026-03-04_14-04-56
1772633097421209000,0.652208984375,-0.8411471652641892,-1.0743253681503235,-0.0535346063107252,0.1118993535637855,0.0362066030502319,0.055198285728693,walking,2026-03-04_14-04-56
1772633097431158000,0.662157958984375,-0.857782512114197,-0.7556292747154831,-0.0652390726298093,-0.0087847141548991,-0.0037285648286342,-0.0395029224455356,walking,2026-03-04_14-04-56
1772633097441107000,0.67210693359375,-0.9067864892579616,-0.3431416756443679,-0.1432879424721002,-0.1240434125065803,-0.0451381206512451,-0.12932188808918,walking,2026-03-04_14-04-56
1772633097451056000,0.68205615234375,-0.8365751081082969,0.1423643978863954,-0.3815799812406301,-0.2135218977928161,-0.074277363717556,-0.1926577240228653,walking,2026-03-04_14-04-56
1772633097461005300,0.69200537109375,-0.7372182234298438,0.5898902848519385,-0.7107692655086517,-0.2658565938472748,-0.0794301480054855,-0.2247039973735809,walking,2026-03-04_14-04-56
1772633097470954200,0.701954345703125,-0.5011050630703568,0.9988535091891884,-1.004572179096937,-0.2711120843887329,-0.0630080327391624,-0.2250611186027526,walking,2026-03-04_14-04-56
1772633097480903200,0.711903076171875,-0.3436487849162891,1.4078702172793447,-1.2340700860351324,-0.247685819864273,-0.069041833281517,-0.1924694776535034,walking,2026-03-04_14-04-56
1772633097490852000,0.72185205078125,-0.3393177699746564,1.7246994939289986,-1.2777169200599192,-0.2247136533260345,-0.1075194478034973,-0.1480301171541214,walking,2026-03-04_14-04-56
1772633097500801000,0.731801025390625,-0.3868927737612277,1.863025137818605,-1.3383774327278135,-0.1864778250455856,-0.1164878532290458,-0.0983056649565696,walking,2026-03-04_14-04-56
1772633097510750000,0.74175,-0.3301091025266796,1.8334411698073148,-1.4478314946591853,-0.1179219335317611,-0.0619838647544384,-0.0313346236944198,walking,2026-03-04_14-04-56
1772633097520699100,0.75169921875,-0.2524836822608485,1.7543312466047702,-1.5968752241790294,-0.0052099446766078,0.0577140189707279,0.0517403371632099,walking,2026-03-04_14-04-56
1772633097530648000,0.76164794921875,-0.0759108714329078,1.6398190245009958,-1.5884224531322717,0.1473199427127838,0.2357711046934127,0.1474857777357101,walking,2026-03-04_14-04-56
1772633097540597200,0.77159716796875,0.1323146765043959,1.4339805178306997,-1.245598611265421,0.2951442003250122,0.407845675945282,0.2382542341947555,walking,2026-03-04_14-04-56
1772633097550546200,0.781546142578125,0.2701550210950896,1.1317409075476228,-0.5646423002183437,0.3946188390254974,0.4772468507289886,0.3065888285636902,walking,2026-03-04_14-04-56
1772633097560495000,0.7914951171875,0.330006993859075,0.7458642520263791,0.229561619824171,0.4440203607082367,0.4775859415531158,0.3329971730709076,walking,2026-03-04_14-04-56
1772633097570444000,0.801444091796875,0.1794786152720451,0.5082331613846123,0.7458826644659042,0.4678415358066559,0.4318717122077942,0.33610799908638,walking,2026-03-04_14-04-56
1772633097580393000,0.81139306640625,0.2535095181772485,0.186187172999978,1.216142215156555,0.4432496726512909,0.3348209261894226,0.297914057970047,walking,2026-03-04_14-04-56
1772633097590342100,0.821342041015625,0.2911935713401064,0.0813788910478353,1.6293237878412008,0.3807995915412903,0.1845075637102127,0.2447291612625122,walking,2026-03-04_14-04-56
1772633097600291000,0.831291015625,0.1902583679616451,0.1574701970815658,1.8579215310692787,0.26944300532341,0.0287324171513319,0.1365865617990493,walking,2026-03-04_14-04-56
1772633097610240000,0.841239990234375,0.1182523584801703,0.2398103343769907,1.969891959735751,0.1342100948095321,-0.1161320954561233,0.0297522600740194,walking,2026-03-04_14-04-56
1772633097620189200,0.851189208984375,0.2103006737109273,0.3796117499075829,1.8124205936104056,0.0055742850527167,-0.2476556897163391,-0.0236314535140991,walking,2026-03-04_14-04-56
1772633097630138000,0.86113818359375,0.2519427072519436,0.6192689395494758,1.450933552327752,-0.0940750762820243,-0.3267472982406616,-0.036047376692295,walking,2026-03-04_14-04-56
1772633097640087000,0.871087158203125,0.236383538266085,0.8177738884612917,1.0359405463069675,-0.1671500653028488,-0.3599429726600647,-0.0446068570017814,walking,2026-03-04_14-04-56
1772633097650037000,0.881037109375,0.1533490254983305,0.8284647938236593,0.654451165959239,-0.2223954796791076,-0.38233482837677,-0.0697753280401229,walking,2026-03-04_14-04-56
1772633097659986000,0.89098583984375,0.0416368459092453,0.7491665084421634,0.281045138823986,-0.257817804813385,-0.3750343024730682,-0.1067268326878547,walking,2026-03-04_14-04-56
1772633097669935000,0.90093505859375,-0.0848362649600952,0.76754329213202,0.0196358438402414,-0.2807305753231048,-0.3433722555637359,-0.1512511521577835,walking,2026-03-04_14-04-56
1772633097679884300,0.91088427734375,-0.1273260744368657,0.8374915653660893,-0.1781838992863893,-0.299622505903244,-0.3013840019702911,-0.1819257587194442,walking,2026-03-04_14-04-56
1772633097689833200,0.920833251953125,-0.0169930011812597,0.8643690508976578,-0.3088806557327508,-0.3076415657997131,-0.2412106692790985,-0.194455936551094,walking,2026-03-04_14-04-56
1772633097699782100,0.9307822265625,0.0952257396904751,0.9036515522331,-0.4132598986178636,-0.3009463548660278,-0.187072068452835,-0.1896412968635559,walking,2026-03-04_14-04-56
1772633097709731000,0.94073095703125,0.2745900444004684,0.8924407146498561,-0.5700275003880262,-0.2633270919322967,-0.1186554580926895,-0.1544763892889022,walking,2026-03-04_14-04-56
1772633097719680000,0.950679931640625,0.4395837323220446,0.8643756267689168,-0.7159580663233995,-0.187479555606842,-0.0149828996509313,-0.0975037291646003,walking,2026-03-04_14-04-56
1772633097729629000,0.96062890625,0.6083932887373492,0.8594275028422474,-0.7472147898524999,-0.0838192105293273,0.1031674444675445,-0.0094859842211008,walking,2026-03-04_14-04-56
1772633097739578000,0.970578125,0.7178663110975175,0.7970397279903292,-0.5122159474104643,0.0097891623154282,0.1907349526882171,0.0771596282720565,walking,2026-03-04_14-04-56
1772633097749527300,0.98052734375,0.7866597882732749,0.6137251878172159,-0.0450666376948356,0.0687520802021026,0.2262191772460937,0.1594078838825225,walking,2026-03-04_14-04-56
1772633097759476200,0.990476318359375,0.8303238656938076,0.3050634355321526,0.5192109208643436,0.0868265479803085,0.2139106690883636,0.2220736145973205,walking,2026-03-04_14-04-56
1772633097769425200,1.000425048828125,0.7492351897642016,0.0150413556568324,1.0580331356495618,0.0636431947350502,0.1739576607942581,0.2569330632686615,walking,2026-03-04_14-04-56
1772633097779374000,1.0103740234375,0.5678912920769303,-0.2492189448438584,1.424552910402417,0.0142160095274448,0.1070732325315475,0.2638328969478607,walking,2026-03-04_14-04-56
1772633097789323000,1.020322998046875,0.3438517236098647,-0.4987202137604355,1.5556173311173915,-0.032255619764328,0.0652679949998855,0.2328755259513855,walking,2026-03-04_14-04-56
1772633097799272000,1.03027197265625,0.1190640036566182,-0.6520908665686845,1.5930238094478846,-0.0763356611132621,0.0601362697780132,0.1654135882854461,walking,2026-03-04_14-04-56
1772633097809221000,1.04022119140625,0.0119738578449934,-0.75976622838974,1.590800288179517,-0.1162457913160324,0.0562778785824775,0.0989930033683776,walking,2026-03-04_14-04-56
1772633097819170000,1.050170166015625,0.0777095548853278,-0.7815298780389129,1.543249432453513,-0.1470353007316589,0.0395063981413841,0.0498115196824073,walking,2026-03-04_14-04-56
1772633097829119200,1.060119140625,0.1902171591684222,-0.6656846537657082,1.4757424148917198,-0.1588504016399383,-0.0061012990772724,0.0210850667208433,walking,2026-03-04_14-04-56
1772633097839068200,1.070068115234375,0.2818324898093938,-0.486142617868632,1.3321768245220182,-0.1492089629173278,-0.0761988312005996,0.0142153035849332,walking,2026-03-04_14-04-56
1772633097849017000,1.08001708984375,0.3030283860405907,-0.3806289641261101,1.0476070187032225,-0.1171490177512168,-0.1264476180076599,0.0130416480824351,walking,2026-03-04_14-04-56
1772633097858966000,1.089966064453125,0.2095549333775415,-0.3396072179079055,0.756716777691245,-0.0788505524396896,-0.1435845494270324,0.0011229834053665,walking,2026-03-04_14-04-56
1772633097868915200,1.099915283203125,0.0286717485371977,-0.3628419630229473,0.6373503935545682,-0.0636905059218406,-0.1564212590456009,-0.0403648018836975,walking,2026-03-04_14-04-56
1772633097878864100,1.109864013671875,-0.2065843566015362,-0.4709861113995313,0.7186094576150178,-0.0837312266230583,-0.1852975934743881,-0.1129948943853378,walking,2026-03-04_14-04-56
1772633097888813000,1.11981298828125,-0.3486541919881478,-0.5602836666174232,0.8224678914964199,-0.1266747117042541,-0.2312704175710678,-0.1799488961696624,walking,2026-03-04_14-04-56
1772633097898762000,1.129761962890625,-0.4027676211001351,-0.5835226495161652,0.9043208297967912,-0.1922226995229721,-0.2714946866035461,-0.2294808179140091,walking,2026-03-04_14-04-56
1772633097908711200,1.139711181640625,-0.5186035295557231,-0.5832751044958829,1.0749030219078064,-0.2970939576625824,-0.2654692828655243,-0.2580160498619079,walking,2026-03-04_14-04-56
1772633097918660000,1.14966015625,-0.5317799681235105,-0.5734240109585226,1.169793136435747,-0.4281423985958099,-0.175556018948555,-0.2843179106712341,walking,2026-03-04_14-04-56
1772633097928609000,1.159609130859375,-0.2853008417733945,-0.6655445146426558,0.922033012098074,-0.5252399444580078,-0.0124283544719219,-0.2692689299583435,walking,2026-03-04_14-04-56
1772633097938558200,1.16955810546875,0.0664048650061711,-0.690899028390646,0.6187649355500936,-0.5719936490058899,0.1538029015064239,-0.2370029836893081,walking,2026-03-04_14-04-56
1772633097948507100,1.179507080078125,0.260491376421228,-0.6168098559595644,0.3335346199959516,-0.5497823357582092,0.2661882936954498,-0.1760456264019012,walking,2026-03-04_14-04-56
1772633097958456000,1.1894560546875,0.4830436654726043,-0.5879844512306154,0.124147773194313,-0.4660566747188568,0.2778253555297851,-0.0949021056294441,walking,2026-03-04_14-04-56
1772633097968405000,1.199405029296875,0.5710811010941863,-0.6173788880191743,0.1268137775331735,-0.3598439395427704,0.128219872713089,-0.0264569949358701,walking,2026-03-04_14-04-56
1772633097978354200,1.209354248046875,0.5989511778596788,-0.3494593343585729,0.7471066533029079,-0.3926971852779388,-0.2630594074726105,0.0835861787199974,walking,2026-03-04_14-04-56
1772633097988303000,1.21930322265625,0.8212653838388622,-0.6972684172920882,1.1639210295319558,-0.4738130569458008,-0.4766372144222259,0.1113592237234115,walking,2026-03-04_14-04-56
1772633097998252000,1.229251953125,0.8052498493876308,-1.6125070930749177,0.9151672179818152,-0.5307511687278748,-0.7027815580368042,0.1068858951330185,walking,2026-03-04_14-04-56
1772633098008201200,1.239201171875,0.2462259553066454,-1.4550073776379226,0.8432330316275358,-0.573172390460968,-0.9387010931968688,-0.0124767152592539,walking,2026-03-04_14-04-56
1772633098018150100,1.249150146484375,-0.2695451090358197,-1.3923454620197415,0.0602238748162984,-0.521234929561615,-1.0594412088394165,-0.1281091868877411,walking,2026-03-04_14-04-56
1772633098028099000,1.25909912109375,-0.3758207966594025,-1.3468370719067753,-1.0801900224000216,-0.3614306151866913,-0.9674695134162904,-0.2246626317501068,walking,2026-03-04_14-04-56
1772633098038048000,1.269048095703125,-0.3610859131358563,-1.019126043497771,-2.167514134463668,-0.1627558469772339,-0.7709792852401733,-0.2913217842578888,walking,2026-03-04_14-04-56
1772633098047996700,1.27899658203125,-0.3021060287649743,-0.523658255662024,-2.4925965679347515,-0.0003837221302092,-0.576215386390686,-0.2785833775997162,walking,2026-03-04_14-04-56
1772633098057945900,1.28894580078125,0.0087240074698813,-0.2923560757808387,-2.4349019193351267,0.1166038736701011,-0.2831782102584839,-0.2149038910865783,walking,2026-03-04_14-04-56
1772633098067895800,1.298895751953125,0.2888306598673574,-0.3107709995239973,-2.18836110765934,0.1556218564510345,-0.0691601783037185,-0.1256235390901565,walking,2026-03-04_14-04-56
1772633098077844700,1.3088447265625,0.5463332114698365,-0.5317594367921352,-1.858148325562477,0.1344777196645736,0.0233181472867727,-0.0290091857314109,walking,2026-03-04_14-04-56
1772633098087794000,1.3187939453125,0.7417440302912145,-0.758035459074378,-1.6780115386426449,0.1128270104527473,0.0928548797965049,0.0566758885979652,walking,2026-03-04_14-04-56
1772633098097742800,1.328742919921875,0.6734447663731873,-0.9152868988387286,-1.6709943533569571,0.1104554161429405,0.1650021970272064,0.1138144880533218,walking,2026-03-04_14-04-56
1772633098107691800,1.33869189453125,0.4434288999754935,-0.8935252950161695,-1.7214128734737633,0.1346334517002105,0.1893970221281051,0.1619828194379806,walking,2026-03-04_14-04-56
1772633098117640700,1.348640625,0.1860549431887455,-0.8750773457862436,-1.845751785326004,0.1933141499757766,0.1909980177879333,0.187390461564064,walking,2026-03-04_14-04-56
1772633098127590000,1.35858984375,0.0291845660306978,-0.8966308598160743,-2.015379453191161,0.2510400116443634,0.1944039314985275,0.1981192678213119,walking,2026-03-04_14-04-56
1772633098137538800,1.368538818359375,-0.0868691316277254,-0.908107070337236,-2.074550604084134,0.2985164523124695,0.1702892184257507,0.1710795313119888,walking,2026-03-04_14-04-56
1772633098147488000,1.378488037109375,-0.305005330403056,-0.857683435653895,-1.9856559305787085,0.3410050570964813,0.1587670594453811,0.1183108538389206,walking,2026-03-04_14-04-56
1772633098157437000,1.38843701171875,-0.4742253855817019,-0.7157550910972058,-1.8806039029985664,0.3750772774219513,0.1409300565719604,0.0555006004869937,walking,2026-03-04_14-04-56
1772633098167385900,1.3983857421875,-0.6433467844251543,-0.5659456379018724,-1.671761830598116,0.3830403983592987,0.0896876454353332,-0.0122531475499272,walking,2026-03-04_14-04-56
1772633098177334800,1.408334716796875,-0.8147058791927992,-0.4442668851695954,-1.3966203628599645,0.34415403008461,-0.0111142080277204,-0.0968827605247497,walking,2026-03-04_14-04-56
1772633098187283700,1.41828369140625,-1.063282069153711,-0.2387931201584637,-1.0797294191509486,0.2512629926204681,-0.1468781679868698,-0.2144365459680557,walking,2026-03-04_14-04-56
1772633098197233000,1.42823291015625,-1.3812236178942023,0.0501965479291975,-0.9206886117517948,0.1320060342550277,-0.2460507303476333,-0.3418351709842682,walking,2026-03-04_14-04-56
1772633098207181800,1.438181884765625,-1.5611984922505917,0.3917833953469991,-0.9945990666151048,0.0288338344544172,-0.2953557074069977,-0.4582555294036865,walking,2026-03-04_14-04-56
1772633098217131000,1.448131103515625,-1.5528725624538957,0.888018806554377,-1.292051734882593,-0.0131240859627723,-0.2534617483615875,-0.5343087911605835,walking,2026-03-04_14-04-56
1772633098227080000,1.458079833984375,-1.4760299996614454,1.3851413758598268,-1.6097925734192131,0.0317347347736358,-0.1113453656435012,-0.5967721343040466,walking,2026-03-04_14-04-56
1772633098237028900,1.46802880859375,-1.3217708735808729,1.776213261936605,-1.736228749811649,0.1529027968645095,0.0921052023768425,-0.5952771306037903,walking,2026-03-04_14-04-56
1772633098246977800,1.477977783203125,-0.8263233978807926,2.076049172078818,-1.641188413158059,0.3171673715114593,0.2661587595939636,-0.5181951522827148,walking,2026-03-04_14-04-56
1772633098256926700,1.4879267578125,-0.4094656574340537,2.3372305035255847,-1.2544114477962254,0.4944179654121399,0.3861233294010162,-0.3903645277023315,walking,2026-03-04_14-04-56
1772633098266875600,1.497875732421875,-0.2102374174826778,2.5085522619575262,-0.7482470555096864,0.6452266573905945,0.4913634657859802,-0.2389867305755615,walking,2026-03-04_14-04-56
1772633098276824800,1.507824951171875,-0.0788783520695287,2.397717997714132,-0.082112466019392,0.7339889407157898,0.5341604948043823,-0.0938834846019744,walking,2026-03-04_14-04-56
1772633098286774000,1.51777392578125,-0.0456988803169224,2.1218903012774883,0.6351718804717064,0.7578495740890503,0.5130437612533569,0.0013255861122161,walking,2026-03-04_14-04-56
1772633098296723000,1.527722900390625,-0.1563667476180009,1.759610794442892,1.197570785677433,0.7415358424186707,0.4456655085086822,0.0575771406292915,walking,2026-03-04_14-04-56
1772633098306671900,1.537671875,-0.2990391702739521,1.3733961391389369,1.4965601619929074,0.7047085165977478,0.3870784342288971,0.0740522369742393,walking,2026-03-04_14-04-56
1772633098316620800,1.547620849609375,-0.4886904026553034,1.1457973438203335,1.7330197246372698,0.6365571618080139,0.3545927703380584,0.0521663688123226,walking,2026-03-04_14-04-56
1772633098326569700,1.55756982421875,-0.7571147640328854,0.899377674306184,1.933344144061208,0.536728024482727,0.3196015059947967,-0.0212449990212917,walking,2026-03-04_14-04-56
1772633098336518700,1.5675185546875,-0.958852045929432,0.5987374620437622,2.092467369046807,0.4007309675216675,0.2872917354106903,-0.1262842416763305,walking,2026-03-04_14-04-56
1772633098346467800,1.5774677734375,-0.9735944186396897,0.3319873905539512,2.233677336201072,0.2347944527864456,0.2403537929058075,-0.2539061307907104,walking,2026-03-04_14-04-56
1772633098356417000,1.5874169921875,-0.9558876431658864,0.1693430057048797,2.2630606670737263,0.052068755030632,0.1791202872991562,-0.3992059826850891,walking,2026-03-04_14-04-56
1772633098366366000,1.597365966796875,-0.9206444803491234,0.1322268886230886,2.1515186929523944,-0.1102487817406654,0.1063486114144325,-0.5340325236320496,walking,2026-03-04_14-04-56
1772633098376315000,1.60731494140625,-0.7318992934294044,0.194516317667067,1.83078276425302,-0.21895232796669,0.0310722924768924,-0.6259403228759766,walking,2026-03-04_14-04-56
1772633098386263800,1.617263916015625,-0.4417481803469359,0.3875701615661382,1.3102379644364115,-0.2633301913738251,-0.0048044817522168,-0.6590982675552368,walking,2026-03-04_14-04-56
1772633098396212700,1.627212646484375,-0.2956918326074257,0.6587503244578838,0.8406769174039364,-0.2575216591358185,0.0074522038921713,-0.6478627920150757,walking,2026-03-04_14-04-56
1772633098406161700,1.63716162109375,-0.1178122134972363,0.8424627779074013,0.4987970783889293,-0.2213473916053772,0.0530037097632885,-0.6056729555130005,walking,2026-03-04_14-04-56
1772633098416110800,1.64711083984375,0.0820450998716056,0.916375278597325,0.4039356054335832,-0.183365911245346,0.0982305780053138,-0.5304110050201416,walking,2026-03-04_14-04-56
1772633098426060000,1.65706005859375,0.3303642463315278,0.88254885071069,0.3735989193588495,-0.1412821114063263,0.1294843703508377,-0.416802167892456,walking,2026-03-04_14-04-56
1772633098436009000,1.667009033203125,0.4580003730982542,0.8204550903692841,0.4255114774256944,-0.1113684698939323,0.1456967741250991,-0.2923553586006164,walking,2026-03-04_14-04-56
1772633098445958000,1.6769580078125,0.3327507396092638,0.7053226905405521,0.5692085852205753,-0.0985293686389923,0.1586639732122421,-0.1980722695589065,walking,2026-03-04_14-04-56
1772633098455906800,1.68690673828125,0.1142883867526426,0.3784788003548979,0.6557464664667845,-0.0972831025719642,0.179681584239006,-0.1347108781337738,walking,2026-03-04_14-04-56
1772633098465855700,1.696855712890625,0.0128464759610593,-0.0153192958153784,0.7500795316338539,-0.1113717630505561,0.1873014271259308,-0.1048714816570282,walking,2026-03-04_14-04-56
1772633098475805000,1.706804931640625,-0.1279507456738501,-0.2671066298425197,0.9124509447604418,-0.1350642442703247,0.1660320162773132,-0.0980183631181716,walking,2026-03-04_14-04-56
1772633098485753900,1.71675390625,-0.2404563771955668,-0.4135468988656997,1.0372422765552998,-0.1686379164457321,0.1291474997997284,-0.095211386680603,walking,2026-03-04_14-04-56
1772633098495702800,1.726702880859375,-0.2875501002712175,-0.5378022240877152,1.0627443820804356,-0.1924117505550384,0.0844571441411972,-0.0964540764689445,walking,2026-03-04_14-04-56
1772633098505652000,1.73665185546875,-0.3403603743627667,-0.5757008698493242,1.027411202892661,-0.2118240594863891,0.0383980348706245,-0.0962394252419471,walking,2026-03-04_14-04-56
1772633098515601000,1.746600830078125,-0.338166006123647,-0.6643662646435201,1.0113514639735222,-0.2284707278013229,-0.0446584187448024,-0.1007343232631683,walking,2026-03-04_14-04-56
1772633098525549800,1.7565498046875,-0.358238012891449,-0.7262162793569267,0.7758142768710852,-0.215072900056839,-0.1143160611391067,-0.1130221486091613,walking,2026-03-04_14-04-56
1772633098535499800,1.766499755859375,-0.4888136637087911,-0.6504680876724421,0.3918944545060396,-0.1618338525295257,-0.1073053702712059,-0.125035211443901,walking,2026-03-04_14-04-56
1772633098545448000,1.776447998046875,-0.5500626437891274,-0.5500310065418481,0.1817804624736309,-0.1010410785675048,-0.0628955662250518,-0.1194313988089561,walking,2026-03-04_14-04-56
1772633098555397600,1.786397705078125,-0.497826224062778,-0.4596092695996165,0.2712771935254335,-0.0761627331376075,-0.0837791115045547,-0.0974081456661224,walking,2026-03-04_14-04-56
1772633098565347000,1.79634716796875,-0.4246124827593565,-0.4321317723482847,0.4259264879673719,-0.0763803198933601,-0.1468680649995803,-0.0768525376915931,walking,2026-03-04_14-04-56
1772633098575296000,1.8062958984375,-0.3472839996134862,-0.4590932829014956,0.2846872947186231,-0.0660116747021675,-0.1434043943881988,-0.0457538217306137,walking,2026-03-04_14-04-56
1772633098585245000,1.816244873046875,-0.4036225208964198,-0.4126686547264456,0.0771522132635116,-0.0442552492022514,-0.0641063824295997,-0.0121101075783371,walking,2026-03-04_14-04-56
1772633098595193900,1.82619384765625,-0.5055818431582302,-0.3685091950044035,0.0200566996008157,-0.0338274985551834,0.0403824411332607,0.0284416023641824,walking,2026-03-04_14-04-56
1772633098605142800,1.836142822265625,-0.4528656770909204,-0.4235179655209183,0.1530272461980581,-0.0401511751115322,0.1372717022895813,0.0739568844437599,walking,2026-03-04_14-04-56
1772633098615091700,1.846091796875,-0.336578335073404,-0.5417978695951402,0.3419651792109012,-0.0501590259373188,0.2040161788463592,0.1148579120635986,walking,2026-03-04_14-04-56
1772633098625041000,1.856041015625,-0.2559755794972181,-0.6447780593372882,0.5552981332898139,-0.0554262287914752,0.239374428987503,0.1538290083408355,walking,2026-03-04_14-04-56
1772633098634989800,1.86598974609375,-0.2173779551533982,-0.7425286778628826,0.7171539981096983,-0.0468880906701087,0.2309799939393997,0.1836485862731933,walking,2026-03-04_14-04-56
1772633098644939000,1.87593896484375,-0.2174651219801977,-0.7906877286151051,0.7461807706296444,-0.0162114035338163,0.1827608048915863,0.2013839185237884,walking,2026-03-04_14-04-56
1772633098654888000,1.885887939453125,-0.0985541899934411,-0.941663887502253,0.8024445096433163,0.0161712262779474,0.1010688915848732,0.2251388877630233,walking,2026-03-04_14-04-56
1772633098664836900,1.8958369140625,-0.0076947922863066,-1.0268168902613222,0.8503186059743165,0.0347166806459426,-0.0290289260447025,0.2146734595298767,walking,2026-03-04_14-04-56
1772633098674785800,1.905785888671875,-0.0676851506076753,-0.9813818576455116,0.7683113538950681,0.042588222771883,-0.1680343449115753,0.20149827003479,walking,2026-03-04_14-04-56
1772633098684734700,1.915734619140625,-0.0494476292580366,-1.116121021350473,0.4590875838130712,0.0467651225626468,-0.2500722408294678,0.1539813429117202,walking,2026-03-04_14-04-56
1772633098694684000,1.925683837890625,-0.1952574548905715,-1.08884196928069,0.1312707569420337,0.0435568392276763,-0.2954812049865722,0.1020454764366149,walking,2026-03-04_14-04-56
1772633098704632800,1.9356328125,-0.2579824623402208,-0.8789872127063572,-0.1875520316123962,0.0286593809723854,-0.3270827829837799,0.0755574107170105,walking,2026-03-04_14-04-56
1772633098714582000,1.94558203125,-0.2069348140070214,-0.709198362930119,-0.529033226698637,0.0104862945154309,-0.3535094261169433,0.0676741972565651,walking,2026-03-04_14-04-56
1772633098724531000,1.955531005859375,-0.150378010330908,-0.5781590766564011,-0.93347269000113,0.0156751982867717,-0.3198044598102569,0.0721999779343605,walking,2026-03-04_14-04-56
1772633098734480000,1.96547998046875,-0.2191112086867913,-0.3550808275021612,-1.4731798709273338,0.0382259227335453,-0.2050715982913971,0.1031014993786811,walking,2026-03-04_14-04-56
1772633098744428800,1.9754287109375,-0.3233394257286563,-0.0986374843627214,-1.819389848101139,0.0724661871790885,-0.0377467796206474,0.1582076251506805,walking,2026-03-04_14-04-56
1772633098754377700,1.985377685546875,-0.173747670404613,-0.0658503363959491,-2.075972161319852,0.1222138330340385,0.1520259976387024,0.2660607695579529,walking,2026-03-04_14-04-56
1772633098764327000,1.995326904296875,-0.065446906694211,-0.115757984381169,-2.134614904424548,0.164833202958107,0.291023850440979,0.3704388439655304,walking,2026-03-04_14-04-56
1772633098774275800,2.00527587890625,-0.1940902742747217,-0.2271691717296838,-1.8947510862946508,0.1927269399166107,0.3565228581428528,0.4306454956531524,walking,2026-03-04_14-04-56
1772633098784224800,2.015224853515625,-0.3402427027998492,-0.5218539827190339,-1.6207587885916233,0.2067165225744247,0.3745255768299103,0.4494506120681762,walking,2026-03-04_14-04-56
1772633098794174000,2.025174072265625,-0.4532280441299081,-0.817383720099926,-1.4233809440135956,0.2082972526550293,0.3654443621635437,0.4299089312553406,walking,2026-03-04_14-04-56
1772633098804123000,2.035122802734375,-0.5118795915955677,-1.032305843066424,-1.263942661729455,0.206596553325653,0.3478560447692871,0.3835336863994598,walking,2026-03-04_14-04-56
1772633098814071800,2.04507177734375,-0.5209136331290006,-1.121555613619834,-1.0888397773236036,0.1871177852153778,0.3037813603878021,0.3219325840473175,walking,2026-03-04_14-04-56
1772633098824020700,2.055020751953125,-0.4811989143887534,-1.1388505934223532,-0.8906424330562352,0.1490926444530487,0.2329231649637222,0.2620306313037872,walking,2026-03-04_14-04-56
1772633098833970000,2.064969970703125,-0.3874990690913051,-1.0857648999229073,-0.7422416776150464,0.0980182737112045,0.1490591615438461,0.1932054907083511,walking,2026-03-04_14-04-56
1772633098843918800,2.0749189453125,-0.3540092162152752,-1.0091688592374324,-0.7238520344436168,0.0455041974782943,0.034666534513235,0.1075837984681129,walking,2026-03-04_14-04-56
1772633098853867800,2.08486767578125,-0.3847220786586404,-0.7893655401006341,-0.8263777584165334,-0.0022245659492909,-0.0759205296635627,0.0170941799879074,walking,2026-03-04_14-04-56
1772633098863816700,2.094816650390625,-0.3998150914374738,-0.4539364846602082,-1.0825392158746718,-0.0304551385343074,-0.1520113050937652,-0.0706484541296958,walking,2026-03-04_14-04-56
1772633098873766000,2.104765869140625,-0.3768775391707196,-0.041754590537399,-1.4241162725508212,-0.0469277054071426,-0.2006282061338424,-0.1410531401634216,walking,2026-03-04_14-04-56
1772633098883714800,2.11471484375,-0.4482268748417496,0.4059503062568604,-1.7311030773609877,-0.0570602342486381,-0.2231098115444183,-0.1931163370609283,walking,2026-03-04_14-04-56
1772633098893664000,2.1246640625,-0.4617959294563159,0.8508166186243296,-2.0524644444823266,-0.0402026996016502,-0.1674838364124298,-0.2253511399030685,walking,2026-03-04_14-04-56
1772633098903613000,2.134613037109375,-0.4330942241722718,1.236562195111811,-2.283567448529601,0.0148917119950056,-0.014566995203495,-0.2346306592226028,walking,2026-03-04_14-04-56
1772633098913561900,2.144561767578125,-0.1684478104308247,1.492897109440714,-2.336113628324866,0.1289644092321396,0.1799124926328659,-0.1746882945299148,walking,2026-03-04_14-04-56
1772633098923510800,2.1545107421875,0.2496379374409094,1.7374780192203818,-2.0878040534108875,0.2769642472267151,0.3780032098293304,-0.0391304604709148,walking,2026-03-04_14-04-56
1772633098933459700,2.164459716796875,0.5890381980672479,1.8759844265043732,-1.6122575022280214,0.4136309027671814,0.5657668709754944,0.1117137819528579,walking,2026-03-04_14-04-56
1772633098943409000,2.174408935546875,0.6545146596495062,1.8654105716504157,-0.7796838117808104,0.487632691860199,0.6402320861816406,0.2166289985179901,walking,2026-03-04_14-04-56
1772633098953357800,2.18435791015625,0.5623845113541931,1.6796426469758152,0.0797813927233219,0.52405846118927,0.6128647923469543,0.2658914923667907,walking,2026-03-04_14-04-56
1772633098963307000,2.19430712890625,0.5035126356687396,1.384586956847459,0.6754851861596107,0.5322028994560242,0.5234196186065674,0.2904373109340668,walking,2026-03-04_14-04-56
1772633098973256000,2.204255859375,0.4677906032938509,1.2235102597065268,1.1849410212069749,0.5033222436904907,0.3402557671070099,0.283647209405899,walking,2026-03-04_14-04-56
1772633098983204900,2.214204833984375,0.3675615388907492,1.2377338692396878,1.5073732324302196,0.4599489867687225,0.1477497071027755,0.2586528956890106,walking,2026-03-04_14-04-56
1772633098993153800,2.22415380859375,0.300506502880156,1.2584475714445114,1.632609385383129,0.4111973643302917,0.0087597342208027,0.225451111793518,walking,2026-03-04_14-04-56
1772633099003102700,2.234102783203125,0.2700218597020953,1.224486849653721,1.6434429140865805,0.348903626203537,-0.095745101571083,0.1977835297584533,walking,2026-03-04_14-04-56
1772633099013051600,2.2440517578125,0.3033291590854525,1.216735797135532,1.6728344282656906,0.2613016963005066,-0.1934816092252731,0.1933399587869644,walking,2026-03-04_14-04-56
1772633099023000800,2.254000732421875,0.2793892613757401,1.2240540111944078,1.6545090825021267,0.1604336649179458,-0.2636958360671997,0.1960028558969497,walking,2026-03-04_14-04-56
1772633099032950800,2.26395068359375,0.1338520056068897,1.1932912086620926,1.4927192686557769,0.0520913265645504,-0.3088080883026123,0.1817141324281692,walking,2026-03-04_14-04-56
1772633099042900000,2.27389990234375,-0.0833745949096977,1.1238970621794462,1.240072541320324,-0.0528542660176754,-0.3397795855998993,0.1457976847887039,walking,2026-03-04_14-04-56
1772633099052849400,2.283849365234375,-0.364752180558443,1.055821012558043,0.8589975869923829,-0.1450345367193222,-0.3276145458221435,0.0904951095581054,walking,2026-03-04_14-04-56
1772633099062798600,2.293798583984375,-0.5928758765339851,1.0584300260126591,0.4956856683701277,-0.2151640951633453,-0.2771306037902832,0.022098746150732,walking,2026-03-04_14-04-56
1772633099072747500,2.30374755859375,-0.6920547742970288,1.0941361301660537,0.2276198381066322,-0.2617095708847046,-0.2351521551609039,-0.0468445532023906,walking,2026-03-04_14-04-56
1772633099082696400,2.313696533203125,-0.5725827378287911,1.1480685036227107,-0.1030517936736345,-0.2636201083660126,-0.1750446110963821,-0.0954451188445091,walking,2026-03-04_14-04-56
1772633099092645400,2.323645263671875,-0.4046718107536435,1.231270810705423,-0.4048451214939355,-0.2092847228050232,-0.0702570751309394,-0.1096097603440284,walking,2026-03-04_14-04-56
1772633099102594300,2.33359423828125,-0.2197087361885234,1.384153679996729,-0.5000982241153716,-0.1268739998340606,0.0536060109734535,-0.0853187963366508,walking,2026-03-04_14-04-56
1772633099112543500,2.34354345703125,0.0281463364236056,1.4137281495273113,-0.3186713973850011,-0.0424292981624603,0.1192341297864914,-0.0343019142746925,walking,2026-03-04_14-04-56
1772633099122492700,2.35349267578125,0.2830773387713358,1.3086667695969345,-0.0398819285333156,0.0401004627346992,0.1406142562627792,0.026880482211709,walking,2026-03-04_14-04-56
1772633099132441600,2.363441650390625,0.411516781277582,1.1204124349340796,0.296675838676095,0.1107934787869453,0.1563365757465362,0.0802366286516189,walking,2026-03-04_14-04-56
1772633099142390500,2.373390625,0.3852805162589997,0.9064750852212308,0.8059989872545004,0.1360146701335907,0.1334083527326584,0.1154955476522445,walking,2026-03-04_14-04-56
1772633099152339500,2.38333935546875,0.2596237998064607,0.6028928281575441,1.349479256978631,0.1053637713193893,0.0697405040264129,0.1196721643209457,walking,2026-03-04_14-04-56
1772633099162288400,2.393288330078125,0.2113506211552769,0.287197816234827,1.7075035905867817,0.0458120256662368,0.0163851417601108,0.1032748147845268,walking,2026-03-04_14-04-56
1772633099172237300,2.4032373046875,0.1920505851406604,0.0588841506451368,1.8347364703148603,-0.0102967321872711,-0.0149350445717573,0.0813920050859451,walking,2026-03-04_14-04-56
1772633099182186200,2.413186279296875,0.0649415509879589,-0.0887111336320638,1.7708429670751094,-0.0740522742271423,-0.0354741401970386,0.0386168472468853,walking,2026-03-04_14-04-56
1772633099192135700,2.4231357421875,-0.0865244372427463,-0.1555968044251203,1.7570307148218154,-0.1452413350343704,-0.0422980040311813,-0.0046739084646105,walking,2026-03-04_14-04-56
1772633099202084600,2.433084716796875,0.0029663024596869,-0.237944832766056,1.6969482943028211,-0.2127916067838668,-0.0238068755716085,-0.0378286652266979,walking,2026-03-04_14-04-56
1772633099212033500,2.443033447265625,0.0650730684131383,-0.3430722636699676,1.5922528250753878,-0.2662877142429352,-0.0059376386925578,-0.0640905350446701,walking,2026-03-04_14-04-56
1772633099221982500,2.452982421875,0.0962492009866982,-0.3365007763251662,1.486187821060419,-0.3047810196876526,-0.0602117963135242,-0.0911258831620216,walking,2026-03-04_14-04-56
1772633099231931400,2.462931396484375,0.2537599492743611,-0.3085620913028717,1.2265747618436813,-0.3045752048492431,-0.1412721425294876,-0.1060698330402374,walking,2026-03-04_14-04-56
1772633099241880300,2.47288037109375,0.3741017543144523,-0.2937058829545974,0.7873428021013736,-0.2566420137882232,-0.1682574152946472,-0.1003459021449089,walking,2026-03-04_14-04-56
1772633099251829500,2.48282958984375,0.3531762359898537,-0.2036430424526333,0.3787608321666717,-0.1911230832338333,-0.1368141770362854,-0.0882916077971458,walking,2026-03-04_14-04-56
1772633099261778700,2.49277880859375,0.2329636833526193,-0.1841338937319815,0.2535369541734457,-0.1496326327323913,-0.1096768379211425,-0.0817159935832023,walking,2026-03-04_14-04-56
1772633099271727600,2.5027275390625,0.1322832584528252,-0.2564711079291999,0.2961602903693914,-0.1352884173393249,-0.0880783721804618,-0.0859978273510932,walking,2026-03-04_14-04-56
1772633099281676500,2.512676513671875,0.0948185105964541,-0.3781500067919492,0.3079103493958711,-0.1375206708908081,-0.0418592169880867,-0.0979330539703369,walking,2026-03-04_14-04-56
1772633099291625500,2.52262548828125,0.0645527708660811,-0.4861662910051643,0.2950894462674856,-0.1446326673030853,0.0073626604862511,-0.1137040928006172,walking,2026-03-04_14-04-56
1772633099301574400,2.532574462890625,0.0620290610747411,-0.5627472802519798,0.3221843739420175,-0.156481072306633,0.045344665646553,-0.1235998719930648,walking,2026-03-04_14-04-56
1772633099311523300,2.5425234375,0.1398291437877342,-0.6543240324482321,0.2993699000656604,-0.1578997373580932,0.0885885432362556,-0.1242194846272468,walking,2026-03-04_14-04-56
1772633099321472500,2.552472412109375,0.2225485992569476,-0.7220718730285763,0.2819558239281177,-0.1377768963575363,0.1021397709846496,-0.118397019803524,walking,2026-03-04_14-04-56
1772633099331421400,2.56242138671875,0.271138406109251,-0.8187947559416293,0.3505979829996824,-0.1091447249054908,0.0879421308636665,-0.1196129694581031,walking,2026-03-04_14-04-56
1772633099341370600,2.57237060546875,0.300964329650253,-0.9394799675919115,0.4660913250952959,-0.0905457362532615,-0.0001472495496273,-0.1306946575641632,walking,2026-03-04_14-04-56
1772633099351319600,2.582319580078125,0.2843509754363447,-1.0297409610144794,0.4479156169354915,-0.0730685517191886,-0.1161883473396301,-0.15213243663311,walking,2026-03-04_14-04-56
1772633099361268500,2.5922685546875,0.1406985470334067,-1.0981259304545818,0.1854308016747236,-0.0462039187550544,-0.1664597690105438,-0.1826285719871521,walking,2026-03-04_14-04-56
1772633099371217400,2.602217529296875,0.0468710933009162,-1.1289197126470505,-0.03709492816329,-0.020542686805129,-0.1865208595991134,-0.2142739742994308,walking,2026-03-04_14-04-56
1772633099381166300,2.612166259765625,0.0780732736311852,-1.1419130497328935,-0.1568348217874765,-0.0092807095497846,-0.2099121958017349,-0.2381609231233596,walking,2026-03-04_14-04-56
1772633099391115500,2.622115478515625,0.2610021389549598,-1.1640328193433582,-0.2903694320082664,0.0011364268139004,-0.211664006114006,-0.2477134615182876,walking,2026-03-04_14-04-56
1772633099401064400,2.632064453125,0.3771266185609623,-1.1426198828279972,-0.4908031570255756,0.0123097188770771,-0.1918839067220688,-0.2461949288845062,walking,2026-03-04_14-04-56
1772633099411013400,2.642013427734375,0.4160352816153317,-1.0738231177166104,-0.644883711668849,0.0117466263473033,-0.1602418571710586,-0.2374793738126754,walking,2026-03-04_14-04-56
1772633099420962600,2.651962646484375,0.4834037309566512,-1.056275770588219,-0.7244605217307806,0.0035837716422975,-0.1476975828409195,-0.2195901274681091,walking,2026-03-04_14-04-56
1772633099430911500,2.661911376953125,0.5238770860444754,-1.03912984386757,-0.8146031494706869,-0.0040011606179177,-0.1132556498050689,-0.1995545178651809,walking,2026-03-04_14-04-56
1772633099440860400,2.6718603515625,0.546280714097619,-0.9984519426509736,-0.9112205261826516,0.0035824568476527,-0.0678575411438942,-0.1703958213329315,walking,2026-03-04_14-04-56
1772633099450809600,2.6818095703125,0.6006592238865792,-0.9698743752032518,-0.9428384842395782,0.0247049834579229,-0.0284844897687435,-0.1324720680713653,walking,2026-03-04_14-04-56
1772633099460758500,2.691758544921875,0.7348068514391779,-0.998541082239151,-0.946891559022665,0.0678433999419212,0.002282477216795,-0.0837423354387283,walking,2026-03-04_14-04-56
1772633099470707500,2.70170751953125,0.9004729221969843,-1.074232575300336,-0.9950111545473336,0.13799849152565,0.0320206023752689,-0.0371762923896312,walking,2026-03-04_14-04-56
1772633099480656400,2.711656494140625,1.016539607201144,-1.1375918255329132,-1.018121396499872,0.2236769199371338,0.0467790439724922,0.0127241536974906,walking,2026-03-04_14-04-56
1772633099490605600,2.72160546875,0.9969456297412514,-1.1320357988409695,-0.8463128774642944,0.2869517505168915,0.01616121083498,0.0529101900756359,walking,2026-03-04_14-04-56
1772633099500554500,2.731554443359375,0.9074558398868888,-1.1714376887723803,-0.5858908399522305,0.3033126294612884,-0.0661222115159034,0.0825983062386512,walking,2026-03-04_14-04-56
1772633099510503400,2.74150341796875,0.7598737804174422,-1.1828345504470168,-0.3758738785535097,0.2833426296710968,-0.1667884886264801,0.0936131551861763,walking,2026-03-04_14-04-56
1772633099520452600,2.75145263671875,0.542635781724006,-1.163439091233909,-0.3468348310738802,0.240702211856842,-0.2588725984096527,0.0886812433600425,walking,2026-03-04_14-04-56
1772633099530401500,2.761401611328125,0.3178497422711923,-1.0813269174754618,-0.4673989005625247,0.1878094673156738,-0.3278550207614898,0.0618019513785839,walking,2026-03-04_14-04-56
1772633099540351500,2.7713515625,0.0378155705880373,-0.971462082786113,-0.6643190645009279,0.1167922839522361,-0.3809699118137359,0.0158254038542509,walking,2026-03-04_14-04-56
1772633099550299400,2.78129931640625,-0.2623268847526982,-0.7854672174878418,-0.8382774550467729,0.0200346913188695,-0.4141381978988647,-0.0403286032378673,walking,2026-03-04_14-04-56
1772633099560249600,2.79124951171875,-0.4642437609998509,-0.4949972477145493,-1.0749176349550484,-0.0875953659415245,-0.4333153367042541,-0.096473105251789,walking,2026-03-04_14-04-56
1772633099570198500,2.801198486328125,-0.5607609287403523,-0.1947229461550712,-1.4116384837716818,-0.1808374524116516,-0.4171907603740692,-0.1450289487838745,walking,2026-03-04_14-04-56
1772633099580147500,2.8111474609375,-0.5965426554132253,0.2443365796297788,-1.811655454456806,-0.2375319004058838,-0.3500636518001556,-0.1650543212890625,walking,2026-03-04_14-04-56
1772633099590096400,2.821096435546875,-0.5367427781626581,0.6797593563474714,-2.166878174647689,-0.2544274032115936,-0.2646704316139221,-0.1497357338666916,walking,2026-03-04_14-04-56
1772633099600045600,2.831045654296875,-0.4081838374625891,1.0980562262192368,-2.494170100861788,-0.2083176970481872,-0.1781989187002182,-0.1134027689695358,walking,2026-03-04_14-04-56
1772633099609994500,2.840994384765625,-0.3760132139589637,1.494982391282171,-2.715743060019612,-0.1065979301929473,-0.0609032772481441,-0.075464516878128,walking,2026-03-04_14-04-56
1772633099619943400,2.850943359375,-0.4625072560634464,1.8794203923024235,-2.610986215993762,0.0304043889045715,0.0503569357097148,-0.0380228757858276,walking,2026-03-04_14-04-56
1772633099629892600,2.860892578125,-0.304742989672441,2.0259657291352746,-2.372617020335793,0.1974638551473617,0.1614611148834228,0.036073513329029,walking,2026-03-04_14-04-56
1772633099639841500,2.870841552734375,-0.1441940792652778,2.1384560900226237,-1.938597242283821,0.3587835133075714,0.2544967830181122,0.108905903995037,walking,2026-03-04_14-04-56
1772633099649790500,2.88079052734375,-0.1275184369374997,2.2069735998012123,-1.2602724487841128,0.4886815845966339,0.3014826476573944,0.1695479601621627,walking,2026-03-04_14-04-56
1772633099659739400,2.890739501953125,-0.1028198846139013,2.084896203140169,-0.4830985739976167,0.5779590010643005,0.3008632063865661,0.2144381999969482,walking,2026-03-04_14-04-56
1772633099669688600,2.9006884765625,-0.1153742822932079,1.8851205036401748,0.1925046855837106,0.6331632137298584,0.272469162940979,0.2463605105876922,walking,2026-03-04_14-04-56
1772633099679637500,2.910637451171875,-0.180977512060292,1.701644635425508,0.6792150203377008,0.668610155582428,0.2294005155563354,0.2587053179740906,walking,2026-03-04_14-04-56
1772633099689586400,2.92058642578125,-0.3084344098025933,1.5794447814285757,0.9888128844290972,0.6939864754676819,0.217971459031105,0.2553530931472778,walking,2026-03-04_14-04-56
1772633099699535400,2.930535400390625,-0.447784428303875,1.4517472067981958,1.2772481335043906,0.694341778755188,0.2233955115079879,0.241234079003334,walking,2026-03-04_14-04-56
1772633099709484500,2.940484619140625,-0.6079364848805591,1.3031734328776596,1.60853000613749,0.6517652869224548,0.2133335024118423,0.2052408009767532,walking,2026-03-04_14-04-56
1772633099719433500,2.95043359375,-0.7816872605577111,1.087347200678289,1.931151602452993,0.5610204935073853,0.1812354922294616,0.1417161673307418,walking,2026-03-04_14-04-56
1772633099729382400,2.96038232421875,-0.9437095679856836,0.8209779451996088,2.0955963147223,0.4349724352359772,0.1325015276670456,0.0392264910042285,walking,2026-03-04_14-04-56
1772633099739331600,2.97033154296875,-1.0513969125054776,0.6051213178619742,2.1696704357147216,0.2769146263599396,0.0780247002840042,-0.0921182110905647,walking,2026-03-04_14-04-56
1772633099749280500,2.980280517578125,-1.1079219328038394,0.4343380502209067,2.14162390640378,0.0981761589646339,0.0126841478049755,-0.2540845572948456,walking,2026-03-04_14-04-56
1772633099759229400,2.9902294921875,-1.1185338546458632,0.3285939487233758,2.0107751742661,-0.0883902609348297,-0.0351883023977279,-0.4086147546768188,walking,2026-03-04_14-04-56
1772633099769178400,3.000178466796875,-1.0038548246078192,0.4296411245763301,1.6837480364680288,-0.2560130953788757,-0.0422308221459388,-0.517267107963562,walking,2026-03-04_14-04-56
1772633099779127300,3.010127197265625,-0.7741041119523346,0.6920838542610407,1.218497838371992,-0.3796303868293762,-0.0071290298365056,-0.5683593153953552,walking,2026-03-04_14-04-56
1772633099789076500,3.020076416015625,-0.5174420480282977,0.9872250307157636,0.6970733331114053,-0.4475844502449035,0.065304234623909,-0.5652318000793457,walking,2026-03-04_14-04-56
1772633099799025400,3.030025390625,-0.3267912466829642,1.1832681195586918,0.3038555210471153,-0.4765056073665619,0.1622379720211029,-0.5346275568008423,walking,2026-03-04_14-04-56
1772633099808974600,3.039974609375,-0.106420977845788,1.2336053911328315,0.0930424408346414,-0.4681520462036133,0.2380449175834655,-0.4685518443584442,walking,2026-03-04_14-04-56
1772633099818923500,3.049923583984375,0.1735970829527825,1.1772107192158698,-0.0643956075429916,-0.4258626401424408,0.2762042880058288,-0.3752599954605102,walking,2026-03-04_14-04-56
1772633099828872400,3.05987255859375,0.2936586462793871,1.129889872853458,-0.1578571505725383,-0.3564013838768005,0.2784590721130371,-0.2782617509365082,walking,2026-03-04_14-04-56
1772633099838821400,3.0698212890625,0.3117280079878866,1.0127385344177484,-0.1352232939600944,-0.2759312987327575,0.2368604987859726,-0.1904157698154449,walking,2026-03-04_14-04-56
1772633099848770300,3.079770263671875,0.2252336736224591,0.788231859895587,-0.0413660296112298,-0.20126973092556,0.1729135811328888,-0.1234745234251022,walking,2026-03-04_14-04-56
1772633099858719500,3.089719482421875,0.1161712413571774,0.4821627544522285,0.0692231738299131,-0.1379341781139373,0.1383135318756103,-0.0757304430007934,walking,2026-03-04_14-04-56
1772633099868668700,3.099668701171875,0.018686799487099,0.1662722199574113,0.246387666940689,-0.0998889058828353,0.1210478842258453,-0.0462842658162117,walking,2026-03-04_14-04-56
1772633099878617600,3.10961767578125,-0.0465377331607043,-0.0773769619300961,0.4356090930700302,-0.0856452584266662,0.098426729440689,-0.0214614737778902,walking,2026-03-04_14-04-56
1772633099888566500,3.11956640625,-0.077875632167235,-0.261979203826189,0.5768617303222418,-0.0857868120074272,0.0856790766119957,0.003480129642412,walking,2026-03-04_14-04-56
1772633099898515500,3.129515380859375,-0.1572041665565222,-0.3912687238231301,0.7214093174666166,-0.1012035906314849,0.0557432807981967,0.0273785386234521,walking,2026-03-04_14-04-56
1772633099908464400,3.13946435546875,-0.2834148636300116,-0.4743421438291668,0.8507488140851259,-0.1373554617166519,0.007710775360465,0.0391960516571998,walking,2026-03-04_14-04-56
1772633099918413300,3.149413330078125,-0.4138137331083417,-0.6124582366213203,0.853738059028983,-0.1675916612148285,-0.0195698477327823,0.0351320654153823,walking,2026-03-04_14-04-56
1772633099928362500,3.159362548828125,-0.4875972005911171,-0.720996352751553,0.6734522190272808,-0.1713887304067611,-0.0155072771012783,0.0225187204778194,walking,2026-03-04_14-04-56
1772633099938311700,3.169311767578125,-0.558940289184451,-0.7367936413422227,0.5521458067387343,-0.1631446480751037,-0.0213947277516126,0.0221994072198867,walking,2026-03-04_14-04-56
1772633099948260600,3.179260498046875,-0.5570661658756435,-0.7225099721848964,0.5327116229504346,-0.1561880260705948,-0.0681528896093368,0.0279270224273204,walking,2026-03-04_14-04-56
1772633099958209500,3.18920947265625,-0.4986398420006036,-0.6991239820308983,0.4645061017304658,-0.1371626704931259,-0.1070038825273513,0.0441717728972435,walking,2026-03-04_14-04-56
1772633099968158500,3.199158447265625,-0.4629399483922868,-0.6370034798130393,0.3870096050739288,-0.1126076281070709,-0.1085126027464866,0.0681883543729782,walking,2026-03-04_14-04-56
1772633099978107400,3.209107421875,-0.4850341451700776,-0.5688160787716507,0.3986684786856174,-0.1026647165417671,-0.1082678586244583,0.092608205974102,walking,2026-03-04_14-04-56
1772633099988056300,3.219056396484375,-0.526798526449129,-0.5917997717350721,0.4811638065427541,-0.117543451488018,-0.1077024862170219,0.1062729284167289,walking,2026-03-04_14-04-56
1772633099998005500,3.229005615234375,-0.5084004077102988,-0.6483584020420908,0.5530196669638157,-0.1349045932292938,-0.0808719396591186,0.1092101335525512,walking,2026-03-04_14-04-56
1772633100007954400,3.238954345703125,-0.4895507458116859,-0.6582137333631515,0.5455693509578704,-0.1324877291917801,-0.0478232577443122,0.1037201434373855,walking,2026-03-04_14-04-56
1772633100017903600,3.248903564453125,-0.4810624650601297,-0.5928194701716304,0.4914449620604514,-0.1199735403060913,-0.0100404601544141,0.0972981974482536,walking,2026-03-04_14-04-56
1772633100027852500,3.2588525390625,-0.3874710120406001,-0.4967654264308512,0.4949404029607772,-0.0972108915448188,0.0382553488016128,0.100500464439392,walking,2026-03-04_14-04-56
1772633100037801500,3.268801513671875,-0.2144539939980954,-0.4628120111636817,0.6199322257637977,-0.0777272060513496,0.0636416673660278,0.1160133779048919,walking,2026-03-04_14-04-56
1772633100047750400,3.27875048828125,-0.0290576791148632,-0.4312488520339131,0.7957669315755367,-0.0576775521039962,0.0598664917051792,0.1308803707361221,walking,2026-03-04_14-04-56
1772633100057699300,3.28869921875,0.148582103357464,-0.3829502466805279,0.8458283088177442,-0.0315372981131076,0.0522740855813026,0.1570730954408645,walking,2026-03-04_14-04-56
1772633100067648500,3.2986484375,0.3072366879180073,-0.323492826192081,0.9350275182276964,-0.0194501318037509,0.020115777850151,0.1947574168443679,walking,2026-03-04_14-04-56
1772633100077598500,3.308598388671875,0.3520127451684325,-0.3270155934907496,1.0508873555481433,-0.0376296676695346,-0.0282648019492626,0.2359325438737869,walking,2026-03-04_14-04-56
1772633100087547600,3.318547607421875,0.3080311992965638,-0.4248623658671975,1.0714134262263777,-0.0776595547795295,-0.0795159637928009,0.2554964125156402,walking,2026-03-04_14-04-56
1772633100097496600,3.32849658203125,0.2024383428379893,-0.5630804577291012,0.8733218804210424,-0.1145573854446411,-0.1114669740200042,0.2523546814918518,walking,2026-03-04_14-04-56
1772633100107445500,3.338445556640625,0.0578215263823047,-0.609563245832175,0.4561421780109405,-0.1262364238500595,-0.0954979211091995,0.2301195412874221,walking,2026-03-04_14-04-56
1772633100117394400,3.34839453125,-0.0958650605073198,-0.6271342660970985,-0.0002431611061096,-0.1176629140973091,-0.0692639201879501,0.2026993781328201,walking,2026-03-04_14-04-56
1772633100127343400,3.35834326171875,-0.183537279545702,-0.6079905896879733,-0.3164543058574199,-0.1068343073129654,-0.0545110553503036,0.1686792075634002,walking,2026-03-04_14-04-56
1772633100137292500,3.36829248046875,-0.2406401727972552,-0.5791758524835109,-0.6172288120239973,-0.0941022709012031,-0.039140086621046,0.1394390314817428,walking,2026-03-04_14-04-56
1772633100147241500,3.378241455078125,-0.2548808430630713,-0.526283197338134,-0.8561679165244102,-0.0945449769496917,-0.0255954936146736,0.1184744089841842,walking,2026-03-04_14-04-56
1772633100157190700,3.388190673828125,-0.2264954006539657,-0.4608963868007064,-0.9547796819239854,-0.1093127354979515,-0.0147425793111324,0.1140767335891723,walking,2026-03-04_14-04-56
1772633100167139600,3.3981396484375,-0.0208389360196888,-0.4625175582617521,-1.2239075884610413,-0.1191899925470352,0.0058603296056389,0.1447368860244751,walking,2026-03-04_14-04-56
1772633100177088500,3.408088623046875,0.0973912106286734,-0.3788932263746857,-1.488123757559061,-0.1058238446712493,0.0476780831813812,0.207193061709404,walking,2026-03-04_14-04-56
1772633100187037400,3.418037353515625,0.1768257992083206,-0.3474085393086075,-1.816772943601012,-0.0585236214101314,0.1027559638023376,0.3045730888843536,walking,2026-03-04_14-04-56
1772633100196986400,3.427986328125,0.2062949086682871,-0.3649890580542385,-2.0057786811530587,0.0055312640033662,0.1226268783211708,0.4065577685832977,walking,2026-03-04_14-04-56
1772633100206935300,3.437935302734375,0.1274186115585267,-0.5079081672139466,-2.121446795293689,0.0703097209334373,0.1048894226551055,0.4906938076019287,walking,2026-03-04_14-04-56
1772633100216884700,3.447884765625,-0.1116424753537401,-0.7188138941459358,-2.1066279963463543,0.1254347562789917,0.0637539699673652,0.5282949209213257,walking,2026-03-04_14-04-56
1772633100226833700,3.457833740234375,-0.3532564981518313,-0.9570198620662091,-2.0438228728652,0.1619284600019455,0.0133215859532356,0.5304689407348633,walking,2026-03-04_14-04-56
1772633100236782600,3.467782470703125,-0.5137167438948527,-1.12202483856678,-1.9548592257767916,0.1769955605268478,-0.039319522678852,0.5102688670158386,walking,2026-03-04_14-04-56
1772633100246731500,3.4777314453125,-0.7222831046264618,-1.180839723367989,-1.8915023136317728,0.1694424152374267,-0.081339307129383,0.4682165384292602,walking,2026-03-04_14-04-56
1772633100256680400,3.487680419921875,-0.904535349330306,-1.1744386241540312,-1.870375354450941,0.1538514792919159,-0.108289435505867,0.4050756692886352,walking,2026-03-04_14-04-56
1772633100266629400,3.49762939453125,-0.9927674672737716,-1.0532719125971195,-1.881367873108387,0.1314808428287506,-0.1239232942461967,0.3274788558483124,walking,2026-03-04_14-04-56
1772633100276578300,3.507578369140625,-0.9957163802072404,-0.8092121040821075,-1.9144722703307864,0.1130373775959014,-0.1249470114707946,0.2512887418270111,walking,2026-03-04_14-04-56
1772633100286527700,3.51752783203125,-0.8718600642401725,-0.4770690845750272,-2.000652424180508,0.1162434071302414,-0.075868047773838,0.191379114985466,walking,2026-03-04_14-04-56
1772633100296476700,3.5274765625,-0.657559945629537,-0.1038876599758863,-2.057351047480106,0.1375292539596557,-0.0002518496476113,0.1577686965465545,walking,2026-03-04_14-04-56
1772633100306425600,3.537425537109375,-0.3907034911558031,0.2622888542972505,-1.9137679214537144,0.163054808974266,0.0373284220695495,0.1481469720602035,walking,2026-03-04_14-04-56
1772633100316374500,3.54737451171875,-0.1085372028147801,0.5671479994289577,-1.687132418209314,0.1905112117528915,0.0350945629179477,0.1570067852735519,walking,2026-03-04_14-04-56
1772633100326323500,3.557323486328125,0.0766003880670294,0.8062114609614014,-1.4808306779414415,0.2248611003160476,0.0137977562844753,0.1785174906253814,walking,2026-03-04_14-04-56
1772633100336272400,3.5672724609375,0.161544205054827,1.0075085248097777,-1.3030413309305906,0.2600563764572143,0.014520538970828,0.2067113071680069,walking,2026-03-04_14-04-56
1772633100346221600,3.5772216796875,0.1882326708203181,1.111996781027317,-1.194845744627714,0.3070850968360901,0.0894320681691169,0.2430308908224105,walking,2026-03-04_14-04-56
1772633100356170500,3.58717041015625,0.1271347165832295,1.109101936368644,-1.00909871661067,0.3578425645828247,0.2141827940940857,0.2762106955051422,walking,2026-03-04_14-04-56
1772633100366119700,3.59711962890625,0.0370025371721014,1.033500751939416,-0.6256313141882419,0.401045560836792,0.3475062549114227,0.2854246795177459,walking,2026-03-04_14-04-56
1772633100376068600,3.607068603515625,0.0458676518794149,0.8729632762417197,-0.1348532916039228,0.4423402547836303,0.4413659274578094,0.267825186252594,walking,2026-03-04_14-04-56
1772633100386017500,3.617017578125,0.1889080493312329,0.7390861361935734,0.2968278143674135,0.5011840462684631,0.4781147539615631,0.2556337118148803,walking,2026-03-04_14-04-56
1772633100395966500,3.626966552734375,0.3053919368341565,0.6594204788044095,0.7003858186602592,0.5603548884391785,0.4829574525356293,0.2322791218757629,walking,2026-03-04_14-04-56
1772633100405915400,3.636915283203125,0.3828412698807195,0.6598924802303314,1.21051911457777,0.5894901156425476,0.4372686147689819,0.2026299685239792,walking,2026-03-04_14-04-56
1772633100415864600,3.646864501953125,0.4561026862507685,0.663817252458632,1.7196657375454902,0.5790238380432129,0.3260960280895233,0.1699593812227249,walking,2026-03-04_14-04-56
1772633100425813500,3.6568134765625,0.5102905323058367,0.7167457095697521,2.1389806984186173,0.524588942527771,0.1751917600631714,0.1367248892784118,walking,2026-03-04_14-04-56
1772633100435762400,3.666762451171875,0.5427511517319829,0.8089177973106503,2.454455345588922,0.4265042245388031,0.0100068096071481,0.1039440482854843,walking,2026-03-04_14-04-56
1772633100445711600,3.676711669921875,0.522298657746613,0.8330670269221067,2.607220725980401,0.291052907705307,-0.1395286172628402,0.0738112777471542,walking,2026-03-04_14-04-56
1772633100455660500,3.68666064453125,0.5452579469211399,0.8333975740507245,2.468766195014119,0.1474515348672866,-0.217641532421112,0.0590174123644828,walking,2026-03-04_14-04-56
1772633100465609500,3.696609375,0.5250947547385468,0.8890186312466859,2.1551538345843557,0.0140375103801488,-0.225455105304718,0.0554065443575382,walking,2026-03-04_14-04-56
1772633100475558400,3.706558349609375,0.4654554018119349,0.9427975677073002,1.764305089738965,-0.0943606048822403,-0.2240092754364013,0.046055119484663,walking,2026-03-04_14-04-56
1772633100485507600,3.716507568359375,0.3592611453941092,0.9229284996330738,1.291682901570201,-0.1623402535915374,-0.2017888873815536,0.0180297326296567,walking,2026-03-04_14-04-56
1772633100495456500,3.72645654296875,0.1981000579053536,0.9425035531967878,0.9072820176899432,-0.2096486538648605,-0.1845084428787231,-0.0203890297561883,walking,2026-03-04_14-04-56
1772633100505405400,3.736405517578125,0.0544232622461393,0.9957046897694468,0.7169371404886246,-0.2707367241382599,-0.203678160905838,-0.0617919825017452,walking,2026-03-04_14-04-56
1772633100515354600,3.746354736328125,-0.0280103985516354,0.9784522339344024,0.6212362940996885,-0.3529096245765686,-0.246451199054718,-0.1026597917079925,walking,2026-03-04_14-04-56
1772633100525303600,3.756303466796875,-0.0554795298334211,0.9601169512987136,0.4124649488478898,-0.4258297681808471,-0.2672291398048401,-0.140914961695671,walking,2026-03-04_14-04-56
1772633100535252500,3.76625244140625,-0.1280483973620459,1.050225969029963,0.104044896364212,-0.4643015265464782,-0.2383311837911605,-0.1728705018758773,walking,2026-03-04_14-04-56
1772633100545201700,3.77620166015625,-0.0863952579051256,1.2265887903690338,-0.2156213572770357,-0.4662929177284241,-0.1771693974733352,-0.1761815398931503,walking,2026-03-04_14-04-56
1772633100555150600,3.786150634765625,0.0962173080110922,1.369488610306382,-0.4631652085155248,-0.4247002005577087,-0.1032267212867736,-0.1415106505155563,walking,2026-03-04_14-04-56
1772633100565099500,3.796099609375,0.3110596802722662,1.5061574268996714,-0.651127574494481,-0.3404217362403869,-0.0083075445145368,-0.067203864455223,walking,2026-03-04_14-04-56
1772633100575048400,3.80604833984375,0.4860101505953818,1.5662667354255917,-0.659911769452691,-0.2259470969438552,0.0980937331914901,0.0255670845508575,walking,2026-03-04_14-04-56
1772633100584997400,3.815997314453125,0.6100591395903379,1.5067019090399143,-0.4687514842152595,-0.1007907912135124,0.1724983900785446,0.1337861120700836,walking,2026-03-04_14-04-56
1772633100594946600,3.825946533203125,0.7451289234891534,1.4335744212478398,-0.0311386501073837,-0.0079284943640232,0.1966300904750824,0.2497654557228088,walking,2026-03-04_14-04-56
1772633100604895500,3.8358955078125,0.8718812531586736,1.146702768227458,0.5758581062376499,0.0365368500351905,0.1540814787149429,0.3293681740760803,walking,2026-03-04_14-04-56
1772633100614844700,3.8458447265625,0.8878032641075551,0.7489858911782503,1.1358002659410238,0.0367147475481033,0.0520733445882797,0.3673704266548157,walking,2026-03-04_14-04-56
1772633100624793600,3.855793701171875,0.7909794050380587,0.3626248131409287,1.4595926596015691,0.0112364729866385,-0.0479901209473609,0.3655891418457031,walking,2026-03-04_14-04-56
1772633100634743600,3.86574365234375,0.6278599500231444,0.0627186142414808,1.533629371193051,-0.0268025211989879,-0.1154682263731956,0.3372115790843963,walking,2026-03-04_14-04-56
1772633100644692500,3.8756923828125,0.3813494238877669,-0.1645391125544905,1.449559341365099,-0.0679128617048263,-0.1548851728439331,0.280944287776947,walking,2026-03-04_14-04-56
1772633100654641700,3.8856416015625,0.1532574382247403,-0.3461272673264146,1.2522756048113106,-0.1082887798547744,-0.1525314599275589,0.2035075575113296,walking,2026-03-04_14-04-56
1772633100664590600,3.895590576171875,-0.0005229644281789,-0.4421086842224002,1.0318535692542792,-0.149274930357933,-0.1191021725535392,0.1220308020710945,walking,2026-03-04_14-04-56
1772633100674539500,3.90553955078125,-0.1517294249398633,-0.4626914535239338,0.791081404107809,-0.1809937208890915,-0.0601009055972099,0.0358032397925853,walking,2026-03-04_14-04-56
1772633100684488400,3.915488525390625,-0.2119181553775444,-0.4580559026777744,0.5101034853011369,-0.1953921765089035,0.0205071438103914,-0.0392676591873168,walking,2026-03-04_14-04-56
1772633100694437400,3.925437255859375,-0.151233713844791,-0.397777667325735,0.3041542117327451,-0.1908011585474014,0.1044102981686592,-0.0911819860339164,walking,2026-03-04_14-04-56
1772633100704386600,3.935386474609375,-0.068523428062722,-0.3053317310795188,0.2126455563366413,-0.1798093467950821,0.1380983889102935,-0.1276204586029052,walking,2026-03-04_14-04-56
1772633100714335500,3.94533544921875,0.055044207156077,-0.2307639813512563,0.1955202340126037,-0.1638535559177398,0.135098859667778,-0.1417818218469619,walking,2026-03-04_14-04-56
1772633100724284400,3.955284423828125,0.1669078509798273,-0.1849199295431375,0.1506049874871969,-0.1359926015138626,0.1271448731422424,-0.1325432807207107,walking,2026-03-04_14-04-56
1772633100734233600,3.965233642578125,0.2011863334828987,-0.1878127283751964,0.1305459497988224,-0.1083077117800712,0.119912251830101,-0.1197931319475174,walking,2026-03-04_14-04-56
1772633100744182500,3.9751826171875,0.184527788420394,-0.2619230897247791,0.0912502967208623,-0.0801447406411171,0.1222056150436401,-0.1070233881473541,walking,2026-03-04_14-04-56
1772633100754131500,3.98513134765625,0.1731456128582358,-0.3923465821877122,-0.0031166707158088,-0.0432048328220844,0.1536514312028885,-0.0861785560846328,walking,2026-03-04_14-04-56
1772633100764080600,3.99508056640625,0.1440192889539525,-0.5482473379954695,-0.0142938982903957,-0.0044761789031326,0.1996316611766815,-0.0636302754282951,walking,2026-03-04_14-04-56
1772633100774029600,4.005029541015625,0.0680677567170932,-0.75845134639889,0.1031599302232265,0.0279051978141069,0.2205369472503662,-0.0576269812881946,walking,2026-03-04_14-04-56
1772633100783978500,4.014978515625,-0.0101272801302373,-1.0034355762824416,0.3779360717803239,0.0347662642598152,0.193616583943367,-0.0788256675004959,walking,2026-03-04_14-04-56
1772633100793927400,4.024927490234375,-0.070771280054748,-1.282857497818768,0.6590057605236769,0.0220025330781936,0.1192944198846817,-0.1171671971678733,walking,2026-03-04_14-04-56
1772633100803876400,4.03487646484375,-0.0937074440820142,-1.4984677491798997,0.7590572033375501,0.0016213208436965,0.0145468460395932,-0.1688350737094879,walking,2026-03-04_14-04-56
1772633100813825500,4.044825439453125,0.0236166936373338,-1.5661305418252944,0.6344225234091282,-0.0003635333850979,-0.0677059516310691,-0.2132472842931747,walking,2026-03-04_14-04-56
1772633100823774500,4.0547744140625,0.1747221414599567,-1.553766442553699,0.4051782989710569,0.0075803184881806,-0.1182834133505821,-0.2292571514844894,walking,2026-03-04_14-04-56
1772633100833723600,4.0647236328125,0.3375857585502788,-1.4524132694914935,0.2012000332146883,0.0138017293065786,-0.1485494375228881,-0.2212921679019928,walking,2026-03-04_14-04-56
1772633100843672600,4.074672607421875,0.4690821044091135,-1.341311148092151,0.0543482607811689,0.0130680035799741,-0.1896503418684005,-0.1991176456212997,walking,2026-03-04_14-04-56
1772633100853621500,4.08462158203125,0.556725645342283,-1.2252429287180304,-0.067791095200181,0.0054404446855187,-0.2337070107460022,-0.1781990528106689,walking,2026-03-04_14-04-56
1772633100863570400,4.0945703125,0.5610820139208809,-1.1286577007099985,-0.3189163120567798,0.0026423609815537,-0.2574431896209717,-0.1550080776214599,walking,2026-03-04_14-04-56
1772633100873519400,4.104519287109375,0.5800719976056367,-1.0136392826497551,-0.6725777742803096,0.0209571868181228,-0.2427750378847122,-0.1231305673718452,walking,2026-03-04_14-04-56
1772633100883468500,4.114468505859375,0.5731847223099321,-0.901864668816328,-1.0508049379616975,0.0603028684854507,-0.1871219873428344,-0.0856209471821785,walking,2026-03-04_14-04-56
1772633100893417500,4.12441748046875,0.5840191643288358,-0.8948454377040267,-1.350843531069159,0.1275008171796798,-0.0908822789788246,-0.0464615635573864,walking,2026-03-04_14-04-56
1772633100903366700,4.13436669921875,0.6993433238700032,-0.9753899237543344,-1.478006268170476,0.2084028869867324,-0.0011829533614218,-0.0116478251293301,walking,2026-03-04_14-04-56
1772633100913315600,4.144315673828125,0.8170759693250059,-1.047031849163771,-1.372456227940321,0.286082774400711,0.043219931423664,0.0137390242889523,walking,2026-03-04_14-04-56
1772633100923264500,4.154264404296875,0.8896337674703448,-1.1134726987987755,-1.0584949079424142,0.3378327786922455,0.0375774279236793,0.0277214888483285,walking,2026-03-04_14-04-56
1772633100933213400,4.16421337890625,0.8724717663977295,-1.181878711026907,-0.7174328150510788,0.3558655679225921,-0.0078880554065108,0.0153921190649271,walking,2026-03-04_14-04-56
1772633100943162400,4.174162353515625,0.6957054788243026,-1.1948565582826731,-0.4868441902667283,0.3356775045394897,-0.0367826968431472,-0.0336659140884876,walking,2026-03-04_14-04-56
1772633100953111300,4.184111328125,0.4133001575630158,-1.104957091648877,-0.4382417796611785,0.2941777408123016,-0.022354757413268,-0.0940467044711113,walking,2026-03-04_14-04-56
1772633100963060700,4.194060791015625,0.3793344308035448,-0.8526610774472355,-0.3175876938015222,0.2200944274663925,-0.0212525352835655,-0.1355022937059402,walking,2026-03-04_14-04-56
1772633100973009700,4.204009765625,0.457969466503337,-0.6679191348195076,-0.2787953140705824,0.1251535415649414,-0.0152753368020057,-0.1483509838581085,walking,2026-03-04_14-04-56
1772633100982958600,4.21395849609375,0.4444308435596525,-0.3719108201414347,-0.2310755315184593,0.0113821141421794,-0.0249501056969165,-0.1601208001375198,walking,2026-03-04_14-04-56
1772633100992907500,4.223907470703125,0.2939332985023036,-0.0446513348922133,-0.2350327447116375,-0.1281400918960571,-0.0588638633489608,-0.1792984902858734,walking,2026-03-04_14-04-56
1772633101002856400,4.2338564453125,0.0948919776914641,0.2582061150282621,-0.340430809250474,-0.2691159844398498,-0.1192165836691856,-0.1987227797508239,walking,2026-03-04_14-04-56
1772633101012805400,4.243805419921875,-0.1501156330676749,0.5949398233264684,-0.6845481980592012,-0.3733414709568023,-0.1802599728107452,-0.2197263389825821,walking,2026-03-04_14-04-56
1772633101022754300,4.25375439453125,-0.5001388483867049,0.9620181087449192,-1.2196902630269526,-0.4268334805965423,-0.2233806550502777,-0.2574170231819153,walking,2026-03-04_14-04-56
1772633101032703500,4.263703369140625,-0.8073680836506187,1.386546128091216,-1.7473253133654594,-0.4102542400360107,-0.2646567225456238,-0.3043387234210968,walking,2026-03-04_14-04-56
1772633101042652700,4.273652587890625,-0.9060007457077502,1.8028706749767065,-2.193423651745915,-0.3363657891750335,-0.3048171699047088,-0.3364188373088836,walking,2026-03-04_14-04-56
1772633101052600800,4.283600830078125,-0.8763589100293815,2.1315569781586525,-2.497531101727485,-0.2124624997377395,-0.2398586720228195,-0.3269504904747009,walking,2026-03-04_14-04-56
1772633101062550000,4.293550048828125,-0.7227739568833261,2.423523031708598,-2.611085000193119,-0.0566828027367591,-0.092611014842987,-0.2633907794952392,walking,2026-03-04_14-04-56
1772633101072499000,4.3034990234375,-0.4355640483519062,2.502136549696326,-2.532932085454464,0.1252057701349258,0.0998684167861938,-0.1451576054096222,walking,2026-03-04_14-04-56
1772633101082448100,4.3134482421875,-0.2848575001863762,2.45970084502697,-2.0897399899095297,0.3028453886508941,0.2860833406448364,-0.016982240602374,walking,2026-03-04_14-04-56
1772633101092397000,4.32339697265625,-0.3473564072625711,2.354642387706041,-1.2703706489503384,0.4189203381538391,0.4009449183940887,0.0997150838375091,walking,2026-03-04_14-04-56
1772633101102346000,4.333345947265625,-0.4549692983066662,1.9937948133707049,-0.2459557052642106,0.4555239975452423,0.41512131690979,0.1578021198511123,walking,2026-03-04_14-04-56
1772633101112295000,4.343294921875,-0.5685626885324716,1.4332815757811068,0.5538479344815015,0.4523566961288452,0.3688385188579559,0.1712193936109542,walking,2026-03-04_14-04-56
1772633101122243800,4.353243896484375,-0.7792280308373272,1.0119973606616255,1.0045411994367837,0.4231825470924377,0.2870672047138214,0.1346547305583953,walking,2026-03-04_14-04-56
1772633101132193000,4.363193115234375,-1.078096557252109,0.7750669656351208,1.3301233991235497,0.3662265837192535,0.1645359694957733,0.041292019188404,walking,2026-03-04_14-04-56
1772633101142142000,4.373141845703125,-1.2540909836702048,0.5843944639146328,1.4388053076386451,0.2894307374954223,0.0493090860545635,-0.0795802399516105,walking,2026-03-04_14-04-56
1772633101152091100,4.383091064453125,-1.2908270153932273,0.3885001358926296,1.3985726659715174,0.2063422501087188,-0.0243438314646482,-0.219108298420906,walking,2026-03-04_14-04-56
1772633101162040000,4.3930400390625,-1.2273895853579044,0.2987050064161419,1.2483160535305735,0.1260391771793365,-0.050701804459095,-0.3335164487361908,walking,2026-03-04_14-04-56
1772633101171990000,4.402989990234375,-1.047461765013635,0.3969569985926151,1.0006377622574567,0.0538416765630245,-0.0302258264273405,-0.3955481350421905,walking,2026-03-04_14-04-56
1772633101181939000,4.41293896484375,-0.8031432324972003,0.5853232691973448,0.8643974002093077,-0.0210369862616062,0.004624274559319,-0.3956686556339264,walking,2026-03-04_14-04-56
1772633101191888100,4.42288818359375,-0.5903173511575908,0.7114671846449375,0.7590168713271618,-0.0978627875447273,0.0123823294416069,-0.3633959293365478,walking,2026-03-04_14-04-56
1772633101201837000,4.432837158203125,-0.4503803265485912,0.753296447853744,0.6598270137786865,-0.1621367037296295,-0.0023069088347256,-0.3238600492477417,walking,2026-03-04_14-04-56
1772633101211786000,4.442785888671875,-0.3676386957801878,0.7320926240444183,0.4573720120668411,-0.1902045458555221,-0.000175581080839,-0.2808747589588165,walking,2026-03-04_14-04-56
1772633101221735000,4.45273486328125,-0.312078538458608,0.693071696254611,0.2196504666626453,-0.184269294142723,0.0155552793294191,-0.2356166392564773,walking,2026-03-04_14-04-56
1772633101231684000,4.46268408203125,-0.3251248843733221,0.6244736685857176,0.0681312869399786,-0.1475365757942199,0.0336575843393802,-0.1988466382026672,walking,2026-03-04_14-04-56
1772633101241633000,4.472633056640625,-0.3250274153482169,0.5022632931947708,0.0295195244729518,-0.0909102633595466,0.0506303645670414,-0.1692129969596862,walking,2026-03-04_14-04-56
1772633101251582000,4.48258203125,-0.2649854729700833,0.3853472248196601,0.15481412961483,-0.036409743130207,0.047185830771923,-0.1479769498109817,walking,2026-03-04_14-04-56
1772633101261531000,4.49253076171875,-0.2045719208005815,0.2427764907062053,0.3483528344213962,0.0049767885357141,0.0239788591861724,-0.1282131224870681,walking,2026-03-04_14-04-56
1772633101271480000,4.50247998046875,-0.1081256628718227,0.1226379531532526,0.5379448474287987,0.0399150662124156,0.0234491564333438,-0.101730115711689,walking,2026-03-04_14-04-56
1772633101281429000,4.512428955078125,-0.0469055435597896,0.0492877625212073,0.7584048769086599,0.0605472475290298,0.0390969887375831,-0.0685119107365608,walking,2026-03-04_14-04-56
1772633101291378000,4.5223779296875,-0.0467013262245804,-0.039853286960721,1.0621464161872862,0.0436763875186443,0.022083917632699,-0.0475544296205043,walking,2026-03-04_14-04-56
1772633101301327000,4.5323271484375,-0.104093777007237,-0.2073328368812799,1.3156763560980558,0.0038781180046498,0.0023341805208474,-0.0426032803952693,walking,2026-03-04_14-04-56
1772633101311276000,4.542276123046875,-0.1390057351082563,-0.3922676717326044,1.4000497527867557,-0.0376147329807281,0.0152670238167047,-0.0454581901431083,walking,2026-03-04_14-04-56
1772633101321225000,4.552224853515625,-0.1923359048880636,-0.4844982116624712,1.4720961673438548,-0.0814151912927627,0.0272768773138523,-0.0498665608465671,walking,2026-03-04_14-04-56
1772633101331174000,4.562173828125,-0.3286477978024631,-0.5842416114404797,1.5687509534567594,-0.1470969915390014,0.001322773983702,-0.0760590136051178,walking,2026-03-04_14-04-56
1772633101341122800,4.572122802734375,-0.4199913257647305,-0.7226800680547952,1.4854349568665026,-0.1951406896114349,-0.0148087916895747,-0.1170543804764747,walking,2026-03-04_14-04-56
1772633101351072000,4.582072021484375,-0.4389377991013228,-0.7628188939586281,1.2692203098714352,-0.2153649926185608,-0.0080044148489832,-0.1609512716531753,walking,2026-03-04_14-04-56
1772633101361021000,4.59202099609375,-0.4350207717880606,-0.6471636392995714,1.1566904937565323,-0.2332915216684341,-0.0225651878863573,-0.1869410276412964,walking,2026-03-04_14-04-56
1772633101370970000,4.60197021484375,-0.3666407707840204,-0.4993751705378293,1.1249749205440285,-0.2566826045513153,-0.0802481919527053,-0.1982828974723816,walking,2026-03-04_14-04-56
1772633101380919000,4.6119189453125,-0.2392871872857213,-0.3579074292302131,0.9822194775134324,-0.2645706236362457,-0.1289123892784118,-0.1809149831533432,walking,2026-03-04_14-04-56
1772633101390868000,4.621867919921875,-0.1224041443973779,-0.2056295400947332,0.7474006678134203,-0.2586554586887359,-0.1407160609960556,-0.140465572476387,walking,2026-03-04_14-04-56
1772633101400817000,4.63181689453125,-0.1097575749225914,-0.0755716660737991,0.5892705455183983,-0.2586069107055664,-0.1500973254442215,-0.0956512838602066,walking,2026-03-04_14-04-56
1772633101410765800,4.641765869140625,-0.0802781632643193,-0.0560989038407802,0.4454787451773881,-0.2478610575199127,-0.1451174765825271,-0.0467087738215923,walking,2026-03-04_14-04-56
1772633101420715000,4.651715087890625,-0.0573277149833738,-0.0490162521034479,0.2069172418177127,-0.2185659855604171,-0.123781181871891,0.005966942757368,walking,2026-03-04_14-04-56
1772633101430664000,4.661663818359375,-0.0907883052323013,-0.017737901264429,0.0223597158461809,-0.1682916283607483,-0.0969538316130638,0.0574943162500858,walking,2026-03-04_14-04-56
1772633101440613000,4.671613037109375,-0.1233938130218535,-0.0164870244204998,-0.0666214668989181,-0.1141177490353584,-0.0576342865824699,0.1090969964861869,walking,2026-03-04_14-04-56
1772633101450562000,4.68156201171875,-0.0747345941951498,-0.1098025831080973,-0.0536427428603172,-0.0639355331659317,-0.0031356238760054,0.1564322859048843,walking,2026-03-04_14-04-56
1772633101460511000,4.691510986328125,-0.1085549941997975,-0.2011192230634391,0.0292746098011732,-0.0255506541579961,0.0516499429941177,0.190946564078331,walking,2026-03-04_14-04-56
1772633101470460000,4.7014599609375,-0.1886505674388259,-0.3238124135352671,0.2196931367605924,-0.0068235718645155,0.1009847372770309,0.209903210401535,walking,2026-03-04_14-04-56
1772633101480408800,4.711408935546875,-0.1639865567056462,-0.4788055529788136,0.4616799383938312,-0.0064912741072475,0.1273386627435684,0.217292234301567,walking,2026-03-04_14-04-56
1772633101490357800,4.721357666015625,-0.127309525160864,-0.5832837261937558,0.7038175466746092,-0.0204414445906877,0.1111548915505409,0.2229391932487487,walking,2026-03-04_14-04-56
1772633101500307200,4.73130712890625,-0.1436849059004336,-0.6579752484321594,0.8190922775834798,-0.0391333065927028,0.0615270733833313,0.219481274485588,walking,2026-03-04_14-04-56
1772633101510256000,4.741256103515625,-0.1125784775622188,-0.7573204426728188,0.7336597272306681,-0.0349827706813812,0.0022360535804182,0.2045262902975082,walking,2026-03-04_14-04-56
1772633101520205000,4.751205078125,-0.0849568591324612,-0.7929043817512691,0.471632008087635,0.0006455057300627,-0.0450854524970054,0.188919335603714,walking,2026-03-04_14-04-56
1772633101530154000,4.761154052734375,-0.0325405527945607,-0.7675714953131973,0.1947884126067161,0.0457930080592632,-0.0914995521306991,0.1820103079080581,walking,2026-03-04_14-04-56
1772633101540103000,4.77110302734375,-0.0063646031284704,-0.7582333197340368,0.020927052694559,0.0650971233844757,-0.137239322066307,0.181311085820198,walking,2026-03-04_14-04-56
1772633101550051800,4.7810517578125,-0.0658396688714623,-0.7524529827669263,-0.064562780803442,0.0466541983187198,-0.1887959837913513,0.1772071421146392,walking,2026-03-04_14-04-56
1772633101560001000,4.7910009765625,-0.2589787068359553,-0.776387108322978,-0.2421235797554254,0.0027065682224929,-0.2168387174606323,0.1566036343574524,walking,2026-03-04_14-04-56
1772633101569950000,4.800949951171875,-0.517130242132768,-0.762597360162437,-0.5893529631048441,-0.0416696853935718,-0.1880456805229187,0.1200000792741775,walking,2026-03-04_14-04-56
1772633101579899100,4.810899169921875,-0.6810225081510841,-0.6961144249513745,-1.0449468595832585,-0.0736273750662803,-0.1056110486388206,0.0823199599981308,walking,2026-03-04_14-04-56
1772633101589848000,4.82084814453125,-0.6828309458125382,-0.6406127563513815,-1.371158004823327,-0.0888334885239601,0.035798542201519,0.0718026012182235,walking,2026-03-04_14-04-56
1772633101599797000,4.830796875,-0.5871589967245235,-0.5981533785454929,-1.6260171475112437,-0.0807147994637489,0.2075022459030151,0.0909873694181442,walking,2026-03-04_14-04-56
1772633101609746000,4.840745849609375,-0.4387431898446753,-0.563662641531229,-1.6339064394563436,-0.0571186617016792,0.3117048144340515,0.1307387799024582,walking,2026-03-04_14-04-56
1772633101619694800,4.85069482421875,-0.2068630639450624,-0.6210809574075042,-1.46609955727756,-0.0268045924603939,0.3125999569892883,0.1840578466653823,walking,2026-03-04_14-04-56
1772633101629644000,4.86064404296875,-0.0998185839060693,-0.6942373790331184,-1.2051105335325003,-0.0029456005431711,0.2171623706817627,0.225568801164627,walking,2026-03-04_14-04-56
1772633101639593000,4.870593017578125,-0.1058997304506599,-0.8077467077046633,-1.0426146172434092,0.0102697685360908,0.0689209103584289,0.2538063824176788,walking,2026-03-04_14-04-56
1772633101649542100,4.880542236328125,-0.2231981857394799,-0.9342748001642524,-1.0639549269139763,0.0192874986678361,-0.0528164394199848,0.2595601379871368,walking,2026-03-04_14-04-56
1772633101659491000,4.890490966796875,-0.4513107392664998,-0.9954162282168864,-1.2089531804352998,0.0225845277309417,-0.1205570772290229,0.234835535287857,walking,2026-03-04_14-04-56
1772633101669440000,4.90043994140625,-0.6584089636743068,-0.9508701072648168,-1.3719377570241689,0.0174651332199573,-0.1546769589185714,0.1912784725427627,walking,2026-03-04_14-04-56
1772633101679389000,4.910388916015625,-0.7924709587700665,-0.8379236731730401,-1.5013070642590522,0.0090004745870828,-0.1500570923089981,0.1373692452907562,walking,2026-03-04_14-04-56
1772633101689337900,4.920337890625,-0.898093991171196,-0.659410980323702,-1.611605760321021,-0.0022670933976769,-0.1033063679933548,0.0866200402379036,walking,2026-03-04_14-04-56
1772633101699287000,4.930287109375,-0.8662134366553276,-0.4221747342184185,-1.622394865360856,-0.0160020962357521,-0.0445214137434959,0.0370249301195144,walking,2026-03-04_14-04-56
1772633101709236000,4.940236083984375,-0.7174415098141879,-0.2228865259744226,-1.5034212799340485,-0.0382858291268348,-0.0027049905620515,0.0010405641514807,walking,2026-03-04_14-04-56
1772633101719185000,4.950184814453125,-0.5355986496288329,-0.0386998791418969,-1.3133178102731704,-0.071552850306034,0.0113382264971733,-0.0375162102282047,walking,2026-03-04_14-04-56
1772633101729134000,4.960134033203125,-0.4565868165059015,0.1325118430443108,-1.0958861887037754,-0.1305453330278396,-0.0289202481508255,-0.0830994099378585,walking,2026-03-04_14-04-56
1772633101739084000,4.970083984375,-0.4513158173004165,0.3129622259579598,-0.9517062658280132,-0.1960412561893463,-0.0931171402335167,-0.1326298117637634,walking,2026-03-04_14-04-56
1772633101749032000,4.980031982421875,-0.3667774027757346,0.4732411968499422,-1.101596967566013,-0.2212946861982345,-0.1095395237207412,-0.1662096083164215,walking,2026-03-04_14-04-56
1772633101758982000,4.98998193359375,-0.1946250752711668,0.6991387412086129,-1.3887304863929748,-0.1877440214157104,-0.0712888464331626,-0.1683152765035629,walking,2026-03-04_14-04-56
1772633101768930800,4.999930908203125,0.0188416612552478,0.8922621432125568,-1.649407375448942,-0.087308757007122,0.0359393395483493,-0.1386559158563614,walking,2026-03-04_14-04-56
1772633101778880000,5.0098798828125,0.2489817385545,1.0390690535910427,-1.7187854475796225,0.0563987642526626,0.1806325614452362,-0.0837549194693565,walking,2026-03-04_14-04-56
1772633101788829200,5.0198291015625,0.4371032771505415,1.0999417477048934,-1.529504400217533,0.2183804810047149,0.3254059851169586,-0.0184193272143602,walking,2026-03-04_14-04-56
1772633101798778000,5.029778076171875,0.5465994611905888,1.1061952551417051,-1.0247527973383666,0.3644066452980041,0.4136738181114197,0.0399807654321193,walking,2026-03-04_14-04-56
1772633101808727000,5.03972705078125,0.6063669705415144,1.0718895193055271,-0.2522293787062168,0.4643119275569916,0.4409698843955993,0.0863352119922638,walking,2026-03-04_14-04-56
1772633101818676000,5.049676025390625,0.6107945411927997,0.971815280137956,0.441083140566945,0.520907998085022,0.4180495142936706,0.119501456618309,walking,2026-03-04_14-04-56
1772633101828625000,5.059625,0.5880212761096656,0.9538692890807986,1.0507938320457937,0.5373674035072327,0.3169071674346924,0.1165565326809883,walking,2026-03-04_14-04-56
1772633101838573800,5.06957373046875,0.5445674073737115,1.017761331015825,1.580333254700899,0.5037888288497925,0.1852742433547973,0.0927313566207885,walking,2026-03-04_14-04-56
1772633101848523000,5.07952294921875,0.51336161031425,1.0934168759807943,1.9139169745355844,0.4331777393817901,0.0417687520384788,0.062569722533226,walking,2026-03-04_14-04-56
1772633101858472000,5.089471923828125,0.5491543698377906,1.1903782438248396,2.1360563354045152,0.3212553858757019,-0.0872079133987426,0.0421613156795501,walking,2026-03-04_14-04-56
1772633101868421000,5.099421142578125,0.521361888353154,1.2400135046094656,2.116250980216265,0.1884115785360336,-0.1161037385463714,0.0260979272425174,walking,2026-03-04_14-04-56
1772633101878370000,5.1093701171875,0.4397181358240544,1.3696785799205302,1.8512310935199257,0.0580316111445426,-0.1080262139439582,0.0433497838675975,walking,2026-03-04_14-04-56
1772633101888319000,5.119319091796875,0.4050345796514302,1.3577084484025834,1.5849328574508428,-0.0627717748284339,-0.1119234785437583,0.0487879589200019,walking,2026-03-04_14-04-56
1772633101898268000,5.129267822265625,0.1605474125698208,1.397950734680891,1.356449095991254,-0.1615609675645828,-0.1627419888973236,0.0258844755589962,walking,2026-03-04_14-04-56
1772633101908216800,5.139216796875,-0.1074385573904961,1.36942752776891,1.0340922880917789,-0.2381817102432251,-0.2498427927494049,-0.0282480008900165,walking,2026-03-04_14-04-56
1772633101918166000,5.149166015625,-0.3353152928676456,1.2495002948790788,0.5561000973224639,-0.2905712723731994,-0.3125364482402801,-0.1033680513501167,walking,2026-03-04_14-04-56
1772633101928115000,5.159114990234375,-0.5552994119314476,1.2513102669104934,0.0761345606535673,-0.3229430615901947,-0.3252114951610565,-0.1897253096103668,walking,2026-03-04_14-04-56
1772633101938064000,5.16906396484375,-0.6327439957376569,1.2927470236703753,-0.3167377989739179,-0.347678929567337,-0.2856616377830505,-0.2718145847320556,walking,2026-03-04_14-04-56
1772633101948013000,5.179012939453125,-0.4938276924785226,1.3796969928488134,-0.5701660320758819,-0.3501434028148651,-0.1873435974121093,-0.3207608163356781,walking,2026-03-04_14-04-56
1772633101957962000,5.1889619140625,-0.2074904020631685,1.4680606282174586,-0.7992512665599584,-0.3184759318828583,-0.0515779294073581,-0.3113998770713806,walking,2026-03-04_14-04-56
1772633101967911000,5.198910888671875,0.1443110019095242,1.5952555140227078,-0.896327492955327,-0.2537067830562591,0.0751635059714317,-0.2484054416418075,walking,2026-03-04_14-04-56
1772633101977860000,5.208860107421875,0.4917603481525555,1.6582146590217948,-0.7914578362047672,-0.1683668196201324,0.1511667221784591,-0.1385207325220108,walking,2026-03-04_14-04-56
1772633101987809000,5.21880908203125,0.7580613972332328,1.6228075378149749,-0.5662357068896293,-0.0809096843004226,0.1775631755590438,-0.0223451294004917,walking,2026-03-04_14-04-56
1772633101997758000,5.228758056640625,0.7965189189866184,1.4695285088129342,-0.1638023227125406,-0.0203697197139263,0.1543164551258087,0.0734628438949585,walking,2026-03-04_14-04-56
1772633102007707000,5.238706787109375,0.7060882680855691,1.1313983777202663,0.2720458398103714,0.0047082044184207,0.1145280376076698,0.1340577453374862,walking,2026-03-04_14-04-56
1772633102017656000,5.248656005859375,0.578272693098709,0.7587484296493232,0.6481652175575494,-0.0028415783308446,0.0903710946440696,0.1606320589780807,walking,2026-03-04_14-04-56
1772633102027605000,5.25860498046875,0.4706019709201529,0.4561863094136119,0.9831032746106384,-0.0343118868768215,0.0820058360695838,0.1717318445444107,walking,2026-03-04_14-04-56
1772633102037554000,5.268553955078125,0.4455885256947949,0.2251398578591644,1.2793711170077322,-0.0878377631306648,0.0594920292496681,0.181209534406662,walking,2026-03-04_14-04-56
1772633102047503000,5.278503173828125,0.4724886979822069,0.0764398272104561,1.4714567003965378,-0.1472566127777099,0.0079614603891968,0.1856895089149475,walking,2026-03-04_14-04-56
1772633102057452000,5.2884521484375,0.4253540583742782,-0.0638473260104656,1.4878759202778338,-0.1975946575403213,-0.0497671440243721,0.182087630033493,walking,2026-03-04_14-04-56
1772633102067401000,5.29840087890625,0.2614618654211983,-0.1767534280918538,1.3352145847827197,-0.2329537123441696,-0.111883245408535,0.151884987950325,walking,2026-03-04_14-04-56
1772633102077972000,5.308971923828125,0.1433429240623489,-0.2606970550611615,1.212524609181285,-0.253419429063797,-0.1635998040437698,0.0967056006193161,walking,2026-03-04_14-04-56
1772633102087921000,5.3189208984375,-0.0494074799107387,-0.3695031744778156,0.8791121542602777,-0.2448584139347076,-0.1704792827367782,0.0237815920263528,walking,2026-03-04_14-04-56
1772633102097869800,5.328869873046875,-0.2466844944627955,-0.5058209856763481,0.3560007188260555,-0.2081575691699981,-0.1155067980289459,-0.0548233985900878,walking,2026-03-04_14-04-56
1772633102107818800,5.33881884765625,-0.254302312522754,-0.4266108169697225,-0.0084580317437648,-0.1444393098354339,-0.0431732200086116,-0.110103964805603,walking,2026-03-04_14-04-56
1772633102117768000,5.348767822265625,-0.1902106563623994,-0.364490168621391,-0.1640671111285686,-0.0768840461969375,0.0332081243395805,-0.1463673710823059,walking,2026-03-04_14-04-56
1772633102127716900,5.358716796875,-0.0516656706336885,-0.3767924547031521,-0.125565238776803,-0.0220309197902679,0.0805522054433822,-0.1696077138185501,walking,2026-03-04_14-04-56
1772633102137665800,5.368665771484375,0.0643556773914024,-0.4073972901947796,0.0199269357413053,0.004150167107582,0.1253585368394851,-0.1916655749082565,walking,2026-03-04_14-04-56
1772633102147615000,5.378614990234375,0.1341325395813211,-0.41097266446352,0.2470288874536752,0.0079877823591232,0.1474641114473343,-0.196782037615776,walking,2026-03-04_14-04-56
1772633102157564000,5.38856396484375,0.216376303830184,-0.4409603909701108,0.4002987102359533,0.0045926235616207,0.1507491469383239,-0.1935470104217529,walking,2026-03-04_14-04-56
1772633102167512800,5.398512939453125,0.2964179183922708,-0.4999522397734224,0.4197293868929147,0.0165630001574754,0.1349344998598098,-0.188066765666008,walking,2026-03-04_14-04-56
1772633102177461800,5.408461669921875,0.3584942161422222,-0.5327620379634201,0.3742605981379747,0.0509824864566326,0.0993754491209983,-0.1787360161542892,walking,2026-03-04_14-04-56
1772633102187411000,5.418410888671875,0.4012597372878342,-0.6269887201465666,0.3214958071559667,0.0987569317221641,0.0564450249075889,-0.1715302914381027,walking,2026-03-04_14-04-56
1772633102197359900,5.42835986328125,0.3920714915733784,-0.7241564242176711,0.2860644282907247,0.1537195146083831,0.0079336203634738,-0.1743990182876587,walking,2026-03-04_14-04-56
1772633102207308800,5.438308837890625,0.3762713534384965,-0.8245490816846489,0.3164326785475015,0.1919739544391632,-0.0423641726374626,-0.1867869794368744,walking,2026-03-04_14-04-56
1772633102217257700,5.4482578125,0.3651872109748423,-0.9407556866161524,0.3537678452074527,0.2060607671737671,-0.0790421664714813,-0.202918455004692,walking,2026-03-04_14-04-56
1772633102227207000,5.45820703125,0.3969624054200947,-1.053221351453662,0.3946984060108661,0.1942283362150192,-0.1066591516137123,-0.2060322165489196,walking,2026-03-04_14-04-56
1772633102237155800,5.46815576171875,0.4694673043344169,-1.11170671203956,0.408615287682414,0.158468559384346,-0.1235342919826507,-0.2058052718639373,walking,2026-03-04_14-04-56
1772633102247104800,5.478104736328125,0.4638576477590948,-1.131511482705921,0.3588262976408004,0.1060040295124054,-0.1345091760158538,-0.2091254442930221,walking,2026-03-04_14-04-56
1772633102257054000,5.488053955078125,0.4157916090525686,-1.1457318773686884,0.2966536268442869,0.0343379713594913,-0.1457768529653549,-0.2207165211439132,walking,2026-03-04_14-04-56
1772633102267003000,5.4980029296875,0.4202090601686388,-1.1359599865473806,0.1747170999586582,-0.0421277731657028,-0.1719541251659393,-0.2327883690595626,walking,2026-03-04_14-04-56
1772633102276951800,5.507951904296875,0.4502213365945964,-1.037490113836527,-0.1066828436523675,-0.0887891426682472,-0.1934187561273574,-0.2315802723169326,walking,2026-03-04_14-04-56
1772633102286900700,5.517900634765625,0.5423952509663998,-0.8574220082387327,-0.6671300302684307,-0.0709054842591285,-0.1714695245027542,-0.1995139569044113,walking,2026-03-04_14-04-56
1772633102296850000,5.527849853515625,0.6522650540918111,-0.6333683381810784,-1.1954396188676355,0.0032084733247756,-0.1172168180346489,-0.1415030658245086,walking,2026-03-04_14-04-56
1772633102306799900,5.5377998046875,0.7784707827292382,-0.5224114704713225,-1.394656369310617,0.0805573239922523,-0.0493184626102447,-0.0803518295288086,walking,2026-03-04_14-04-56
1772633102316748800,5.547748779296875,1.0435216490857302,-0.6411759431920945,-1.3485031054228545,0.1536446809768676,-0.0160813722759485,0.0077821006998419,walking,2026-03-04_14-04-56
1772633102326697700,5.55769775390625,1.2079321668244898,-0.710169107658416,-1.1839642851293086,0.2101359218358993,-0.0206548199057579,0.0836731344461441,walking,2026-03-04_14-04-56
1772633102336647000,5.56764697265625,1.1277592905655502,-0.7246221420332789,-0.9352882149904966,0.2425886392593383,-0.0510184429585933,0.130238190293312,walking,2026-03-04_14-04-56
1772633102346595800,5.577595947265625,1.0301382897689937,-0.8749101725257933,-0.7509153979361057,0.2566887438297272,-0.0986501425504684,0.1561115980148315,walking,2026-03-04_14-04-56
1772633102356544800,5.587544677734375,0.8096721228092908,-0.9477283021077512,-0.6930576677292585,0.2565644383430481,-0.1556748300790786,0.148681953549385,walking,2026-03-04_14-04-56
1772633102366494000,5.597493896484375,0.5010872716853395,-0.8688707462310791,-0.7615075190991163,0.2602052688598633,-0.1846276521682739,0.1272536218166351,walking,2026-03-04_14-04-56
1772633102376443000,5.60744287109375,0.3159505941189825,-0.7329857734918593,-0.9135784874856472,0.2625903785228729,-0.1807658672332763,0.1107024848461151,walking,2026-03-04_14-04-56
1772633102386391800,5.617391845703125,0.1917658133825287,-0.5570452692180872,-0.9686211602717636,0.2499467432498932,-0.1660207360982895,0.1059876233339309,walking,2026-03-04_14-04-56
1772633102396340700,5.6273408203125,0.0990184465043246,-0.3374213983014226,-0.8813105410873889,0.2093153297901153,-0.1597074270248413,0.1093730926513671,walking,2026-03-04_14-04-56
1772633102406290000,5.6372900390625,-0.0168218458654359,-0.1994786162495612,-0.7254454411149025,0.1392195969820022,-0.1781064122915268,0.1121174767613411,walking,2026-03-04_14-04-56
1772633102416238800,5.64723876953125,-0.2363761586772277,-0.1118701831623911,-0.6230605869174003,0.0405210740864276,-0.2172543555498123,0.0843916162848472,walking,2026-03-04_14-04-56
1772633102426808800,5.657808837890625,-0.4774205283612012,-0.0072030632466077,-0.7435504221260547,-0.0594633109867572,-0.2441110163927078,0.0373391546308994,walking,2026-03-04_14-04-56
1772633102436757800,5.6677578125,-0.5578823045641184,0.1492602948799729,-1.086923714569211,-0.1180353909730911,-0.2538510262966156,-0.0092563852667808,walking,2026-03-04_14-04-56
1772633102446706700,5.677706787109375,-0.580605812221393,0.3876730374187231,-1.4970488222926854,-0.1354463398456573,-0.2430005222558975,-0.0392963103950023,walking,2026-03-04_14-04-56
1772633102456655600,5.687655517578125,-0.6396360202737152,0.7694961797654628,-1.828370442414284,-0.1139311492443084,-0.2205603867769241,-0.0634681284427642,walking,2026-03-04_14-04-56
1772633102466605000,5.69760498046875,-0.7023874408062547,1.115907524730265,-2.03774326069057,-0.063455730676651,-0.1704266518354416,-0.0823392868041992,walking,2026-03-04_14-04-56
1772633102476554000,5.707553955078125,-0.6371006565771996,1.3985539612710476,-2.1931471728920937,0.0272821523249149,-0.0997681990265846,-0.0820802301168441,walking,2026-03-04_14-04-56
1772633102486503000,5.7175029296875,-0.4876505016809329,1.6925673027396202,-2.291128239172697,0.1609257012605667,0.0093295285478234,-0.046978436410427,walking,2026-03-04_14-04-56
1772633102496451800,5.727451904296875,-0.3199563226290047,1.938421885716915,-2.151780558758974,0.3143673241138458,0.1311487406492233,0.012351669371128,walking,2026-03-04_14-04-56
1772633102506400800,5.73740087890625,-0.2143174716042354,2.0571169464632866,-1.7083984935998917,0.4585822820663452,0.2449112683534622,0.0935663655400276,walking,2026-03-04_14-04-56
1772633102516349700,5.747349609375,-0.2133972880193963,2.073981572024524,-0.9629705871641636,0.5561016798019409,0.2920246720314026,0.1568961143493652,walking,2026-03-04_14-04-56
1772633102526299000,5.757298828125,-0.3286936827708036,1.9023951713070275,-0.0841167915791273,0.6017767786979675,0.2804039716720581,0.1839541047811508,walking,2026-03-04_14-04-56
1772633102536248000,5.767248046875,-0.4758442920204251,1.6247291535273194,0.6311854411840438,0.6037375330924988,0.2336951196193695,0.1692220866680145,walking,2026-03-04_14-04-56
1772633102546197000,5.777197021484375,-0.6556086654312908,1.383231888976693,1.1112012467354535,0.5828719735145569,0.1821104884147644,0.1348092555999755,walking,2026-03-04_14-04-56
1772633102556146000,5.78714599609375,-0.9434787549044936,1.2819023890510202,1.4801964716911316,0.524546205997467,0.135585069656372,0.0591538734734058,walking,2026-03-04_14-04-56
1772633102566094800,5.7970947265625,-1.1793638786617666,1.12147451120764,1.7809516886353491,0.4229583442211151,0.0880843997001648,-0.0472575239837169,walking,2026-03-04_14-04-56
1772633102576043800,5.807043701171875,-1.244872927339375,0.891573576426506,1.9310095636337996,0.3029936850070953,0.0513285584747791,-0.1606150567531585,walking,2026-03-04_14-04-56
1772633102585992700,5.81699267578125,-1.3087524020537733,0.7899313572898506,1.9690911647468805,0.1637426018714904,0.029065866023302,-0.2870837748050689,walking,2026-03-04_14-04-56
1772633102595942000,5.82694189453125,-1.2798606540903448,0.7522481078445911,1.9669418777585028,0.0144451558589935,0.0053275357931852,-0.4042876064777374,walking,2026-03-04_14-04-56
1772633102605890800,5.836890869140625,-1.0976013220585883,0.7949056385710835,1.8562305092424156,-0.1331506967544555,-0.0207512024790048,-0.4807482957839966,walking,2026-03-04_14-04-56
1772633102615840000,5.846840087890625,-0.8914960542108863,0.9509493099808692,1.6461071648597716,-0.2615644633769989,-0.0523225478827953,-0.5204032063484192,walking,2026-03-04_14-04-56
1772633102625789000,5.856788818359375,-0.7053316044993698,1.106832822392881,1.2625333794534206,-0.3500303924083709,-0.0651211664080619,-0.5350330471992493,walking,2026-03-04_14-04-56
1772633102635737900,5.86673779296875,-0.5809523606367409,1.1954779050514102,0.7249749009937048,-0.3819017112255096,-0.0444282852113246,-0.5299157500267029,walking,2026-03-04_14-04-56
1772633102645686800,5.876686767578125,-0.4737022384904324,1.2585612609520551,0.2145943523168563,-0.3704812824726105,0.0016771594528108,-0.5086479783058167,walking,2026-03-04_14-04-56
1772633102655635700,5.8866357421875,-0.329152715117298,1.271668872067332,-0.0544090510576963,-0.3383772671222687,0.0434514656662941,-0.4698407351970672,walking,2026-03-04_14-04-56
1772633102665585000,5.8965849609375,-0.143240742329508,1.2248553907051682,-0.1410954008638858,-0.2911460995674133,0.0845725387334823,-0.4042721092700958,walking,2026-03-04_14-04-56
1772633102675534800,5.906534912109375,0.046336949891597,1.1040087048828602,-0.0999397991329431,-0.237445443868637,0.1165652573108673,-0.3288460969924927,walking,2026-03-04_14-04-56
1772633102685482800,5.916482666015625,0.1191204830842092,0.9379913364693522,0.0459919358462095,-0.1915791481733322,0.1302099525928497,-0.2617514729499817,walking,2026-03-04_14-04-56
1772633102695433000,5.926432861328125,0.118500378424488,0.68790744535923,0.305784443283081,-0.1641615033149719,0.1254949271678924,-0.2091453075408935,walking,2026-03-04_14-04-56
1772633102705382000,5.9363818359375,0.0929804815143346,0.3811149940773845,0.5630576613754034,-0.1481343358755111,0.1118635386228561,-0.1726666688919067,walking,2026-03-04_14-04-56
1772633102715330800,5.946330810546875,0.0050920624420046,0.1132584226503968,0.7986655756264924,-0.1485329568386078,0.0737347155809402,-0.1531497687101364,walking,2026-03-04_14-04-56
1772633102725279700,5.95627978515625,-0.0513162726741284,-0.076567691373825,1.0280758042812346,-0.1667156815528869,0.0027180651668459,-0.1433834284543991,walking,2026-03-04_14-04-56
1772633102735228700,5.966228759765625,-0.0599069908868521,-0.2409352467536926,1.1306097115606069,-0.1921818554401397,-0.0753930658102035,-0.1308270394802093,walking,2026-03-04_14-04-56
1772633102745177900,5.976177734375,-0.0581477261293679,-0.3617728724867105,1.1343167493849993,-0.2196912467479705,-0.1412282586097717,-0.1101361438632011,walking,2026-03-04_14-04-56
1772633102755127000,5.986126953125,-0.1392462658658623,-0.4339163176774978,1.0405337193161248,-0.2492448389530182,-0.2066649347543716,-0.0953439995646476,walking,2026-03-04_14-04-56
1772633102765076000,5.996075927734375,-0.2293357751790434,-0.481285387095809,0.8638894506871699,-0.2793199121952057,-0.2518468201160431,-0.0932627320289611,walking,2026-03-04_14-04-56
1772633102775025000,6.00602490234375,-0.3436686951931565,-0.5167652812778949,0.5423901363998651,-0.2840138673782348,-0.2465611845254898,-0.0899351388216018,walking,2026-03-04_14-04-56
1772633102784973800,6.015973876953125,-0.4673202458357438,-0.4434638982236385,0.2127875951558351,-0.2734949290752411,-0.212848499417305,-0.0867108479142189,walking,2026-03-04_14-04-56
1772633102794922800,6.0259228515625,-0.5132529257753864,-0.3393625954970717,0.0186532625436782,-0.2519170343875885,-0.1794846653938293,-0.0781859159469604,walking,2026-03-04_14-04-56
1772633102804871700,6.03587158203125,-0.3892859890406951,-0.2544903093755245,-0.0890454801529645,-0.2153140008449554,-0.1568102389574051,-0.0523434020578861,walking,2026-03-04_14-04-56
1772633102814820900,6.04582080078125,-0.2642072186065837,-0.1518722309440374,-0.1163157643944025,-0.1672535389661789,-0.127990573644638,-0.0094555895775556,walking,2026-03-04_14-04-56
1772633102824769800,6.055769775390625,-0.1949702719796449,-0.069568334005773,-0.0729372259169817,-0.1260445713996887,-0.0934491083025932,0.0434742048382759,walking,2026-03-04_14-04-56
1772633102834719000,6.065718994140625,-0.1836107101080939,-0.0957775648869574,0.0781646051764488,-0.0969759747385978,-0.060515109449625,0.0819475799798965,walking,2026-03-04_14-04-56
1772633102844668000,6.07566796875,-0.1652827339960262,-0.1885356358222663,0.2931821513414382,-0.0815946236252784,-0.0311867818236351,0.099513255059719,walking,2026-03-04_14-04-56
1772633102854616800,6.085616943359375,-0.0973132134890183,-0.308603446226567,0.5291150597631931,-0.080790176987648,-0.0068172384053468,0.1129486933350563,walking,2026-03-04_14-04-56
1772633102864565800,6.095565673828125,-0.0314446473166346,-0.3774422969140112,0.7810527620464562,-0.0910140499472618,0.0127506032586097,0.1260154992341995,walking,2026-03-04_14-04-56
1772633102874515000,6.105514892578125,0.0528849832955747,-0.3981340795479715,1.0253782357603312,-0.1071197241544723,-0.0081504331901669,0.1320651024580001,walking,2026-03-04_14-04-56
1772633102884463900,6.1154638671875,0.1608139180188998,-0.4054446948222815,1.093542840448022,-0.111582912504673,-0.0486709624528884,0.1362542510032653,walking,2026-03-04_14-04-56
1772633102894412800,6.125412841796875,0.2307611318070441,-0.3691086222022771,1.0534493149906397,-0.1050960570573806,-0.0738160386681556,0.149260401725769,walking,2026-03-04_14-04-56
1772633102904362000,6.135362060546875,0.2761867390073835,-0.3407546343773603,1.027704048359394,-0.1126272082328796,-0.1028580740094184,0.1636998057365417,walking,2026-03-04_14-04-56
1772633102914311000,6.145310791015625,0.2698314882291481,-0.4021662576735019,0.9035556906431912,-0.1248798221349716,-0.1201969385147094,0.1703918129205703,walking,2026-03-04_14-04-56
1772633102924259800,6.155259765625,0.3131665894236415,-0.4407523011773824,0.6198106452107429,-0.1212840229272842,-0.0841212272644043,0.1773043125867843,walking,2026-03-04_14-04-56
1772633102934208800,6.165208740234375,0.3332838966378942,-0.437352283475548,0.2947545152246952,-0.1111581325531005,-0.0161759350448846,0.1916306465864181,walking,2026-03-04_14-04-56
1772633102944158000,6.175157958984375,0.3634401481118053,-0.452492277201265,0.1015226844102144,-0.1074877604842186,0.0355277359485626,0.2054899930953979,walking,2026-03-04_14-04-56
1772633102954107000,6.18510693359375,0.4312384037051349,-0.5147685545027255,-0.0284252994954586,-0.1064658463001251,0.0465656593441963,0.2207709699869156,walking,2026-03-04_14-04-56
1772633102964055800,6.195055908203125,0.4488687164092436,-0.5692904182851314,-0.1280553020268678,-0.1054559797048568,0.0350538790225982,0.2269388437271118,walking,2026-03-04_14-04-56
1772633102974004700,6.205004638671875,0.3582833864031359,-0.619258564285934,-0.2444330257415771,-0.115288108587265,0.0084808617830276,0.2200027406215667,walking,2026-03-04_14-04-56
1772633102983954000,6.214953857421875,0.1767687717914581,-0.6905237653374672,-0.3741565532416105,-0.143175408244133,-0.0230933092534542,0.1973847895860672,walking,2026-03-04_14-04-56
1772633102993902800,6.22490283203125,0.0211280916919931,-0.694082626862824,-0.6062170041441917,-0.1693569719791412,-0.0543964989483356,0.1758163869380951,walking,2026-03-04_14-04-56
1772633103003851800,6.234851806640625,-0.1011198026977479,-0.6710135937035083,-0.9602712650775908,-0.1744390875101089,-0.0497924238443374,0.16527159512043,walking,2026-03-04_14-04-56
1772633103013801000,6.244801025390625,-0.1893757764408364,-0.6181751529633999,-1.2536492312520742,-0.1809898316860199,-0.0089256418868899,0.1522345393896103,walking,2026-03-04_14-04-56
1772633103023750000,6.25475,-0.1277909885348752,-0.6827344266355038,-1.381926651597023,-0.1636875420808792,0.0633357688784599,0.17078797519207,walking,2026-03-04_14-04-56
1772633103033698800,6.26469873046875,-0.0915245470849797,-0.6928618528962135,-1.7569406984508036,-0.0869504511356353,0.2058454006910324,0.2159435749053955,walking,2026-03-04_14-04-56
1772633103043647700,6.274647705078125,-0.1550714288441464,-0.539272004379332,-1.982933812138438,0.0450017191469669,0.3782991766929626,0.2753600478172302,walking,2026-03-04_14-04-56
1772633103053597400,6.284597412109375,-0.1637431764038279,-0.5432235184840858,-1.9924971747756004,0.2011926770210266,0.4961768984794616,0.3453989028930664,walking,2026-03-04_14-04-56
1772633103063546400,6.29454638671875,-0.0944360140848904,-0.6697077718019485,-1.5885755978673697,0.3275814950466156,0.4882976710796356,0.3964735269546509,walking,2026-03-04_14-04-56
1772633103073495300,6.304495361328125,-0.0794708289368078,-0.863654472887516,-0.9355921663731336,0.4034803807735443,0.3490240275859833,0.4321126937866211,walking,2026-03-04_14-04-56
1772633103083444500,6.314444580078125,-0.1885127298707142,-1.0423290783002972,-0.4387228411763906,0.4353003799915313,0.1768394708633422,0.4458039999008178,walking,2026-03-04_14-04-56
1772633103093393700,6.3243935546875,-0.4718756075851619,-1.1534972506731749,-0.2102384951949119,0.4281235039234161,0.0348942950367927,0.4217774569988251,walking,2026-03-04_14-04-56
1772633103103342600,6.334342529296875,-0.8100468013405799,-1.208442454434186,-0.1590314550489187,0.3965224325656891,-0.069304272532463,0.3554919064044952,walking,2026-03-04_14-04-56
1772633103113291500,6.34429150390625,-1.0110712587926536,-1.2846931888133286,-0.2788964363574981,0.3546522259712219,-0.1149926707148552,0.280122846364975,walking,2026-03-04_14-04-56
1772633103123241500,6.354241455078125,-1.105307658652216,-1.1457672409430146,-0.4602905298620462,0.3096535801887512,-0.1113883480429649,0.2181492298841476,walking,2026-03-04_14-04-56
1772633103133190400,6.3641904296875,-1.1190104591816663,-0.8679545081689953,-0.622453268674016,0.262027382850647,-0.0765228196978569,0.1799612790346145,walking,2026-03-04_14-04-56
1772633103143139300,6.374139404296875,-1.0467816007297486,-0.5767904186517,-0.7493243293523788,0.2172100841999054,-0.0328752025961875,0.1591918170452118,walking,2026-03-04_14-04-56
1772633103153088500,6.384088623046875,-0.905906345422566,-0.237010474525392,-0.8482675186634063,0.183135837316513,-0.0160701461136341,0.1522101163864135,walking,2026-03-04_14-04-56
1772633103163037400,6.394037353515625,-0.7782705839820205,0.0511260838642716,-0.9317033422410488,0.1718171238899231,-0.0189687311649322,0.1490295082330703,walking,2026-03-04_14-04-56
1772633103172986600,6.403986572265625,-0.6598210224293172,0.3445502272680401,-0.9880313786625862,0.1778575330972671,-0.0297652054578065,0.1513965725898742,walking,2026-03-04_14-04-56
1772633103182935600,6.413935546875,-0.6274411400891841,0.5566992322593927,-0.9184908094465732,0.1695237010717392,-0.0669453293085098,0.1438023000955581,walking,2026-03-04_14-04-56
1772633103192884500,6.423884521484375,-0.6414167662106454,0.639974896839261,-0.7937351334869861,0.1358972340822219,-0.1237563341856002,0.1190710067749023,walking,2026-03-04_14-04-56
1772633103202833400,6.43383349609375,-0.5955034485585987,0.6560352202802896,-0.7375760238915682,0.0984310880303382,-0.1562719345092773,0.086951158940792,walking,2026-03-04_14-04-56
1772633103212782300,6.4437822265625,-0.5143388943811878,0.752876761136949,-0.7912655285030603,0.0621295310556888,-0.1700910627841949,0.0586440823972225,walking,2026-03-04_14-04-56
1772633103222731500,6.4537314453125,-0.445257247913815,0.8933777032390237,-0.914925225919485,0.0380961000919342,-0.161671757698059,0.0488873273134231,walking,2026-03-04_14-04-56
1772633103232680400,6.463680419921875,-0.3475482765728607,1.0465168853789568,-1.0274275695055723,0.0267964899539947,-0.1313378065824508,0.0534673854708671,walking,2026-03-04_14-04-56
1772633103242629600,6.473629638671875,-0.2317458319954574,1.1450865652024744,-1.182853693538904,0.04616379737854,-0.059840977191925,0.0844822973012924,walking,2026-03-04_14-04-56
1772633103252578600,6.48357861328125,-0.1032864792123436,1.179888998514414,-1.300771047911048,0.096596822142601,0.0429526567459106,0.1297024488449096,walking,2026-03-04_14-04-56
1772633103262527500,6.493527587890625,-0.0495002362281084,1.146270514290035,-1.2722317666471004,0.1640637367963791,0.1504636704921722,0.1701028645038604,walking,2026-03-04_14-04-56
1772633103272476400,6.503476318359375,-0.0617382979672402,1.0552768226787448,-0.9635790744513272,0.235906720161438,0.2352907508611679,0.1894368678331375,walking,2026-03-04_14-04-56
1772633103282425300,6.51342529296875,-0.0283624633923172,0.91278032284528,-0.5204793333649635,0.2989437580108642,0.2887190878391266,0.1868267059326172,walking,2026-03-04_14-04-56
1772633103292374300,6.523374267578125,0.1176799654196947,0.7606327820912003,-0.0630681583315134,0.3603318631649017,0.3224493265151977,0.1725402921438217,walking,2026-03-04_14-04-56
1772633103302323500,6.533323486328125,0.3433276266705244,0.6909583573624491,0.3724947575092315,0.4136967957019806,0.3060069680213928,0.165455475449562,walking,2026-03-04_14-04-56
1772633103312272600,6.543272705078125,0.5420784766348079,0.715589817532897,0.6982277638435364,0.4666170179843902,0.2681409418582916,0.1556335687637329,walking,2026-03-04_14-04-56
1772633103322221600,6.5532216796875,0.6309964944832026,0.8125842108637094,1.0715928744465113,0.4972657561302185,0.211635872721672,0.1430637091398239,walking,2026-03-04_14-04-56
1772633103332170500,6.56317041015625,0.7464401522181928,0.8813669474497436,1.4927835660636424,0.4788463711738586,0.0979894995689392,0.1292791664600372,walking,2026-03-04_14-04-56
1772633103342119400,6.573119384765625,0.8576095667000859,0.9573553776308894,1.8754998578578232,0.4082038998603821,-0.0691749900579452,0.1099147871136665,walking,2026-03-04_14-04-56
1772633103352068400,6.583068359375,0.90128036612235,1.015908104364574,2.099523717299104,0.2963874340057373,-0.2182580977678299,0.0949658006429672,walking,2026-03-04_14-04-56
1772633103362017300,6.593017333984375,0.8766694372832775,1.107444232289493,2.007154645681381,0.1703211367130279,-0.2923975884914398,0.1058799624443054,walking,2026-03-04_14-04-56
1772633103371966500,6.602966552734375,0.7828191871970891,1.2290385216087103,1.7181974185585975,0.0424458533525466,-0.2986247539520263,0.1265697330236435,walking,2026-03-04_14-04-56
1772633103381915600,6.61291552734375,0.6294671660240739,1.2472159833341836,1.4168167631924151,-0.0860990658402443,-0.2719888687133789,0.1373115926980972,walking,2026-03-04_14-04-56
1772633103391864600,6.622864501953125,0.4968612514881417,1.144744327636063,1.0964058286637066,-0.2036621868610382,-0.2337874323129654,0.1356934607028961,walking,2026-03-04_14-04-56
1772633103401813500,6.6328134765625,0.2673646597241982,1.042109298069775,0.7131774956941604,-0.2927402853965759,-0.2054447680711746,0.106089174747467,walking,2026-03-04_14-04-56
