time,seconds_elapsed,acc_x,acc_y,acc_z,gyr_x,gyr_y,gyr_z,activity,session
1772633051190534700,0.07053466796875,-0.7252880585961043,0.2992157324172556,-1.0037503413200377,-0.0209165848791599,0.3912463188171386,0.3025530278682709,walking,2026-03-04_14-04-11
1772633051200483600,0.080483642578125,-0.8656848096713423,0.2504807814732194,-0.7283534375160932,-0.0025743292644619,0.3917997181415558,0.2620785534381866,walking,2026-03-04_14-04-11
1772633051210432500,0.0904326171875,-1.0683088843397797,0.1452472598463297,-0.5738853448599577,0.0446248836815357,0.3580913543701172,0.1924391984939575,walking,2026-03-04_14-04-11
1772633051220381400,0.10038134765625,-1.2838073458895087,0.1398392633229494,-0.4925058692902326,0.1217798590660095,0.2911109924316406,0.1007665395736694,walking,2026-03-04_14-04-11
1772633051230330400,0.110330322265625,-1.3921959705464542,0.1841211803808808,-0.415099973526597,0.218894824385643,0.2198104858398437,0.0025183176621794,walking,2026-03-04_14-04-11
1772633051240279600,0.120279541015625,-1.358720548054576,0.2711236103989183,-0.3423211530417204,0.3131552636623382,0.1582560539245605,-0.0936918407678604,walking,2026-03-04_14-04-11
1772633051250228700,0.130228759765625,-1.2734928726240993,0.4247054217398166,-0.1737351031839847,0.3763560950756073,0.1225600987672805,-0.1731890588998794,walking,2026-03-04_14-04-11
1772633051260177700,0.140177734375,-1.1662735840074718,0.6354600497633218,0.0676741908222436,0.3811857104301452,0.116101935505867,-0.2248115092515945,walking,2026-03-04_14-04-11
1772633051270126600,0.150126708984375,-1.0547250340148806,0.814791365519166,0.3219944043278694,0.3328874111175537,0.1481586098670959,-0.2407921850681305,walking,2026-03-04_14-04-11
1772633051280075500,0.160075439453125,-0.90961469842121,1.0706601236410438,0.5498702630221843,0.2431844472885131,0.207813948392868,-0.2111101895570755,walking,2026-03-04_14-04-11
1772633051290024400,0.1700244140625,-0.7479951996404677,1.3172253391057251,0.751841865131259,0.1288846731185913,0.278639405965805,-0.1385092884302139,walking,2026-03-04_14-04-11
1772633051299973400,0.179973388671875,-0.6084734778340906,1.5114835903584956,0.8746008143156766,0.0151764880865812,0.3369219005107879,-0.049507237970829,walking,2026-03-04_14-04-11
1772633051309922600,0.189922607421875,-0.5785826358307152,1.6465660145431755,0.8995189824730158,-0.0725470259785652,0.3854166567325592,0.0336747020483017,walking,2026-03-04_14-04-11
1772633051319871700,0.199871826171875,-0.6507428129605949,1.674184089308977,0.8394459143042564,-0.1154454872012138,0.4047405421733856,0.098629206418991,walking,2026-03-04_14-04-11
1772633051329821700,0.20982177734375,-0.7196987141564488,1.6220855071507394,0.7746709520548581,-0.1168930903077125,0.3954639434814453,0.145469456911087,walking,2026-03-04_14-04-11
1772633051339770600,0.2197705078125,-0.7883894616100937,1.4862576714262363,0.711150958302617,-0.080272763967514,0.3419695496559143,0.1745879203081131,walking,2026-03-04_14-04-11
1772633051349719600,0.229719482421875,-0.7663023521602154,1.341623136650771,0.7524690571188927,-0.0276313386857509,0.2463293671607971,0.2035767436027526,walking,2026-03-04_14-04-11
1772633051359668500,0.23966845703125,-0.610886091933772,1.1173238212689756,0.7981272309660911,0.0232310444116592,0.1283739805221557,0.2281958013772964,walking,2026-03-04_14-04-11
1772633051369617400,0.249617431640625,-0.4870017189159989,0.8061658682540058,0.9182119925051928,0.0503013469278812,-0.0119137121364474,0.2345619648694992,walking,2026-03-04_14-04-11
1772633051379566300,0.25956640625,-0.506643334909901,0.4913891402199864,1.005859296298027,0.0335593856871128,-0.1505240499973297,0.2176269292831421,walking,2026-03-04_14-04-11
1772633051389515500,0.269515625,-0.5680082695201039,0.2369996608704328,1.122135313203931,-0.0386299230158329,-0.2733745872974396,0.1694535166025161,walking,2026-03-04_14-04-11
1772633051399464700,0.279464599609375,-0.7018854826334864,0.0207636788263916,1.169888413503766,-0.1388414800167083,-0.3687732517719269,0.095853604376316,walking,2026-03-04_14-04-11
1772633051409413600,0.28941357421875,-0.7885780429847538,-0.1705878911994397,1.0551409213393923,-0.236669048666954,-0.40667924284935,0.0204164534807205,walking,2026-03-04_14-04-11
1772633051419362600,0.299362548828125,-0.8086145035151392,-0.2497701489858329,0.7131891861319541,-0.3022358119487762,-0.3432813584804535,-0.0192862190306186,walking,2026-03-04_14-04-11
1772633051429311500,0.3093115234375,-0.7245495151884853,-0.2036237532302737,0.2355079610079526,-0.3233120441436767,-0.1909337490797042,-0.0285979472100734,walking,2026-03-04_14-04-11
1772633051439260400,0.319260498046875,-0.6003775574009865,-0.106142014773935,-0.1454559341609478,-0.3017207384109497,-0.0255021881312131,-0.0061980988830327,walking,2026-03-04_14-04-11
1772633051449209300,0.329209228515625,-0.3688459526780993,-0.0688179540298879,-0.3970651351422071,-0.2261375933885574,0.1049267426133155,0.0413355827331543,walking,2026-03-04_14-04-11
1772633051459158800,0.33915869140625,-0.1078780447863042,-0.0849878753252327,-0.5396364537775517,-0.1183488145470619,0.2089386284351349,0.0928059667348861,walking,2026-03-04_14-04-11
1772633051469107700,0.349107666015625,0.0015064590401947,-0.1168954639784991,-0.3973977280974388,-0.0384161286056041,0.256601482629776,0.1240306124091148,walking,2026-03-04_14-04-11
1772633051479057700,0.3590576171875,-0.0490846411645412,-0.2547115509107708,0.0489192214697599,-0.0020064581185579,0.2317230105400085,0.1285177618265152,walking,2026-03-04_14-04-11
1772633051489006600,0.369006591796875,-0.1387072636183351,-0.4968358613185584,0.5746697732359171,-0.0089046182110905,0.1928470581769943,0.1101139709353447,walking,2026-03-04_14-04-11
1772633051498955500,0.37895556640625,-0.2594078920334577,-0.7076185463927686,0.9424223046541214,-0.042235143482685,0.1528684794902801,0.1082439050078392,walking,2026-03-04_14-04-11
1772633051508904400,0.388904541015625,-0.2428666532076895,-0.7224244858585298,1.113367484858632,-0.0789981931447982,0.1015171408653259,0.0627934709191322,walking,2026-03-04_14-04-11
1772633051518853600,0.398853515625,-0.3222293090622872,-0.7429318518362938,1.1412672991752624,-0.1144800186157226,0.0035365158692002,-0.0140499109402298,walking,2026-03-04_14-04-11
1772633051528802600,0.408802490234375,-0.3360226374194026,-0.7775953150689602,1.0525438905835152,-0.1271330714225769,-0.0955173894762992,-0.0770710036158561,walking,2026-03-04_14-04-11
1772633051538751500,0.41875146484375,-0.1896650782436132,-0.7572261885181069,0.7830763768285512,-0.1129991486668586,-0.1191159263253212,-0.0774872526526451,walking,2026-03-04_14-04-11
1772633051548700700,0.42870068359375,-0.1176896830961108,-0.5235485116772354,0.4812321956038475,-0.0968383327126503,-0.0980478450655937,-0.0368727333843708,walking,2026-03-04_14-04-11
1772633051558649600,0.438649658203125,-0.1264428253289312,-0.2805849739663302,0.3229191179573535,-0.0898230299353599,-0.0713922679424285,0.0152541166171431,walking,2026-03-04_14-04-11
1772633051568598500,0.4485986328125,-0.1208611527390778,-0.1501730258107185,0.2892711153775453,-0.0850447043776512,-0.0496634319424629,0.0760115087032318,walking,2026-03-04_14-04-11
1772633051578547500,0.45854736328125,-0.1172833673175424,-0.0953052712000906,0.3001362082630395,-0.0808403715491294,-0.0325467623770237,0.1462097764015197,walking,2026-03-04_14-04-11
1772633051588496400,0.468496337890625,-0.0883163621608167,-0.0547488044060766,0.314617153558135,-0.0679241269826889,-0.0172805655747652,0.2325036078691482,walking,2026-03-04_14-04-11
1772633051598445600,0.478445556640625,-0.058254839765653,-0.0586661239802837,0.3649631929606199,-0.0490042269229888,-0.0112961763516068,0.3146634697914123,walking,2026-03-04_14-04-11
1772633051608394500,0.48839453125,-0.0855970932647585,-0.1695455425396561,0.3879214592218399,-0.0211304277181625,-0.0078932102769613,0.3709670007228851,walking,2026-03-04_14-04-11
1772633051618343700,0.49834375,-0.2065807033397257,-0.3908965295098722,0.4080331038802862,0.0004702056758105,-0.0076215676963329,0.3847949206829071,walking,2026-03-04_14-04-11
1772633051628293600,0.508293701171875,-0.4055104535348713,-0.6491454607665539,0.4624433239817619,0.0090094916522502,-0.0033701336942613,0.3597267568111419,walking,2026-03-04_14-04-11
1772633051638242600,0.51824267578125,-0.5699520239990205,-0.8598071498095988,0.531726119044423,0.0068877516314387,-0.0012390720658004,0.3210802972316742,walking,2026-03-04_14-04-11
1772633051648191500,0.52819140625,-0.5393268033064902,-0.9845426597639918,0.6295832666844129,-0.0113155730068683,-0.0320178009569644,0.2900396883487701,walking,2026-03-04_14-04-11
1772633051658140700,0.538140625,-0.3966995897654444,-1.03977851703465,0.739420774975419,-0.0296386517584323,-0.0747849643230438,0.2736553847789764,walking,2026-03-04_14-04-11
1772633051668089600,0.548089599609375,-0.2155061333995312,-1.0013073320820929,0.6761918731242418,-0.0301387421786785,-0.0884504094719886,0.2808892130851745,walking,2026-03-04_14-04-11
1772633051678038500,0.55803857421875,-0.058836731306836,-0.9042940879203378,0.4837660979956388,-0.0103674354031682,-0.0695622041821479,0.3084513247013092,walking,2026-03-04_14-04-11
1772633051687987500,0.567987548828125,0.011699936274439,-0.8329355094969272,0.2382832709401846,0.0163102000951766,-0.0503771640360355,0.3293558061122894,walking,2026-03-04_14-04-11
1772633051697936600,0.5779365234375,-0.0349134924709796,-0.8200883028835058,0.064075874069333,0.0520018860697746,-0.030112374573946,0.3324125707149505,walking,2026-03-04_14-04-11
1772633051707885600,0.587885498046875,-0.0923832462735474,-0.810588507001847,-0.0927303061455488,0.0829005762934684,-0.0185764729976654,0.3291599750518799,walking,2026-03-04_14-04-11
1772633051717834500,0.59783447265625,-0.1390546157512813,-0.827933025034517,-0.1889110450059175,0.1032199636101722,-0.0309724230319261,0.3236719965934753,walking,2026-03-04_14-04-11
1772633051727783400,0.607783447265625,-0.2382210193589329,-0.8079872384622693,-0.3066559654206037,0.1211180090904235,-0.0237720981240272,0.3015111982822418,walking,2026-03-04_14-04-11
1772633051737732600,0.617732666015625,-0.3559009117133915,-0.8139467313885689,-0.4566664941459893,0.1350119858980178,-0.0135535504668951,0.2739562690258026,walking,2026-03-04_14-04-11
1772633051747681500,0.627681640625,-0.4035416376799344,-0.7635059994399547,-0.5698550664305687,0.1432961374521255,3.09320166707e-05,0.2500918507575989,walking,2026-03-04_14-04-11
1772633051757630500,0.63763037109375,-0.4078646885108202,-0.7402367675334215,-0.6123147364974022,0.1456594318151474,0.0236289352178573,0.2353536635637283,walking,2026-03-04_14-04-11
1772633051767579600,0.64757958984375,-0.4022339891474694,-0.6343034270741045,-0.6286164674788713,0.1446321755647659,0.0438352301716804,0.2398262768983841,walking,2026-03-04_14-04-11
1772633051777529600,0.657529541015625,-0.3775106129098683,-0.5329691048428415,-0.6494605180650949,0.1485033482313156,0.0765460431575775,0.2633545100688934,walking,2026-03-04_14-04-11
1772633051787478500,0.667478515625,-0.2737752208862453,-0.4934560096219181,-0.7265683076649904,0.1608723998069763,0.1258384883403778,0.3089433014392853,walking,2026-03-04_14-04-11
1772633051797427700,0.677427734375,-0.1474079450115561,-0.5658494840510189,-0.7852250792950392,0.1801009476184845,0.1482029259204864,0.3648715317249298,walking,2026-03-04_14-04-11
1772633051807376600,0.687376708984375,-0.0549501721970736,-0.6297684139929711,-0.8026414935201406,0.2062861025333404,0.1304332464933395,0.4206897318363189,walking,2026-03-04_14-04-11
1772633051817325600,0.69732568359375,-0.0735831226050853,-0.7136353224642574,-0.7536819400399923,0.2269066870212555,0.0627759173512458,0.4469490349292755,walking,2026-03-04_14-04-11
1772633051827274500,0.7072744140625,-0.2181411580782383,-0.802076699244231,-0.6806412537485361,0.2352843284606933,-0.0080994898453354,0.4325226247310638,walking,2026-03-04_14-04-11
1772633051837223400,0.717223388671875,-0.3725439304132014,-0.9057451635114848,-0.6513035155832767,0.2204595804214477,-0.0338093824684619,0.3928729593753814,walking,2026-03-04_14-04-11
1772633051847172600,0.727172607421875,-0.4522912016712129,-1.0249433514744042,-0.6171458099156618,0.1713820397853851,-0.0399430878460407,0.3364776074886322,walking,2026-03-04_14-04-11
1772633051857121500,0.73712158203125,-0.5174552363034337,-1.0619608304873107,-0.5181283863246441,0.0852125287055969,-0.0532160177826881,0.2615743279457092,walking,2026-03-04_14-04-11
1772633051867070500,0.747070556640625,-0.5073303673259913,-0.9956861311994492,-0.4113514346480369,-0.0263390392065048,-0.0853360667824745,0.1984924226999282,walking,2026-03-04_14-04-11
1772633051877019600,0.75701953125,-0.3199701319586485,-0.7504846053034067,-0.4471989930987358,-0.1245170086622238,-0.1345568746328354,0.1514620631933212,walking,2026-03-04_14-04-11
1772633051886968600,0.766968505859375,-0.1943871017968282,-0.4049488741293549,-0.6867834097653627,-0.1907544732093811,-0.1645632833242416,0.1342824697494506,walking,2026-03-04_14-04-11
1772633051896917500,0.77691748046875,-0.0709167164074257,0.007736877862364,-1.0354852037549018,-0.223278596997261,-0.1863591223955154,0.1384684294462204,walking,2026-03-04_14-04-11
1772633051906866400,0.786866455078125,0.0297716726031154,0.406584366376698,-1.3577274453639985,-0.2251954078674316,-0.2164030820131302,0.1496182382106781,walking,2026-03-04_14-04-11
1772633051916815600,0.796815673828125,0.0551409455288201,0.7366705994844436,-1.616701037633419,-0.2014879435300827,-0.235150396823883,0.1861759722232818,walking,2026-03-04_14-04-11
1772633051926765600,0.806765625,0.0865606775999069,0.9905445305272936,-1.8612521367967128,-0.1473986655473709,-0.2180586904287338,0.2553520798683166,walking,2026-03-04_14-04-11
1772633051936714800,0.81671484375,0.095281853791885,1.077136187787354,-2.1367472402781247,-0.0793461203575134,-0.1406302154064178,0.3067713379859924,walking,2026-03-04_14-04-11
1772633051946663700,0.82666357421875,-0.1400070576379075,1.1675035641938447,-2.2591467085003853,0.0152676478028297,0.0068436861038208,0.3453729748725891,walking,2026-03-04_14-04-11
1772633051956612600,0.836612548828125,-0.2743159036342054,1.1288171290554103,-2.2632933067858216,0.1215022057294845,0.1882563531398773,0.3911258280277252,walking,2026-03-04_14-04-11
1772633051966561500,0.8465615234375,-0.3019763927696272,1.1212521006286145,-1.9695482608646155,0.2189413458108902,0.3277290463447571,0.4299541711807251,walking,2026-03-04_14-04-11
1772633051976510500,0.856510498046875,-0.2158143590984866,1.0509165816426276,-1.3691665387451648,0.3031222522258758,0.3972503542900085,0.4601781070232391,walking,2026-03-04_14-04-11
1772633051986459400,0.86645947265625,-0.070514821075648,0.9099708183825016,-0.6129670629262924,0.3564278185367584,0.4004662930965423,0.481968492269516,walking,2026-03-04_14-04-11
1772633051996408600,0.87640869140625,-0.0271915199168026,0.8258129641406238,0.0657090282291174,0.3867705464363098,0.340561956167221,0.4729292094707489,walking,2026-03-04_14-04-11
1772633052006357500,0.886357421875,-0.0865242911122739,0.7646342728175223,0.5488683925032616,0.4000728726387024,0.2495388239622116,0.4196977019309997,walking,2026-03-04_14-04-11
1772633052016306400,0.896306396484375,-0.1927218354657292,0.7877981446534394,0.946216436240077,0.3962224721908569,0.149760290980339,0.3546004593372345,walking,2026-03-04_14-04-11
1772633052026255400,0.90625537109375,-0.2627586637660861,0.8613083481527865,1.230295828193426,0.3595670461654663,0.0288630854338407,0.2746874392032623,walking,2026-03-04_14-04-11
1772633052036204300,0.916204345703125,-0.2678849938038736,0.9718922908969224,1.4694728331029414,0.2955209612846374,-0.0730885788798332,0.2179863452911377,walking,2026-03-04_14-04-11
1772633052046153200,0.9261533203125,-0.174912147606723,1.0590478656500577,1.5779285316467284,0.2212428897619247,-0.1194626986980438,0.1961530148983001,walking,2026-03-04_14-04-11
1772633052056102400,0.936102294921875,-0.0889465498231351,1.1830148754499852,1.5093354724138974,0.1510102748870849,-0.1043324843049049,0.1971354633569717,walking,2026-03-04_14-04-11
1772633052066051600,0.946051513671875,-0.0298135389834642,1.2816598124668002,1.3444354175925255,0.0927804708480835,-0.072350837290287,0.2017337679862976,walking,2026-03-04_14-04-11
1772633052076001300,0.956001220703125,0.0270323472997173,1.2931972516559065,1.1845020452678203,0.0398083329200744,-0.0524980425834655,0.2024096846580505,walking,2026-03-04_14-04-11
1772633052085950500,0.965950439453125,-0.0213317610379308,1.2085267717167734,1.0885907709985971,-0.0214613378047943,-0.0450570583343505,0.1774564385414123,walking,2026-03-04_14-04-11
1772633052095899400,0.9758994140625,-0.2330281999561935,1.0853997198723255,1.0464151785701512,-0.0980818122625351,-0.0476254113018512,0.1272342801094055,walking,2026-03-04_14-04-11
1772633052105848300,0.985848388671875,-0.4768526653453707,0.9609854046963154,1.0164607698112726,-0.1816108524799347,-0.0820607393980026,0.0636538118124008,walking,2026-03-04_14-04-11
1772633052115797500,0.995797607421875,-0.6299979849651456,0.8298115322574973,0.9423848952531814,-0.2603890001773834,-0.1259014308452606,-0.0259540993720293,walking,2026-03-04_14-04-11
1772633052125746400,1.005746337890625,-0.7228908612612635,0.7439435130968689,0.8206377534598112,-0.3264777660369873,-0.160597026348114,-0.1145418956875801,walking,2026-03-04_14-04-11
1772633052135695400,1.0156953125,-0.6764984548553824,0.7466678234942257,0.5880617542505264,-0.3594325184822082,-0.1653702110052108,-0.1622580289840698,walking,2026-03-04_14-04-11
1772633052145644500,1.02564453125,-0.3793338462816551,0.8266155126951634,0.2578238377124071,-0.3498129546642303,-0.1386708617210388,-0.1446466892957687,walking,2026-03-04_14-04-11
1772633052155593500,1.035593505859375,-0.0429366033961996,0.9619061728030442,-0.0532324084937572,-0.303246259689331,-0.0924423858523368,-0.0849053338170051,walking,2026-03-04_14-04-11
1772633052165542400,1.04554248046875,0.1897573961695656,1.0810542380139232,-0.2110083105236291,-0.2263294756412506,-0.0461973026394844,0.0034091612324118,walking,2026-03-04_14-04-11
1772633052175491300,1.0554912109375,0.3518189396293834,1.0490924349553885,-0.3758516667217016,-0.1248526573181152,0.018004585057497,0.0998739153146743,walking,2026-03-04_14-04-11
1772633052185440500,1.0654404296875,0.3837613073350861,0.953328752463311,-0.446473016911745,-0.0330184660851955,0.0737577006220817,0.1611444354057312,walking,2026-03-04_14-04-11
1772633052195389400,1.075389404296875,0.2452257470218464,0.7853354078017175,-0.2245698028862476,0.0212173424661159,0.0924741327762603,0.1830915510654449,walking,2026-03-04_14-04-11
1772633052205338400,1.08533837890625,0.0929853768851608,0.4762032615259289,0.1825800884187221,0.0272574722766876,0.0782914385199546,0.1716668605804443,walking,2026-03-04_14-04-11
1772633052215287600,1.09528759765625,-0.0093552363118156,0.1945671710714697,0.5818903721392155,0.0090915178880095,0.0533115230500698,0.1477841734886169,walking,2026-03-04_14-04-11
1772633052225237200,1.1052373046875,-0.0542974073767662,-0.0170113405555486,0.8802028721064329,-0.0222423411905765,0.031714528799057,0.1150913909077644,walking,2026-03-04_14-04-11
1772633052235186400,1.1151865234375,-0.0633737902145832,-0.1545090091884136,1.0448018981546163,-0.0471903048455715,0.0155765730887651,0.0794111564755439,walking,2026-03-04_14-04-11
1772633052245135400,1.12513525390625,-0.0352219738982617,-0.1971272308178246,1.058379757130146,-0.0722822919487953,0.0017042248509824,0.042521346360445,walking,2026-03-04_14-04-11
1772633052255084500,1.13508447265625,-0.0158808752208948,-0.2091194280371069,1.0744576162278652,-0.092152401804924,-0.0156593192368745,0.0253484807908535,walking,2026-03-04_14-04-11
1772633052265033500,1.145033447265625,0.1274914575990289,-0.2566029176153242,1.0538093804746866,-0.1072631403803825,-0.0183654353022575,0.0247247871011495,walking,2026-03-04_14-04-11
1772633052274982400,1.154982421875,0.1989396870672702,-0.241229991916567,1.0054811106353998,-0.1260791718959808,-0.0216824039816856,0.0251759253442287,walking,2026-03-04_14-04-11
1772633052284931300,1.164931396484375,0.2061731454521417,-0.2073541719302535,1.024275827476382,-0.1434471160173416,-0.0375910997390747,0.0289687234908342,walking,2026-03-04_14-04-11
1772633052294880500,1.174880615234375,0.2241880735596641,-0.2707410408221185,1.010896705943346,-0.1662341803312301,-0.0529399625957012,0.02439527772367,walking,2026-03-04_14-04-11
1772633052304829400,1.184829345703125,0.1742723518658429,-0.3382781612612306,0.9991168363004922,-0.1804460436105728,-0.0562847778201103,0.0073380572721362,walking,2026-03-04_14-04-11
1772633052314778400,1.1947783203125,0.064150729403831,-0.4562101286806166,0.8409317689478397,-0.1980324983596801,-0.0451194755733013,-0.0456162355840206,walking,2026-03-04_14-04-11
1772633052324727600,1.2047275390625,-0.1693848720852285,-0.4921913965135812,0.7622656439900398,-0.2236663103103637,-0.0513389967381954,-0.1092394664883613,walking,2026-03-04_14-04-11
1772633052334676500,1.214676513671875,-0.249490491794236,-0.5785188498795032,0.6629167964875697,-0.2424943149089813,-0.0524482019245624,-0.1713262796401977,walking,2026-03-04_14-04-11
1772633052344625400,1.22462548828125,-0.1817897052260115,-0.6615365941755473,0.4508358882963657,-0.2463771700859069,-0.0190172921866178,-0.2084559202194214,walking,2026-03-04_14-04-11
1772633052354574300,1.23457421875,-0.1155845275104045,-0.6004591712698341,0.221765851381421,-0.2183540612459182,0.0089054200798273,-0.2136528193950653,walking,2026-03-04_14-04-11
1772633052364523500,1.2445234375,0.0328308044454082,-0.4915992758393287,-0.0596896218091249,-0.1451511830091476,0.0283080004155635,-0.1811889857053756,walking,2026-03-04_14-04-11
1772633052374472400,1.254472412109375,0.2462884808825328,-0.4167516862563789,-0.3883732946425676,-0.0394883975386619,0.0456430502235889,-0.1293433606624603,walking,2026-03-04_14-04-11
1772633052384421400,1.26442138671875,0.3785868273066357,-0.4377062114797532,-0.5874538514852523,0.0676188841462135,0.0625138506293296,-0.0833070278167724,walking,2026-03-04_14-04-11
1772633052394371600,1.27437158203125,0.3648881549630314,-0.5753200538381934,-0.5569494076281786,0.1473336815834045,0.0607284568250179,-0.0647802203893661,walking,2026-03-04_14-04-11
1772633052404320500,1.284320556640625,0.2707357801251113,-0.7881830523177981,-0.3722381523996591,0.1863890290260315,0.0542401820421218,-0.0811596810817718,walking,2026-03-04_14-04-11
1772633052414269400,1.29426953125,0.158481200755015,-1.0285394762702285,-0.1450695651918649,0.1880082339048385,0.0399379394948482,-0.121561698615551,walking,2026-03-04_14-04-11
1772633052424218400,1.30421826171875,0.1142055307747796,-1.2319815893232822,0.0551876342147588,0.1577376425266266,0.0213323757052421,-0.172146588563919,walking,2026-03-04_14-04-11
1772633052434167300,1.314167236328125,0.1269739730635657,-1.3399490659587086,0.2319441310465335,0.1051314175128936,-0.0106077119708061,-0.2171316444873809,walking,2026-03-04_14-04-11
1772633052444116500,1.324116455078125,0.2355706509806215,-1.332214818444848,0.3027162878841161,0.0401305332779884,-0.0747813582420349,-0.256277322769165,walking,2026-03-04_14-04-11
1772633052454065400,1.3340654296875,0.2788837595390155,-1.1499261141881345,0.3092179248631,-0.0163764171302318,-0.1689587235450744,-0.2700562477111816,walking,2026-03-04_14-04-11
1772633052464014600,1.3440146484375,0.4188083630578592,-0.9055416037634014,0.1544283451676368,-0.0359242521226406,-0.232117548584938,-0.2480020970106125,walking,2026-03-04_14-04-11
1772633052473963500,1.353963623046875,0.5426676016343758,-0.6548239447943865,-0.1976058081150054,-0.0325662717223167,-0.2513679265975952,-0.217885211110115,walking,2026-03-04_14-04-11
1772633052483912400,1.363912353515625,0.5327923600364476,-0.366150941440463,-0.5236813442766666,0.0042817182838916,-0.2516799867153168,-0.1744064539670944,walking,2026-03-04_14-04-11
1772633052493861400,1.373861328125,0.5626867822363972,-0.179621384743601,-0.8788725002855062,0.0764432623982429,-0.2180538326501846,-0.1171540841460228,walking,2026-03-04_14-04-11
1772633052503810300,1.383810302734375,0.6800892458889634,-0.0641485009141266,-1.2418436426460742,0.1803730428218841,-0.1442515701055526,-0.0444592796266078,walking,2026-03-04_14-04-11
1772633052513759500,1.393759521484375,0.8237286321472376,-0.0358873059391975,-1.4654250190168618,0.2793560922145843,-0.05854944139719,0.0268854722380638,walking,2026-03-04_14-04-11
1772633052523708400,1.40370849609375,0.873380332610011,-0.131699211487174,-1.441720318302512,0.3536290228366852,-0.0138120064511895,0.0749339908361435,walking,2026-03-04_14-04-11
1772633052533657300,1.4136572265625,0.7931162709362805,-0.3085509853869676,-1.1385673925668,0.3802126944065094,-0.0383871234953403,0.0918908640742302,walking,2026-03-04_14-04-11
1772633052543606500,1.4236064453125,0.6136207045294344,-0.5121056189037859,-0.7479460267364978,0.3624906539916992,-0.0979049652814865,0.0719696059823036,walking,2026-03-04_14-04-11
1772633052553556500,1.433556396484375,0.333671288520284,-0.6928574689820408,-0.3926134164303541,0.3116399943828583,-0.148728460073471,0.0184712298214435,walking,2026-03-04_14-04-11
1772633052563505400,1.44350537109375,0.0051567982412874,-0.8197041258715093,-0.2261035883247852,0.2439369261264801,-0.1563687622547149,-0.0518064871430397,walking,2026-03-04_14-04-11
1772633052573454300,1.453454345703125,-0.1913058311879635,-0.8560532041035592,-0.2261772380828857,0.1623643040657043,-0.1363939940929412,-0.1240463331341743,walking,2026-03-04_14-04-11
1772633052583403300,1.4634033203125,-0.3836068839583545,-0.7912839409425855,-0.2552735687077045,0.0741268545389175,-0.0990983471274375,-0.1666389256715774,walking,2026-03-04_14-04-11
1772633052593352200,1.473352294921875,-0.2646785441790707,-0.7285996673621237,-0.3222042476862669,-0.0139505416154861,-0.1267587393522262,-0.2216872572898864,walking,2026-03-04_14-04-11
1772633052603301600,1.483301513671875,-0.3297721256572753,-0.5407891309440136,-0.3247551012128591,-0.0825594812631607,-0.1972107291221618,-0.2385206222534179,walking,2026-03-04_14-04-11
1772633052613250600,1.49325048828125,-0.2799531240698881,-0.3118659551538527,-0.5282780244171619,-0.1263093650341034,-0.2748695611953735,-0.2284080535173416,walking,2026-03-04_14-04-11
1772633052623199500,1.503199462890625,-0.4063810988895595,-0.0396098335936665,-0.8398872283309697,-0.1598826497793197,-0.330838680267334,-0.2308354675769806,walking,2026-03-04_14-04-11
1772633052633148400,1.5131484375,-0.7461438726853579,0.186188195913285,-1.1441297028690576,-0.201651930809021,-0.3572593629360199,-0.2646677494049072,walking,2026-03-04_14-04-11
1772633052643097300,1.523097412109375,-1.0867186935164033,0.2921813037358224,-1.4148545232087373,-0.24030801653862,-0.3588015139102936,-0.3230093419551849,walking,2026-03-04_14-04-11
1772633052653046300,1.53304638671875,-1.3502007031209766,0.4653381686404347,-1.7341548661470412,-0.2535266280174255,-0.3068573474884033,-0.3824497759342193,walking,2026-03-04_14-04-11
1772633052662995500,1.542995361328125,-1.4603344178795814,0.7761908550985157,-2.067216023412347,-0.2189985513687133,-0.1847508698701858,-0.4081021845340729,walking,2026-03-04_14-04-11
1772633052672944400,1.5529443359375,-1.3643876339055596,1.2075557347275316,-2.3652146351248025,-0.1324777752161026,-0.0102192722260952,-0.3844426572322845,walking,2026-03-04_14-04-11
1772633052682893600,1.5628935546875,-1.1189176663316789,1.5700599902287125,-2.4698417152911425,0.0025344216264784,0.2207604795694351,-0.3158577382564544,walking,2026-03-04_14-04-11
1772633052692842500,1.572842529296875,-0.8125618529014289,1.8054397948123515,-2.322290270155668,0.1519958078861236,0.4397071897983551,-0.2226683944463729,walking,2026-03-04_14-04-11
1772633052702791400,1.58279150390625,-0.5525190604979172,1.9511064491145311,-1.7708049731522797,0.285809725522995,0.5667287111282349,-0.1209561750292778,walking,2026-03-04_14-04-11
1772633052712740400,1.592740234375,-0.3520035754812881,1.970853644374758,-0.9691776251107452,0.3984681069850921,0.595339834690094,-0.0348756164312362,walking,2026-03-04_14-04-11
1772633052722690300,1.602690185546875,-0.2638937687432393,1.843776685860753,-0.1654348923504352,0.4915137588977813,0.5416706204414368,0.0349790081381797,walking,2026-03-04_14-04-11
1772633052732639200,1.61263916015625,-0.2109403963865712,1.578290935218334,0.4454302298605442,0.5516348481178284,0.4243710935115814,0.0609996914863586,walking,2026-03-04_14-04-11
1772633052742588400,1.62258837890625,-0.3246342878447845,1.3431143981218336,0.99895317017138,0.5592385530471802,0.29164919257164,0.0310411788523197,walking,2026-03-04_14-04-11
1772633052752537600,1.63253759765625,-0.5643601222760976,1.0897120301134884,1.4112830944627524,0.5390890836715698,0.1427832841873169,-0.0378473401069641,walking,2026-03-04_14-04-11
1772633052762486500,1.642486572265625,-0.7490083952710032,0.8729030704870819,1.7023299873411657,0.4856151342391968,0.0297797210514545,-0.1220798343420028,walking,2026-03-04_14-04-11
1772633052772435500,1.652435546875,-0.8512706460021435,0.6773248226769268,1.8871259982436892,0.3972588777542114,-0.0260441284626722,-0.2075870186090469,walking,2026-03-04_14-04-11
1772633052782384400,1.66238427734375,-0.9760168234810233,0.5957457328818738,1.9831793113321063,0.2649610340595245,-0.0368917807936668,-0.2941066026687622,walking,2026-03-04_14-04-11
1772633052792333300,1.672333251953125,-1.1149230437375603,0.5637896289117634,2.0435230131357907,0.0976058542728424,-0.0390425510704517,-0.4003451466560364,walking,2026-03-04_14-04-11
1772633052802282200,1.6822822265625,-1.2224245102964342,0.4935881115689873,2.1114584852427245,-0.0850609466433525,-0.0367522239685058,-0.4807022213935852,walking,2026-03-04_14-04-11
1772633052812231400,1.6922314453125,-1.0989404617078602,0.5384411065131426,2.0777035151571037,-0.2674152851104736,-0.0532393231987953,-0.5033161640167236,walking,2026-03-04_14-04-11
1772633052822180600,1.7021806640625,-0.8347218083918094,0.665575055911392,1.8838877469748256,-0.4182548820972442,-0.0711850970983505,-0.4757411181926727,walking,2026-03-04_14-04-11
1772633052832129500,1.712129638671875,-0.6394167514998466,0.8087127762578428,1.5039672233790158,-0.5141105651855469,-0.0761862471699714,-0.423825204372406,walking,2026-03-04_14-04-11
1772633052842078500,1.722078369140625,-0.5996456994624808,0.8739253992721437,1.0254664985656738,-0.5637162923812866,-0.0724448263645172,-0.3841646313667297,walking,2026-03-04_14-04-11
1772633052852027400,1.73202734375,-0.6558898935254663,0.8624091490015388,0.6070423490524292,-0.5748720169067383,-0.0731324553489685,-0.3427618145942688,walking,2026-03-04_14-04-11
1772633052861976300,1.741976318359375,-0.5834664988821372,0.7431856804668903,0.2648217337757348,-0.5331150889396667,-0.0419885516166687,-0.2843968272209167,walking,2026-03-04_14-04-11
1772633052871925200,1.75192529296875,-0.5084027092652396,0.6107610773146153,-0.0582335777819156,-0.4558319747447967,0.0250935461372137,-0.2262222021818161,walking,2026-03-04_14-04-11
1772633052881875500,1.76187548828125,-0.5182864629631861,0.4819366906113922,-0.2285200018167495,-0.3686583042144775,0.0836013555526733,-0.1780488342046737,walking,2026-03-04_14-04-11
1772633052891824400,1.771824462890625,-0.5564056196076795,0.2592535782545805,-0.1833510727912187,-0.2892194092273712,0.0841241329908371,-0.1572064012289047,walking,2026-03-04_14-04-11
1772633052901773600,1.781773681640625,-0.5607783913318067,-0.02553191614151,0.0110439565837383,-0.2231766134500503,0.0501568056643009,-0.1597213298082351,walking,2026-03-04_14-04-11
1772633052911722500,1.791722412109375,-0.5439979003900661,-0.2943079405009746,0.2481318802595138,-0.1792150139808654,-0.0267219971865415,-0.1716959625482559,walking,2026-03-04_14-04-11
1772633052921671400,1.80167138671875,-0.4597983624309301,-0.4612498764134943,0.5127390945017337,-0.1578373610973358,-0.1191447749733924,-0.180572971701622,walking,2026-03-04_14-04-11
1772633052931620400,1.811620361328125,-0.3705516240848228,-0.6080163086511194,0.6315741482406855,-0.145244613289833,-0.1544409841299057,-0.1917981952428817,walking,2026-03-04_14-04-11
1772633052941569300,1.8215693359375,-0.3568432705974206,-0.6943142436616122,0.6352671575397253,-0.1490720957517624,-0.1530415564775467,-0.2058052122592926,walking,2026-03-04_14-04-11
1772633052951518500,1.8315185546875,-0.364645761041902,-0.7006823173888027,0.6193026956886053,-0.1644041836261749,-0.1273636221885681,-0.216493010520935,walking,2026-03-04_14-04-11
1772633052961467400,1.84146728515625,-0.4115944861562922,-0.7202189386382699,0.5674959360837936,-0.1833716183900833,-0.0599579252302646,-0.2283930480480194,walking,2026-03-04_14-04-11
1772633052971416600,1.85141650390625,-0.4301853144556283,-0.6685967418201267,0.5141308411210775,-0.1988829374313354,0.0109519362449646,-0.2271666526794433,walking,2026-03-04_14-04-11
1772633052981365500,1.861365478515625,-0.3722439245533198,-0.5503207832686603,0.4820826749533414,-0.2124520987272262,0.060550607740879,-0.2028423100709915,walking,2026-03-04_14-04-11
1772633052991314400,1.871314453125,-0.2200457861231639,-0.4449173119023442,0.5105354469776153,-0.2105857580900192,0.0749162286520004,-0.1683429181575775,walking,2026-03-04_14-04-11
1772633053001263400,1.881263427734375,-0.1351685315655544,-0.3431884373955428,0.5265864180684089,-0.2005813419818878,0.0580275915563106,-0.1244144886732101,walking,2026-03-04_14-04-11
1772633053011212500,1.891212646484375,-0.0956276350222528,-0.2329981701441109,0.5130319399684667,-0.1867139935493469,0.0209939405322074,-0.0736032426357269,walking,2026-03-04_14-04-11
1772633053021161500,1.901161376953125,-0.0642476869722828,-0.2066395939201116,0.5064952316761017,-0.1772740483283996,-0.0344078876078128,-0.0284946952015161,walking,2026-03-04_14-04-11
1772633053031110400,1.9111103515625,-0.1077041129915043,-0.241004366467148,0.4743178861707449,-0.1667716056108474,-0.080483503639698,0.0046275714412331,walking,2026-03-04_14-04-11
1772633053041059600,1.9210595703125,-0.1710583217227831,-0.334491628459841,0.3466185579746961,-0.1452347189188003,-0.0698204487562179,0.0281341820955276,walking,2026-03-04_14-04-11
1772633053051008500,1.931008544921875,-0.2079777106560766,-0.4086950749203562,0.2024813051968813,-0.1205765083432197,-0.0250852033495903,0.0500831566751003,walking,2026-03-04_14-04-11
1772633053060958700,1.940958740234375,-0.2443742447590455,-0.4612283952340483,0.0743389094084501,-0.0925347432494163,0.0500365160405635,0.0709694176912307,walking,2026-03-04_14-04-11
1772633053070907600,1.95090771484375,-0.2868648214207962,-0.4945385441616177,0.0211620304942131,-0.0661817044019699,0.1321271359920501,0.0874168276786804,walking,2026-03-04_14-04-11
1772633053080856600,1.960856689453125,-0.2820556675733998,-0.5000760122835636,0.0938157632946968,-0.0584773086011409,0.1704348027706146,0.1009376272559166,walking,2026-03-04_14-04-11
1772633053090805500,1.970805419921875,-0.1900776410998776,-0.5427465486221015,0.271537305766344,-0.0514803864061832,0.1934090852737426,0.1217488944530487,walking,2026-03-04_14-04-11
1772633053100754400,1.98075439453125,0.002930281298235,-0.5970508241310716,0.3606237024515867,-0.0198810044676065,0.2231068164110183,0.1643620878458023,walking,2026-03-04_14-04-11
1772633053110703400,1.990703369140625,0.1183029196236282,-0.5628107008770108,0.252411749535799,0.0102723706513643,0.2337272316217422,0.1930557787418365,walking,2026-03-04_14-04-11
1772633053120652500,2.000652587890625,0.1885381200402975,-0.5410840222373604,0.3277753258168697,0.0403399020433425,0.1891446113586425,0.2355291694402694,walking,2026-03-04_14-04-11
1772633053130601700,2.010601806640625,0.3800987297069281,-0.6407908893972635,0.4118541234731674,0.0518500842154026,0.0962580814957618,0.2709148526191711,walking,2026-03-04_14-04-11
1772633053140550700,2.020550537109375,0.3935233343495056,-0.7138437045179307,0.4476502439975738,0.0510299168527126,0.0009414593223482,0.2948674857616424,walking,2026-03-04_14-04-11
1772633053150499600,2.03049951171875,0.2663118262030184,-0.7397983761161565,0.3775456111580133,0.0382765717804431,-0.075566366314888,0.2871909141540527,walking,2026-03-04_14-04-11
1772633053160448500,2.040448486328125,0.0664181628791615,-0.8762854064017533,0.1810351970642805,0.0275169610977172,-0.1371475905179977,0.2585247457027435,walking,2026-03-04_14-04-11
1772633053170397400,2.0503974609375,-0.2133461423540487,-0.9222890326857568,-0.2434159576535224,0.0176408942788839,-0.1226136535406112,0.2433793246746063,walking,2026-03-04_14-04-11
1772633053180346400,2.060346435546875,-0.4225707477986812,-0.8397339374653995,-0.7198071429669857,0.0071537196636199,-0.0847686976194381,0.2044876217842102,walking,2026-03-04_14-04-11
1772633053190295600,2.070295654296875,-0.6645050155270844,-0.8496212713599205,-1.121116491550207,-0.0027553704567253,-0.0392408892512321,0.1752170920372009,walking,2026-03-04_14-04-11
1772633053200244700,2.08024462890625,-0.8136214449569582,-0.7820490796074271,-1.471790462395549,0.019801914691925,0.0413327068090438,0.1744765043258667,walking,2026-03-04_14-04-11
1772633053210193700,2.090193603515625,-0.7880034579671918,-0.710151425871253,-1.8549393003880976,0.0835742354393005,0.1806168258190155,0.201797604560852,walking,2026-03-04_14-04-11
1772633053220142600,2.100142578125,-0.7764324818346648,-0.661705959393084,-2.2092232784241435,0.185712531208992,0.3339388966560364,0.2550004720687866,walking,2026-03-04_14-04-11
1772633053230092500,2.110092529296875,-0.6585623276051134,-0.6611537323378026,-2.3539362852633,0.3113847076892853,0.4478156566619873,0.3196495175361633,walking,2026-03-04_14-04-11
1772633053240041500,2.12004150390625,-0.4543617974001914,-0.7654106640174985,-2.21238203471601,0.4158272445201874,0.4617360830307007,0.3776831030845642,walking,2026-03-04_14-04-11
1772633053249990400,2.129990478515625,-0.3150390322320163,-0.8939803453072905,-1.7040753697037696,0.4704923331737518,0.3709339797496795,0.4187362790107727,walking,2026-03-04_14-04-11
1772633053259939300,2.139939208984375,-0.2493683632519095,-1.0450964971870182,-1.074806575796008,0.4802874028682709,0.2249395847320556,0.4451755881309509,walking,2026-03-04_14-04-11
1772633053269888500,2.149888427734375,-0.2823062448009848,-1.113658284498751,-0.6243570564687252,0.4614684581756592,0.081478014588356,0.4590791761875152,walking,2026-03-04_14-04-11
1772633053279837700,2.159837646484375,-0.4442867589138448,-1.118939439772069,-0.4284621439248323,0.4074642062187195,-0.0200777407735586,0.4488760828971863,walking,2026-03-04_14-04-11
1772633053289786600,2.16978662109375,-0.6367956822812557,-1.0445292186930777,-0.3814654149502515,0.3316919505596161,-0.1376480460166931,0.3583829402923584,walking,2026-03-04_14-04-11
1772633053299735600,2.179735595703125,-0.7966244251877069,-1.0189809359386564,-0.4550228185921907,0.2319461107254028,-0.2519262135028839,0.2329592108726501,walking,2026-03-04_14-04-11
1772633053309684500,2.1896845703125,-0.8535056385125964,-0.9019888797178864,-0.5453758742123842,0.1282703131437301,-0.3016868233680725,0.1336014717817306,walking,2026-03-04_14-04-11
1772633053319633400,2.19963330078125,-0.8187598307587206,-0.574049741641432,-0.7318465403288602,0.0340128093957901,-0.2843278348445892,0.0782953649759292,walking,2026-03-04_14-04-11
1772633053329582300,2.209582275390625,-0.7685071687281131,-0.0693168434627354,-1.0347831929653883,-0.0386901572346687,-0.2321154773235321,0.0440575033426284,walking,2026-03-04_14-04-11
1772633053339531800,2.21953173828125,-0.672228887777403,0.4436702344506978,-1.277620473948121,-0.0732513889670372,-0.1548730283975601,0.0190377198159694,walking,2026-03-04_14-04-11
1772633053349480700,2.229480712890625,-0.4463736847231164,0.8384912439279257,-1.462311855432391,-0.0748410299420356,-0.0952943712472915,0.017432365566492,walking,2026-03-04_14-04-11
1772633053359429600,2.2394296875,-0.1669242541253566,1.2508879498451948,-1.5267565628141164,-0.0478934608399868,-0.0719631686806678,0.0606572665274143,walking,2026-03-04_14-04-11
1772633053369378600,2.249378662109375,0.1540880072973668,1.5535666821978986,-1.50175889967978,-0.0050136414356529,-0.082796111702919,0.1425702422857284,walking,2026-03-04_14-04-11
1772633053379327500,2.259327392578125,0.30865024451036,1.8043866324976088,-1.421988612872362,0.0338579937815666,-0.1011201590299606,0.2229837924242019,walking,2026-03-04_14-04-11
1772633053389276400,2.2692763671875,0.3059456617267802,1.868060647767782,-1.328320733615756,0.0748131498694419,-0.1018384099006652,0.2755825519561767,walking,2026-03-04_14-04-11
1772633053399226600,2.2792265625,0.277519448915869,1.6933496852889656,-1.290325057220459,0.1446989327669143,-0.0793731659650802,0.3099404871463775,walking,2026-03-04_14-04-11
1772633053409175600,2.289175537109375,0.2525834893735125,1.5613137891933322,-1.2324597282290457,0.2456910610198974,-0.0329614616930484,0.3420014679431915,walking,2026-03-04_14-04-11
1772633053419124500,2.29912451171875,0.3005247691892087,1.4490985919855537,-1.1077192498385906,0.3507236242294311,0.0673990026116371,0.3542960286140442,walking,2026-03-04_14-04-11
1772633053429073700,2.30907373046875,0.3285183627365157,1.235401188508421,-0.8331909455627202,0.4246582984924316,0.1825985610485077,0.3568236529827118,walking,2026-03-04_14-04-11
1772633053439022600,2.319022705078125,0.3670749609502032,1.063424034907669,-0.2855605704218149,0.4566047191619873,0.2624452710151672,0.3579370975494385,walking,2026-03-04_14-04-11
1772633053448971500,2.328971435546875,0.4437652923230081,0.936448344811052,0.3327870164990424,0.4514879882335663,0.3123427927494049,0.349905252456665,walking,2026-03-04_14-04-11
1772633053458920400,2.33892041015625,0.4946296565111726,0.8645419232465327,0.9027882134020327,0.4222137033939361,0.3287201523780823,0.3357740044593811,walking,2026-03-04_14-04-11
1772633053468869400,2.348869384765625,0.5105301862806082,0.8329230884067713,1.351556647774577,0.3848844468593597,0.2979486584663391,0.3170881867408752,walking,2026-03-04_14-04-11
1772633053478818600,2.358818603515625,0.5648154282955452,0.8195327148273587,1.669848105931282,0.3440500795841217,0.2397791296243667,0.2889439463615417,walking,2026-03-04_14-04-11
1772633053488767700,2.368767822265625,0.5611007186213508,0.850661866454035,1.8903414531588556,0.2873612344264984,0.1407838463783264,0.253999799489975,walking,2026-03-04_14-04-11
1772633053498716700,2.378716552734375,0.4952320428511128,0.8097992563202977,2.0837299358397723,0.2205162942409515,0.0123158562928438,0.200638547539711,walking,2026-03-04_14-04-11
1772633053508665600,2.38866552734375,0.4514325390152633,0.7757606469877064,2.147726314932108,0.1490466296672821,-0.0858794227242469,0.1418804228305816,walking,2026-03-04_14-04-11
1772633053518614500,2.398614501953125,0.3979042893800884,0.7444599381864071,2.0680033743977546,0.0726257190108299,-0.1524770557880401,0.0999741554260253,walking,2026-03-04_14-04-11
1772633053528563500,2.4085634765625,0.3716304688300937,0.8271198089554905,1.9348878663718696,-0.016151824966073,-0.1938372701406479,0.0709861814975738,walking,2026-03-04_14-04-11
1772633053538512400,2.418512451171875,0.2688690729377791,0.8949725712150335,1.684294564434886,-0.1139432713389396,-0.2033624798059463,0.0465330965816974,walking,2026-03-04_14-04-11
1772633053548461300,2.42846142578125,0.1151478165935725,0.93675054262802,1.356800978168845,-0.2165402173995971,-0.2039555758237838,0.012155681848526,walking,2026-03-04_14-04-11
1772633053558410800,2.43841064453125,-0.0378095061734318,0.9334270972937344,1.045326214289665,-0.3121936917304992,-0.2157418131828308,-0.0315792486071586,walking,2026-03-04_14-04-11
1772633053568360400,2.4483603515625,-0.153097900281474,0.9981986985422672,0.7088415123164653,-0.3842585682868957,-0.2091587483882904,-0.0647129714488983,walking,2026-03-04_14-04-11
1772633053578309600,2.4583095703125,-0.2313884333925321,1.0981316295430064,0.3284031023263931,-0.4173323512077331,-0.1524167656898498,-0.0759411379694938,walking,2026-03-04_14-04-11
1772633053588258600,2.468258544921875,-0.1987135136285796,1.2246572377845644,-0.0082435122102499,-0.4117863178253174,-0.0563949011266231,-0.0574406832456588,walking,2026-03-04_14-04-11
1772633053598207500,2.47820751953125,-0.0720609910717234,1.3065230355665087,-0.2452566170841455,-0.3644797503948211,0.0612339861690998,8.1290490925e-06,walking,2026-03-04_14-04-11
1772633053608156400,2.488156494140625,0.1445635518984869,1.3117017533786597,-0.3747586107879876,-0.2847002446651459,0.1544896215200424,0.0826319083571434,walking,2026-03-04_14-04-11
1772633053618105600,2.498105712890625,0.341334333961457,1.2646370737344026,-0.3189186501443385,-0.2060278356075287,0.1762850880622863,0.1580934822559356,walking,2026-03-04_14-04-11
1772633053628054500,2.508054443359375,0.3822697536030784,1.118089544944465,-0.001870470046997,-0.144172191619873,0.1255816966295242,0.2065542191267013,walking,2026-03-04_14-04-11
1772633053638003700,2.518003662109375,0.3396477691140026,0.8019741156525909,0.3642518298208713,-0.1127243041992187,0.0492202937602996,0.2217211872339248,walking,2026-03-04_14-04-11
1772633053647952600,2.52795263671875,0.2094476736107841,0.472212876715511,0.6558604482352733,-0.1112571656703949,-0.0314625650644302,0.2048452645540237,walking,2026-03-04_14-04-11
1772633053657901600,2.537901611328125,0.0115324342204257,0.1790267798513174,0.8229542137086391,-0.1253412067890167,-0.0723175406455993,0.1562083959579467,walking,2026-03-04_14-04-11
1772633053667850500,2.5478505859375,-0.1697433666666969,-0.064245677678287,0.8033464269191026,-0.1403625011444091,-0.0480422973632812,0.1088709756731987,walking,2026-03-04_14-04-11
1772633053677799400,2.55779931640625,-0.1394909248093143,-0.1667462672099471,0.7656441805124282,-0.1581254303455352,-0.007947776466608,0.0930504724383354,walking,2026-03-04_14-04-11
1772633053687748400,2.567748291015625,-0.0006335121305659,-0.1936778210163116,0.8202759344100952,-0.1840851306915283,0.0127641595900058,0.0994420573115348,walking,2026-03-04_14-04-11
1772633053697697500,2.577697509765625,0.1863339975921437,-0.2506093762889504,0.9488573061376808,-0.2082874476909637,0.0155626330524683,0.1131566911935806,walking,2026-03-04_14-04-11
1772633053707646700,2.587646728515625,0.3205564074140042,-0.3279442526429891,1.0039075777083637,-0.2252102345228195,0.0048902807757258,0.1176997795701026,walking,2026-03-04_14-04-11
1772633053717595600,2.597595703125,0.2980838423104957,-0.4101137095466255,0.9742050978839396,-0.2409083843231201,-0.0391497798264026,0.0988967344164848,walking,2026-03-04_14-04-11
1772633053727544600,2.607544677734375,0.2220355351682752,-0.5005706639327109,0.9332271908074616,-0.2466530948877334,-0.0898505076766014,0.0606739781796932,walking,2026-03-04_14-04-11
1772633053737493500,2.617493408203125,0.1825931670960038,-0.6088599198684096,0.7651087584614753,-0.2374785244464874,-0.1101606339216232,0.0171685498207807,walking,2026-03-04_14-04-11
1772633053747443500,2.627443359375,0.1577385291615501,-0.6077754856325686,0.5464367814421653,-0.223794400691986,-0.1146501898765564,-0.0155081693083047,walking,2026-03-04_14-04-11
1772633053757392600,2.637392578125,0.1885876582704484,-0.5322761541426182,0.3588274666845798,-0.2070334553718567,-0.11415546387434,-0.0263547990471124,walking,2026-03-04_14-04-11
1772633053767341600,2.647341552734375,0.2690474251793697,-0.4734668222993612,0.2198737540245056,-0.1885710805654525,-0.0846364572644233,-0.0227262433618307,walking,2026-03-04_14-04-11
1772633053777290500,2.65729052734375,0.3013683804064989,-0.4401800542473792,0.080577511537075,-0.1612419486045837,-0.0231338273733854,-0.0105911251157522,walking,2026-03-04_14-04-11
1772633053787239400,2.667239501953125,0.3214908021872863,-0.4369980632103979,-0.0143780694425106,-0.1323040425777435,0.0561982803046703,0.0088677937164902,walking,2026-03-04_14-04-11
1772633053797188600,2.677188720703125,0.3296222688578069,-0.4911787123396992,0.0308744462132453,-0.1112821549177169,0.1036372482776641,0.0169555321335792,walking,2026-03-04_14-04-11
1772633053807137500,2.687137451171875,0.3020939182020724,-0.6265303088545799,0.2034387520521879,-0.0956525951623916,0.119472399353981,0.0119072422385215,walking,2026-03-04_14-04-11
1772633053817086500,2.69708642578125,0.2716577903408557,-0.8079280556209385,0.3603805413454771,-0.0830716490745544,0.1340047717094421,-0.0162434820085763,walking,2026-03-04_14-04-11
1772633053827035600,2.70703564453125,0.2301821628753095,-0.9908173561193048,0.477943090930581,-0.0967302024364471,0.1113535091280937,-0.0567506924271583,walking,2026-03-04_14-04-11
1772633053836984600,2.716984619140625,0.1803021335493773,-1.1102401466183365,0.6746218473285436,-0.1333694010972976,0.0154950879514217,-0.1091605946421623,walking,2026-03-04_14-04-11
1772633053846933500,2.72693359375,0.2014007068859413,-1.1938432895869016,0.7887596831619739,-0.1588523983955383,-0.1092098206281662,-0.1553786844015121,walking,2026-03-04_14-04-11
1772633053856882700,2.736882568359375,0.3291504500949755,-1.1865087089151145,0.557314149287343,-0.1303536742925644,-0.1809789538383484,-0.1764058619737625,walking,2026-03-04_14-04-11
1772633053866831600,2.74683154296875,0.4060539858270436,-1.0398903068460523,0.0012175590962171,-0.0596275739371776,-0.1881708204746246,-0.1766689866781234,walking,2026-03-04_14-04-11
1772633053876780500,2.756780517578125,0.4276069153349846,-0.8951626869596541,-0.499901824760437,0.0157384555786848,-0.170943796634674,-0.1786588132381439,walking,2026-03-04_14-04-11
1772633053886729500,2.7667294921875,0.4622471438225358,-0.8512417121686041,-0.7380185069620608,0.0693116709589958,-0.1556593924760818,-0.1786636114120483,walking,2026-03-04_14-04-11
1772633053896678400,2.776678466796875,0.5403813173281029,-0.8299962411746382,-0.793067609488964,0.0973662957549095,-0.1313125938177108,-0.1688659191131591,walking,2026-03-04_14-04-11
1772633053906627600,2.786627685546875,0.5618844894101843,-0.7680003882497548,-0.7959054632633924,0.1064916178584098,-0.1010308563709259,-0.15226911008358,walking,2026-03-04_14-04-11
1772633053916577500,2.79657763671875,0.5542023374097421,-0.6856849470041692,-0.8071358823299407,0.1019557788968086,-0.0691137388348579,-0.1264654248952865,walking,2026-03-04_14-04-11
1772633053926526500,2.8065263671875,0.5396136208912358,-0.6113765788644552,-0.8091898922502994,0.0936469808220863,-0.0503179468214511,-0.1039798259735107,walking,2026-03-04_14-04-11
1772633053936475400,2.816475341796875,0.5469928809549659,-0.5669844794303178,-0.7992074274182319,0.1039455980062484,-0.0324706248939037,-0.0762294754385948,walking,2026-03-04_14-04-11
1772633053946424600,2.826424560546875,0.6059815879531204,-0.5373726004987954,-0.8677005334079265,0.1406940221786499,-3.0126189813e-05,-0.0372181646525859,walking,2026-03-04_14-04-11
1772633053956373500,2.83637353515625,0.7391635853439569,-0.5436915743872524,-0.9381704924285412,0.2017854750156402,0.0361753813922405,0.0105346487835049,walking,2026-03-04_14-04-11
1772633053966322700,2.84632275390625,0.8883987457826733,-0.6556856761902571,-0.9592413375079633,0.2657127678394317,0.0372502319514751,0.050724945962429,walking,2026-03-04_14-04-11
1772633053976271600,2.856271728515625,0.982183967808634,-0.7807007337383925,-0.8137462403804063,0.3107166886329651,-0.0243425983935594,0.0690491795539856,walking,2026-03-04_14-04-11
1772633053986220500,2.866220458984375,0.9570042261056602,-0.9004046792663634,-0.6005611703395843,0.33945032954216,-0.1134999021887779,0.0618429370224475,walking,2026-03-04_14-04-11
1772633053996169500,2.87616943359375,0.8343348549008369,-1.0226562634505332,-0.5176701211631298,0.3507114946842193,-0.1689241528511047,0.0357980094850063,walking,2026-03-04_14-04-11
1772633054006119200,2.886119140625,0.597985328502208,-1.0353693222902716,-0.5609095434308051,0.3495583236217499,-0.1801328659057617,-0.0055651450529694,walking,2026-03-04_14-04-11
1772633054016068000,2.896068115234375,0.3331326881315559,-0.9604382922075688,-0.6716390321254729,0.319132924079895,-0.1636547148227691,-0.0526597499847412,walking,2026-03-04_14-04-11
1772633054026017500,2.906017578125,0.1527268019467592,-0.8803710682801902,-0.7105249353587627,0.2578794360160827,-0.1488853693008422,-0.1072984933853149,walking,2026-03-04_14-04-11
1772633054035966500,2.915966552734375,0.0255227464543655,-0.8089274419218301,-0.6450584837138652,0.1635617017745971,-0.1533640027046203,-0.159907117486,walking,2026-03-04_14-04-11
1772633054045915400,2.925915283203125,-0.0733969706495292,-0.6673094784885645,-0.5727215617775917,0.0492527037858963,-0.1740301251411438,-0.2003996819257736,walking,2026-03-04_14-04-11
1772633054055864300,2.9358642578125,-0.1943638487854041,-0.4103060172483325,-0.6011994682431221,-0.0722548216581344,-0.2133202105760574,-0.2286953777074813,walking,2026-03-04_14-04-11
1772633054065813200,2.945813232421875,-0.3480099392678588,-0.087736297250539,-0.729472796934843,-0.1814039498567581,-0.2524553835391998,-0.2401301860809326,walking,2026-03-04_14-04-11
1772633054075762200,2.95576220703125,-0.5013498681442812,0.2613550805784762,-1.033037810602784,-0.262180745601654,-0.2886312305927276,-0.2367774695158004,walking,2026-03-04_14-04-11
1772633054085712400,2.96571240234375,-0.6717533061549067,0.6312153979308903,-1.391964061486721,-0.2876520156860351,-0.2724208533763885,-0.2283818572759628,walking,2026-03-04_14-04-11
1772633054095661300,2.975661376953125,-0.8174776819936931,0.9219532248601316,-1.839457069095969,-0.2455977201461792,-0.1571489870548248,-0.2157197147607803,walking,2026-03-04_14-04-11
1772633054105610500,2.985610595703125,-0.9781373227663338,1.2303477045111355,-2.242638056769967,-0.1632125526666641,0.0213911961764097,-0.201791912317276,walking,2026-03-04_14-04-11
1772633054115559400,2.995559326171875,-1.0872778617691248,1.535572906476259,-2.279641799518466,-0.0382053293287754,0.1863955855369568,-0.1571060419082641,walking,2026-03-04_14-04-11
1772633054125508400,3.00550830078125,-0.8783044911392033,1.66303521104604,-2.1648516372561453,0.1271330267190933,0.3218415677547455,-0.0977915748953819,walking,2026-03-04_14-04-11
1772633054135457300,3.015457275390625,-0.670507470812276,1.863204732169211,-1.824005232942104,0.2998829185962677,0.3894385397434234,-0.0379943326115608,walking,2026-03-04_14-04-11
1772633054145406200,3.02540625,-0.4935110277447849,1.975268392077088,-1.208957856610417,0.4578243494033813,0.3647329211235046,0.0192902628332376,walking,2026-03-04_14-04-11
1772633054155355400,3.03535546875,-0.237460647711996,1.9289666596293449,-0.5159592255920171,0.5839704275131226,0.2979604601860046,0.0712251886725425,walking,2026-03-04_14-04-11
1772633054165304300,3.04530419921875,-0.138908923670277,1.7833941133514046,0.0876473037928342,0.6738044619560242,0.2193095833063125,0.1015868261456489,walking,2026-03-04_14-04-11
1772633054175253500,3.05525341796875,-0.115979773905687,1.5576174188934266,0.5892910037845372,0.718213677406311,0.1411711126565933,0.1051856502890586,walking,2026-03-04_14-04-11
1772633054185202400,3.065202392578125,-0.2144145022379234,1.3098406356818972,1.0194465076237915,0.7048001289367676,0.0456112921237945,0.0803540721535682,walking,2026-03-04_14-04-11
1772633054195151400,3.0751513671875,-0.430519624443911,1.1227350326627492,1.4348118540883064,0.628410279750824,-0.0659155622124672,0.0187856554985046,walking,2026-03-04_14-04-11
1772633054205100300,3.085100341796875,-0.6631716480314731,0.8665611541144549,1.739431345245242,0.4943004250526428,-0.1715296059846878,-0.0812261626124382,walking,2026-03-04_14-04-11
1772633054215049200,3.09504931640625,-0.934862098532915,0.6226058288872242,1.8917618413507935,0.3140372335910797,-0.2470705211162567,-0.2184140980243683,walking,2026-03-04_14-04-11
1772633054224998100,3.104998046875,-1.2382217988871038,0.4720733221143484,1.806898615318537,0.1105570718646049,-0.2501011788845062,-0.3652615845203399,walking,2026-03-04_14-04-11
1772633054234947300,3.114947265625,-1.3477392814435063,0.4743666937485337,1.5533026244342327,-0.0836283788084983,-0.1831593066453933,-0.4723592698574066,walking,2026-03-04_14-04-11
1772633054244896500,3.124896484375,-1.2092791975192725,0.568188886784017,1.1466326256006956,-0.2459371238946914,-0.0809469223022461,-0.5326657891273499,walking,2026-03-04_14-04-11
1772633054254845400,3.134845458984375,-0.9540363162107766,0.8381877309367061,0.6956447616130114,-0.3498447835445404,0.0252387449145317,-0.5364532470703125,walking,2026-03-04_14-04-11
1772633054264795400,3.14479541015625,-0.6564551261927932,1.105186662621051,0.2863327238380909,-0.398323118686676,0.1263033002614975,-0.487836480140686,walking,2026-03-04_14-04-11
1772633054274744300,3.154744384765625,-0.3452472330888733,1.269958122626692,0.0021498715102672,-0.399765282869339,0.16990727186203,-0.4102666079998016,walking,2026-03-04_14-04-11
1772633054284693200,3.164693359375,-0.081832443501614,1.3019490056492389,-0.1966851861387491,-0.3496568500995636,0.1721352636814117,-0.3233567476272583,walking,2026-03-04_14-04-11
1772633054294642400,3.174642333984375,0.043196679104492,1.2185815711326895,-0.3320259689986705,-0.2630581557750702,0.1595260947942733,-0.2471231371164322,walking,2026-03-04_14-04-11
1772633054304591400,3.18459130859375,0.0134133891288191,1.098542840692401,-0.3877332431733608,-0.1657667458057403,0.1405199021100998,-0.2064071297645568,walking,2026-03-04_14-04-11
1772633054314540300,3.194540283203125,-0.1024579924989491,0.8678744286701082,-0.3376777111500501,-0.0858479887247085,0.1084057986736297,-0.1955327987670898,walking,2026-03-04_14-04-11
1772633054324489500,3.204489501953125,-0.2137522024042904,0.5990259235963225,-0.1358317812472581,-0.0324161946773529,0.0811864286661148,-0.1991933137178421,walking,2026-03-04_14-04-11
1772633054334438400,3.2144384765625,-0.2523846788657829,0.3642196811169386,0.1193178688198327,0.0006547207012772,0.0647551715373992,-0.2008314132690429,walking,2026-03-04_14-04-11
1772633054344387300,3.22438720703125,-0.205867915427871,0.231232767906785,0.3689455405950546,0.0069083557464182,0.0713217258453369,-0.1934613734483719,walking,2026-03-04_14-04-11
1772633054354336300,3.234336181640625,-0.1025779290841892,0.1439258019842207,0.5948316867768764,-0.0088825915008783,0.0863038152456283,-0.1620678901672363,walking,2026-03-04_14-04-11
1772633054364285200,3.24428515625,0.0096531598124653,0.0573728692993521,0.8473299455523491,-0.0468576699495315,0.0785726532340049,-0.1226035729050636,walking,2026-03-04_14-04-11
1772633054374234400,3.254234375,0.0359188335886225,-0.0361412807002663,1.0376625477939845,-0.0895405560731887,0.0691199973225593,-0.0955770909786224,walking,2026-03-04_14-04-11
1772633054384183300,3.264183349609375,0.0023273469690233,-0.1731131718933582,1.1104852074205875,-0.123258575797081,0.0719373524188995,-0.0800098478794097,walking,2026-03-04_14-04-11
1772633054394132500,3.274132568359375,-0.0232569569468498,-0.265740894447267,1.1368377922952175,-0.1526603102684021,0.0740027427673339,-0.0686266720294952,walking,2026-03-04_14-04-11
1772633054404081400,3.284081298828125,-0.064921494580619,-0.3148303579173982,1.180629003226757,-0.1818621307611465,0.0470632724463939,-0.0573790743947029,walking,2026-03-04_14-04-11
1772633054414030300,3.2940302734375,-0.0594944645632058,-0.3469071656577289,1.1846259639084338,-0.2063175439834594,0.0098155373707413,-0.0461042411625385,walking,2026-03-04_14-04-11
1772633054423979300,3.303979248046875,-0.063139433469437,-0.3702314887523651,1.1052204187601804,-0.2195848822593689,-0.0239584036171436,-0.0349234901368618,walking,2026-03-04_14-04-11
1772633054433928200,3.31392822265625,-0.1005815676352009,-0.3662026716277003,1.0086439585804938,-0.2355042099952697,-0.0737306252121925,-0.0300384666770696,walking,2026-03-04_14-04-11
1772633054443878400,3.32387841796875,-0.1933344874713569,-0.3297811126813292,0.9033125295370816,-0.235190212726593,-0.1122588366270065,-0.0377286113798618,walking,2026-03-04_14-04-11
1772633054453827300,3.333827392578125,-0.2519857426760718,-0.2861924385845661,0.6408961033374071,-0.2115784138441085,-0.0979300290346145,-0.0339432246983051,walking,2026-03-04_14-04-11
1772633054463776300,3.3437763671875,-0.2727832872394472,-0.1868663874357938,0.337646146968007,-0.1860863715410232,-0.0619009211659431,-0.0116943772882223,walking,2026-03-04_14-04-11
1772633054473725400,3.353725341796875,-0.2589581024393439,-0.0545341387420892,0.2711965295046568,-0.1796663254499435,-0.0410010814666748,0.0217257682234048,walking,2026-03-04_14-04-11
1772633054483674400,3.36367431640625,-0.2487844624167308,0.0379531524278223,0.3218862677782774,-0.1808218657970428,-0.0073379259556531,0.0567932054400444,walking,2026-03-04_14-04-11
1772633054493623300,3.373623291015625,-0.2105822305986657,0.0352320569008588,0.3191092042803764,-0.1858724504709243,0.0434490665793418,0.1011335551738739,walking,2026-03-04_14-04-11
1772633054503572200,3.383572265625,-0.1068495785214006,0.039503596740216,0.3689642452955246,-0.1892059296369552,0.0795668587088584,0.1487013399600982,walking,2026-03-04_14-04-11
1772633054513521400,3.393521484375,-0.0873267666015774,0.0143792384862899,0.482872364026308,-0.1991927921772003,0.1023372188210487,0.1802596598863601,walking,2026-03-04_14-04-11
1772633054523470300,3.40347021484375,-0.1006089670987799,-0.0753640146724879,0.5973275952458381,-0.1965418756008148,0.1171403974294662,0.1977571547031402,walking,2026-03-04_14-04-11
1772633054533419300,3.413419189453125,-0.0862284499708563,-0.1532045024611055,0.6056359893858433,-0.186596393585205,0.1012817621231079,0.2112799733877182,walking,2026-03-04_14-04-11
1772633054543368400,3.423368408203125,-0.0900667860247194,-0.1786411415345966,0.6133925948619842,-0.1703388690948486,0.0517688058316707,0.2163783311843872,walking,2026-03-04_14-04-11
1772633054553317400,3.4333173828125,-0.0359071796834468,-0.2297998124942183,0.56237377076447,-0.1402666270732879,0.0201364159584045,0.2296776622533798,walking,2026-03-04_14-04-11
1772633054563266300,3.443266357421875,0.0527039276402443,-0.2741436888724565,0.4447469237715005,-0.1024782359600067,0.010832130908966,0.2540759742259979,walking,2026-03-04_14-04-11
1772633054573215200,3.45321533203125,0.0953777519144117,-0.270684049937874,0.3009545389086008,-0.0698367580771446,-0.0151193523779511,0.2790591716766357,walking,2026-03-04_14-04-11
1772633054583164400,3.463164306640625,0.1059037125060334,-0.301754164853692,0.2080196501016616,-0.0430557429790496,-0.0238750260323286,0.3010430335998535,walking,2026-03-04_14-04-11
1772633054593113300,3.47311328125,0.0944678339952602,-0.3814940565228462,0.0835135649889707,-0.0263633131980896,-0.0194191541522741,0.3241153359413147,walking,2026-03-04_14-04-11
1772633054603062300,3.483062255859375,-0.0186340098539367,-0.4389570883236825,0.0196112939208745,-0.0292816050350666,-0.0217752531170845,0.3247710168361664,walking,2026-03-04_14-04-11
1772633054613012200,3.49301220703125,-0.2436267508599907,-0.5328362722434103,-0.0623316607505083,-0.0469230487942695,-0.0108827585354447,0.2973471879959106,walking,2026-03-04_14-04-11
1772633054622961400,3.50296142578125,-0.4574277243094518,-0.6490466765671968,-0.1547095001965761,-0.0725559815764427,0.0059731863439083,0.2528606653213501,walking,2026-03-04_14-04-11
1772633054632910300,3.512910400390625,-0.5649781445765868,-0.7305385264702141,-0.3060784577935934,-0.0948903560638427,0.0100128771737217,0.2101677656173706,walking,2026-03-04_14-04-11
1772633054642859300,3.522859375,-0.5834874686049297,-0.7077728601716459,-0.5738181248426437,-0.0973010435700416,0.0261732041835784,0.1877716332674026,walking,2026-03-04_14-04-11
1772633054652808400,3.532808349609375,-0.5523171447176486,-0.6077097269199788,-0.8869552689760923,-0.0783843472599983,0.0360687114298343,0.1936226040124893,walking,2026-03-04_14-04-11
1772633054662757400,3.54275732421875,-0.5098626988152042,-0.4929727561496198,-1.1384750381082296,-0.0407924987375736,0.0703305453062057,0.2135667502880096,walking,2026-03-04_14-04-11
1772633054672706300,3.552706298828125,-0.5324037991102785,-0.4362181648790836,-1.3821551996558905,0.0233976263552904,0.1168486550450325,0.2428754717111587,walking,2026-03-04_14-04-11
1772633054682655200,3.5626552734375,-0.5377131575647741,-0.4440883137322962,-1.5914812561810017,0.1091223880648613,0.1942401230335235,0.2724743783473968,walking,2026-03-04_14-04-11
1772633054692604400,3.5726044921875,-0.6413529071941971,-0.4487491451501846,-1.7471365127950906,0.1995473057031631,0.2851372063159942,0.2918552458286285,walking,2026-03-04_14-04-11
1772633054702553300,3.58255322265625,-0.6962966496504843,-0.5392673282042145,-1.6963748783290384,0.2827143669128418,0.3710486590862274,0.3188967108726501,walking,2026-03-04_14-04-11
1772633054712502300,3.592502197265625,-0.6154794841386377,-0.7038312829390168,-1.4597610019057987,0.3454334437847137,0.4076959788799286,0.3626914918422699,walking,2026-03-04_14-04-11
1772633054722451500,3.602451416015625,-0.488368623355031,-0.8240586678192019,-1.039772671815753,0.3751988112926483,0.3576123118400574,0.4097561836242676,walking,2026-03-04_14-04-11
1772633054732400400,3.612400390625,-0.4153338188150897,-0.9658307989008724,-0.5636269856959581,0.3660188317298889,0.2549062073230743,0.4327929317951202,walking,2026-03-04_14-04-11
1772633054742349300,3.622349365234375,-0.4673610893027857,-1.1413304275393483,-0.2285112339884042,0.3380508720874786,0.1525790393352508,0.4191447794437408,walking,2026-03-04_14-04-11
1772633054752298200,3.63229833984375,-0.6956035528197884,-1.2983619409427043,-0.1526864699363708,0.3037039637565613,0.0682818964123725,0.3538199067115783,walking,2026-03-04_14-04-11
1772633054762247400,3.642247314453125,-0.910623875463754,-1.3544796956144272,-0.1984463505923747,0.2684295773506164,0.009739227592945,0.2712168991565704,walking,2026-03-04_14-04-11
1772633054772196400,3.6521962890625,-0.9538223811991512,-1.3096106263183056,-0.3495972815245389,0.2452664226293563,0.0130762476474046,0.2062772959470749,walking,2026-03-04_14-04-11
1772633054782145300,3.662145263671875,-0.8429324412457645,-1.1374138386175037,-0.5565840814471245,0.2235675156116485,0.0524681247770786,0.1750179082155227,walking,2026-03-04_14-04-11
1772633054792095500,3.672095458984375,-0.6526533227570355,-0.8952370673701167,-0.6696785457074642,0.1950429677963256,0.0968787893652916,0.1711893379688263,walking,2026-03-04_14-04-11
1772633054802044400,3.68204443359375,-0.3989627854570746,-0.7174230243094265,-0.6456383294284344,0.1570034325122833,0.1059114262461662,0.1720623224973678,walking,2026-03-04_14-04-11
1772633054811993300,3.691993408203125,-0.2095036050491034,-0.60665378812626,-0.5499573567837477,0.1027114912867546,0.0496474876999855,0.1585981100797653,walking,2026-03-04_14-04-11
1772633054821942300,3.7019423828125,-0.156316862327978,-0.4178858048528432,-0.4778986672669649,0.0442319326102733,-0.0223593264818191,0.1295251697301864,walking,2026-03-04_14-04-11
1772633054831891200,3.71189111328125,-0.2085731557985767,-0.2193234266653657,-0.5635691180288791,-0.0015842891298234,-0.0570223070681095,0.0945177674293518,walking,2026-03-04_14-04-11
1772633054841840400,3.72184033203125,-0.3172224041530862,-0.0019373978033661,-0.7783680530071259,-0.0478274151682853,-0.0917848125100135,0.0491630621254444,walking,2026-03-04_14-04-11
1772633054851789300,3.731789306640625,-0.3776892574124038,0.2083744548887014,-0.953512438467145,-0.0855769738554954,-0.1380307823419571,0.0078787254169583,walking,2026-03-04_14-04-11
1772633054861738500,3.741738525390625,-0.3079715780638158,0.4150958818733692,-1.1475795510619875,-0.1057456210255622,-0.2079249173402786,-0.0007850702386349,walking,2026-03-04_14-04-11
1772633054871687400,3.7516875,-0.2353108310006558,0.6994818555578589,-1.3743728752166031,-0.1005105152726173,-0.2565681040287018,0.0153211448341608,walking,2026-03-04_14-04-11
1772633054881636400,3.76163623046875,-0.2792708956930786,0.9101679483897984,-1.737525219362974,-0.0478275939822196,-0.2244179099798202,0.0277029797434806,walking,2026-03-04_14-04-11
1772633054891585300,3.771585205078125,-0.4460118291407823,1.0560863854959606,-2.1624434070706364,0.0475794859230518,-0.112989418208599,0.0332002006471157,walking,2026-03-04_14-04-11
1772633054901534200,3.7815341796875,-0.58760969963409,1.2148239721648395,-2.382612929171324,0.1815825700759887,0.0481640473008155,0.0568432137370109,walking,2026-03-04_14-04-11
1772633054911483400,3.7914833984375,-0.5572403168661519,1.3286730541847644,-2.37172796254158,0.332028865814209,0.2557989656925201,0.1033662855625152,walking,2026-03-04_14-04-11
1772633054921432300,3.801432373046875,-0.3915043226772919,1.3385599496878682,-2.0495587861686944,0.4516966938972473,0.4481172859668731,0.1367426067590713,walking,2026-03-04_14-04-11
1772633054931381200,3.81138134765625,-0.2524763757372275,1.2805863380163909,-1.2376409302592275,0.5187815427780151,0.565649151802063,0.1625891476869583,walking,2026-03-04_14-04-11
1772633054941330400,3.821330322265625,-0.037549978454411,1.125380286474526,-0.2561485979765653,0.5581395626068115,0.6205869913101196,0.1872851699590683,walking,2026-03-04_14-04-11
1772633054951279400,3.831279296875,0.1252233665365725,1.0362763541325926,0.5145300695717334,0.566235363483429,0.6092526912689209,0.1933690458536148,walking,2026-03-04_14-04-11
1772633054961229300,3.841229248046875,0.2033450824193656,1.054179090569913,1.2401906147420405,0.5382329821586609,0.5030894875526428,0.1723188906908035,walking,2026-03-04_14-04-11
1772633054971178200,3.85117822265625,0.2532583564277738,1.0492278979033232,1.916488286328316,0.4679040312767029,0.3265921473503113,0.1255122572183609,walking,2026-03-04_14-04-11
1772633054981127200,3.861127197265625,0.286252352078259,1.0022945895537734,2.3918670797288417,0.3611464202404022,0.1052552461624145,0.087413340806961,walking,2026-03-04_14-04-11
1772633054991076400,3.871076416015625,0.490994953270629,0.9135062990322708,2.6074603799551723,0.241426944732666,-0.0881042256951332,0.0473892390727996,walking,2026-03-04_14-04-11
1772633055001025500,3.881025634765625,0.472242687331885,1.056521854303777,2.6118150680333376,0.1306149363517761,-0.1935731321573257,0.0399012267589569,walking,2026-03-04_14-04-11
1772633055010974200,3.89097412109375,0.5235792721416801,1.1735095266103743,2.40856219394207,0.024587569758296,-0.2484047561883926,0.052283976227045,walking,2026-03-04_14-04-11
1772633055020923100,3.900923095703125,0.5735919879365712,1.260162558668852,2.154986661323905,-0.0729288682341575,-0.2877319157123565,0.072810024023056,walking,2026-03-04_14-04-11
1772633055030872000,3.9108720703125,0.5374681698277592,1.297197865599394,1.8614315850168464,-0.1527160257101059,-0.3135720491409302,0.0880058035254478,walking,2026-03-04_14-04-11
1772633055040821200,3.9208212890625,0.3969599212020635,1.2378905211061235,1.5320996774077416,-0.22157683968544,-0.3313380181789398,0.073617547750473,walking,2026-03-04_14-04-11
1772633055050770200,3.930770263671875,0.080236150753498,1.1153680110260844,1.2301707405090332,-0.2951111197471618,-0.3515798151493072,0.0120779508724808,walking,2026-03-04_14-04-11
1772633055060719400,3.94071923828125,-0.3031249417502433,0.9981742947533726,0.9561825344592332,-0.3735012710094452,-0.3750656843185425,-0.0758367255330085,walking,2026-03-04_14-04-11
1772633055070668300,3.950668212890625,-0.5347043311376124,0.9323393020570278,0.7140811665356159,-0.4496117532253265,-0.3708389103412628,-0.161626324057579,walking,2026-03-04_14-04-11
1772633055080617200,3.9606171875,-0.5955893002111464,0.909822642083466,0.4266284987568855,-0.500273585319519,-0.3314225375652313,-0.2280101329088211,walking,2026-03-04_14-04-11
1772633055090566100,3.970566162109375,-0.5441959437128157,0.9642971595928072,0.0897609349459409,-0.5194410085678101,-0.2637198269367218,-0.2742979228496551,walking,2026-03-04_14-04-11
1772633055100515000,3.98051513671875,-0.3777223194317892,1.0753557341113686,-0.2539993109881878,-0.4979045391082763,-0.1708050817251205,-0.2775057256221771,walking,2026-03-04_14-04-11
1772633055110464000,3.990464111328125,-0.1489410728629678,1.2121757957436143,-0.5161147084146738,-0.4325685799121856,-0.0814241468906402,-0.233160987496376,walking,2026-03-04_14-04-11
1772633055120413200,4.0004130859375,0.0809539436340332,1.31837275557518,-0.7063508645445108,-0.3273308277130127,0.0221251435577869,-0.148898035287857,walking,2026-03-04_14-04-11
1772633055130362400,4.0103623046875,0.2327214355619624,1.3455426481820645,-0.79404493008852,-0.2068736106157302,0.1182802319526672,-0.0585835464298725,walking,2026-03-04_14-04-11
1772633055140312300,4.020312255859375,0.2907678202087059,1.277721303974092,-0.646920185932517,-0.1039568185806274,0.1598809361457824,0.0069720288738608,walking,2026-03-04_14-04-11
1772633055150261200,4.03026123046875,0.2754819152062758,1.0597940078422428,-0.2378589080482721,-0.0364340580999851,0.1549881994724273,0.051333587616682,walking,2026-03-04_14-04-11
1772633055160210200,4.040210205078125,0.2670871579570695,0.72287164510414,0.3095189536362886,-0.0078692594543099,0.123051568865776,0.0779691934585571,walking,2026-03-04_14-04-11
1772633055170159000,4.0501591796875,0.2268664624560624,0.4353725078351795,0.8291010459005832,-0.0190888009965419,0.0786360800266265,0.0814317539334297,walking,2026-03-04_14-04-11
1772633055180108300,4.0601083984375,0.1287691493846476,0.1584117157153785,1.2213994050323962,-0.0514278337359428,0.0549022555351257,0.0599048919975757,walking,2026-03-04_14-04-11
1772633055190057200,4.07005712890625,0.0327762247139587,-0.117269704118371,1.440987912374735,-0.113028660416603,0.0290245935320854,0.0051487991586327,walking,2026-03-04_14-04-11
1772633055200006100,4.080006103515625,-0.0602612842172384,-0.2808820572167634,1.6659721412807702,-0.1975206434726715,-0.0236292965710163,-0.0562921911478042,walking,2026-03-04_14-04-11
1772633055209955300,4.089955322265625,-0.0654700683740898,-0.4033030066184699,1.7981226036667823,-0.301005482673645,-0.1231899708509445,-0.1150487139821052,walking,2026-03-04_14-04-11
1772633055219904300,4.099904296875,0.009888393340446,-0.437548098308593,1.810909604525566,-0.3902104496955871,-0.2065413147211074,-0.1485733985900879,walking,2026-03-04_14-04-11
1772633055229853200,4.109853271484375,0.1296894060347229,-0.3565959082402288,1.521367270991206,-0.435269296169281,-0.231980562210083,-0.1547719985246658,walking,2026-03-04_14-04-11
1772633055239802000,4.119802001953125,0.2221813368471339,-0.2039655524052679,0.960806102606654,-0.4363041818141937,-0.2235330194234848,-0.1491748392581939,walking,2026-03-04_14-04-11
1772633055249751300,4.129751220703125,0.2396469605088234,-0.1042680375955998,0.4453384599238634,-0.413919061422348,-0.2074208110570907,-0.1466407626867294,walking,2026-03-04_14-04-11
1772633055259700200,4.1397001953125,0.2078469238832593,-0.0425225061699748,0.0979997709810733,-0.3866349756717682,-0.186125636100769,-0.144003689289093,walking,2026-03-04_14-04-11
1772633055269649200,4.149649169921875,0.1845596448633819,-0.0716742202438414,-0.0688069942444562,-0.3444156646728515,-0.1432400047779083,-0.1267605423927307,walking,2026-03-04_14-04-11
1772633055279598300,4.159598388671875,0.1783878974258899,-0.1464613118112087,-0.2488619480997324,-0.2936528921127319,-0.0823140740394592,-0.1160029619932174,walking,2026-03-04_14-04-11
1772633055289547300,4.16954736328125,0.0153634637506678,-0.2099626008629798,-0.4106663749933242,-0.2413872927427292,-0.0350676029920578,-0.135995328426361,walking,2026-03-04_14-04-11
1772633055299496200,4.17949609375,-0.0891793356657028,-0.3578333410806953,-0.4503437208652496,-0.1921872496604919,-0.0013258827384561,-0.1587903797626495,walking,2026-03-04_14-04-11
1772633055309446100,4.189446044921875,-0.0552540870470926,-0.5499570645228028,-0.4187508972495794,-0.1524617224931717,0.0174673907458782,-0.1764923185110092,walking,2026-03-04_14-04-11
1772633055319395300,4.199395263671875,-0.0167064027922227,-0.6980468543186783,-0.2933610150396823,-0.1280671656131744,0.002812546910718,-0.2011715620756149,walking,2026-03-04_14-04-11
1772633055329344300,4.20934423828125,0.0374693874988704,-0.8457705872811376,-0.1604933442950248,-0.1061688885092735,-0.0331192053854465,-0.2306379079818725,walking,2026-03-04_14-04-11
1772633055339293200,4.219293212890625,0.151791676521115,-1.00263653485924,-0.1439420224666595,-0.0781167447566986,-0.0555731169879436,-0.2448589205741882,walking,2026-03-04_14-04-11
1772633055349242000,4.2292421875,0.2777839816035702,-1.1005948047861456,-0.1943956138968467,-0.0503177382051944,-0.0830680206418037,-0.2510731816291809,walking,2026-03-04_14-04-11
1772633055359191300,4.23919140625,0.3391617391627282,-1.1167286318548022,-0.2253203289926052,-0.0183020159602165,-0.1253534257411956,-0.2459530085325241,walking,2026-03-04_14-04-11
1772633055369140200,4.24914013671875,0.4056370025239885,-1.130157437748462,-0.3261860107988119,0.0247306283563375,-0.1532667279243469,-0.2371904253959655,walking,2026-03-04_14-04-11
1772633055379089200,4.259089111328125,0.3962761036563664,-1.1716124608173966,-0.5146475584715604,0.075473167002201,-0.1554976552724838,-0.2413838356733322,walking,2026-03-04_14-04-11
1772633055389038300,4.269038330078125,0.3152406557513401,-1.192537175424397,-0.6670575495541096,0.1189067959785461,-0.1423158496618271,-0.2510610222816467,walking,2026-03-04_14-04-11
1772633055398987300,4.2789873046875,0.2878562070783227,-1.2336796254128215,-0.6968810254096984,0.1393169909715652,-0.1265608519315719,-0.2595029771327972,walking,2026-03-04_14-04-11
1772633055408936200,4.288936279296875,0.3172384419724345,-1.223888737630099,-0.6164765323519706,0.1389971077442169,-0.1276818364858627,-0.2559969425201416,walking,2026-03-04_14-04-11
1772633055418885000,4.298885009765625,0.3607637319767847,-1.1787687623128291,-0.5578542475134134,0.1335283070802688,-0.1251481026411056,-0.2557860314846039,walking,2026-03-04_14-04-11
1772633055428834300,4.308834228515625,0.3673681352104991,-1.136294333068281,-0.576700986802578,0.1449382156133651,-0.1020241752266883,-0.2585075795650482,walking,2026-03-04_14-04-11
1772633055438783200,4.318783203125,0.4216395678957924,-1.0586408922843635,-0.6820499515026808,0.1822933107614517,-0.0662203729152679,-0.248751625418663,walking,2026-03-04_14-04-11
1772633055448732200,4.328732177734375,0.559747769642435,-0.9269403656229376,-0.7884493020385503,0.2339904159307479,-0.0290814843028783,-0.2121678739786148,walking,2026-03-04_14-04-11
1772633055458681000,4.33868115234375,0.7542373819656669,-0.782741153524816,-0.788194450494647,0.294227123260498,0.0021001365967094,-0.1591499298810959,walking,2026-03-04_14-04-11
1772633055468630300,4.34863037109375,0.961922758611664,-0.7293859954342246,-0.7320026076734065,0.3557963669300079,0.0205526836216449,-0.102179504930973,walking,2026-03-04_14-04-11
1772633055478579200,4.3585791015625,1.185474032105133,-0.7564594419293105,-0.5451198536247015,0.4003925919532776,-0.0126404240727424,-0.0489375926554203,walking,2026-03-04_14-04-11
1772633055488528100,4.368528076171875,1.3283375386200844,-0.7932599171906709,-0.324165903148055,0.428075909614563,-0.0867368355393409,-0.0086788358166813,walking,2026-03-04_14-04-11
1772633055498478000,4.37847802734375,1.3660643349461257,-0.8617182441279292,-0.1823860271513462,0.4403730630874634,-0.1479224264621734,0.0115446764975786,walking,2026-03-04_14-04-11
1772633055508427300,4.38842724609375,1.2391954662248492,-0.9180549022473394,-0.1840361324459314,0.4197689890861511,-0.1998197138309478,0.005227924324572,walking,2026-03-04_14-04-11
1772633055518376200,4.398376220703125,0.9751130065090954,-0.9133683518663048,-0.1966863551825284,0.3749532997608185,-0.2290305942296981,-0.0162688456475734,walking,2026-03-04_14-04-11
1772633055528325400,4.408325439453125,0.7653379641074687,-0.8811085887745023,-0.3085486472994089,0.3274479210376739,-0.2337673157453537,-0.0312376264482736,walking,2026-03-04_14-04-11
1772633055538274300,4.4182744140625,0.6688097269836812,-0.7367555012889206,-0.5217454077780247,0.2916696965694427,-0.199070319533348,-0.0245805233716964,walking,2026-03-04_14-04-11
1772633055548223200,4.42822314453125,0.5796155225424096,-0.5224756217487156,-0.7984896345376968,0.2552161812782287,-0.1381633132696151,-0.0012120383325964,walking,2026-03-04_14-04-11
1772633055558172200,4.438172119140625,0.4500408654611557,-0.3312896175481379,-0.9214134188950062,0.2046563178300857,-0.0988465398550033,0.019614415243268,walking,2026-03-04_14-04-11
1772633055568121000,4.44812109375,0.2985629493306391,-0.2441010173082351,-0.860437264406681,0.1268858015537262,-0.1126869022846221,0.0197449885308742,walking,2026-03-04_14-04-11
1772633055578070300,4.4580703125,0.0698683946645818,-0.161747289878875,-0.70465516654253,0.0322897881269454,-0.1580485254526138,0.0016493420116603,walking,2026-03-04_14-04-11
1772633055588019200,4.468019287109375,-0.1950169606655836,-0.081499740948528,-0.6722317373216152,-0.0547372959554195,-0.1881962865591049,-0.0294163078069686,walking,2026-03-04_14-04-11
1772633055597968100,4.477968017578125,-0.3918425781883299,0.0400038013473153,-0.872334038427472,-0.1122815534472465,-0.1602956801652908,-0.0540790446102619,walking,2026-03-04_14-04-11
1772633055607917300,4.487917236328125,-0.5041190040640533,0.2106571589983999,-1.2040320906460285,-0.1287847608327865,-0.0875088647007942,-0.0681637823581695,walking,2026-03-04_14-04-11
1772633055617866200,4.4978662109375,-0.5034544392080977,0.4208322335682809,-1.4809282930970191,-0.104838952422142,-0.0068334592506289,-0.0748509764671325,walking,2026-03-04_14-04-11
1772633055627815200,4.507815185546875,-0.4382032012164592,0.6609285452798008,-1.6151339344471691,-0.0452494323253631,0.0526856742799282,-0.0633513405919075,walking,2026-03-04_14-04-11
1772633055637764000,4.51776416015625,-0.2670619321842677,0.8820772876761853,-1.6136948415547607,0.0394350923597812,0.0766410678625106,-0.0372741967439651,walking,2026-03-04_14-04-11
1772633055647713300,4.52771337890625,-0.1572392561362124,1.1342232258826497,-1.5018068304747345,0.1374155431985855,0.0857087820768356,-0.0036326949484646,walking,2026-03-04_14-04-11
1772633055657662200,4.537662109375,-0.1441372893104329,1.342483699002862,-1.358093940588832,0.2483806759119033,0.1045743525028228,0.0346308052539825,walking,2026-03-04_14-04-11
1772633055667611100,4.547611083984375,-0.1520738361970521,1.4981360330075024,-1.1614449948072432,0.3524951040744781,0.1242979243397712,0.0695838630199432,walking,2026-03-04_14-04-11
1772633055677561300,4.557561279296875,-0.2208894338730722,1.5879337928324937,-0.8600544025689363,0.4438428580760956,0.133104994893074,0.0838243216276168,walking,2026-03-04_14-04-11
1772633055687510300,4.56751025390625,-0.2800742844978347,1.591048563852161,-0.5010130008727312,0.507765531539917,0.1438020169734954,0.0884531289339065,walking,2026-03-04_14-04-11
1772633055697459200,4.577459228515625,-0.3588794891327619,1.4891612839132546,-0.0772761319041252,0.5431235432624817,0.1608853936195373,0.078500896692276,walking,2026-03-04_14-04-11
1772633055707408100,4.587408203125,-0.4657447766799479,1.40431208640635,0.3340975145757198,0.5514411330223083,0.1599450707435608,0.065682403743267,walking,2026-03-04_14-04-11
1772633055717357000,4.597357177734375,-0.5509609808683396,1.297535134729743,0.6837976719528436,0.5217199921607971,0.1479233056306839,0.0253187343478202,walking,2026-03-04_14-04-11
1772633055727306200,4.60730615234375,-0.7403091021172702,1.2134031455814838,1.0385504365444185,0.4558426141738891,0.1220560520887374,-0.0344836302101612,walking,2026-03-04_14-04-11
1772633055737255200,4.617255126953125,-0.9160445853382349,1.077461766479909,1.3069213872343302,0.3475323915481567,0.0990553945302963,-0.1152815446257591,walking,2026-03-04_14-04-11
1772633055747204400,4.627204345703125,-1.0348417912848291,0.920553879456222,1.5368565165460109,0.2045985609292984,0.0524099506437778,-0.2176027745008468,walking,2026-03-04_14-04-11
1772633055757153300,4.6371533203125,-1.0939050978891551,0.8042655875906348,1.6922645204007625,0.0464731194078922,-0.0134156700223684,-0.3203781545162201,walking,2026-03-04_14-04-11
1772633055767102200,4.647102294921875,-1.0140354423604905,0.7913806793153285,1.637553271526098,-0.0806960612535476,-0.0436121076345443,-0.3816226124763489,walking,2026-03-04_14-04-11
1772633055777051100,4.657051025390625,-0.8675232771448791,0.9627969841629266,1.2682067489147186,-0.1635302305221557,-0.0151351932436227,-0.3905141055583954,walking,2026-03-04_14-04-11
1772633055787000000,4.667,-0.7149437747143208,1.21506961748898,0.8220715856552123,-0.2035687714815139,0.0200172811746597,-0.365283340215683,walking,2026-03-04_14-04-11
1772633055796949200,4.67694921875,-0.5509243021197616,1.3723968989685178,0.4775689969211816,-0.2139558941125869,0.0451465994119644,-0.3177413940429687,walking,2026-03-04_14-04-11
1772633055806898200,4.686898193359375,-0.4360750666139647,1.3722250495329498,0.2256751337796449,-0.205148234963417,0.0700392201542854,-0.2666071057319641,walking,2026-03-04_14-04-11
1772633055816847400,4.696847412109375,-0.4379337731579318,1.256571256178617,0.0721229869246482,-0.1932388544082641,0.1008176356554031,-0.2213514596223831,walking,2026-03-04_14-04-11
1772633055826796300,4.70679638671875,-0.5118159517748281,1.0758531622394918,0.0392027140974998,-0.1843505501747131,0.1224621385335922,-0.1926126331090927,walking,2026-03-04_14-04-11
1772633055836745200,4.7167451171875,-0.6212089677013456,0.8529442783027887,0.0952162777423858,-0.1811771392822265,0.1231918483972549,-0.1788616627454757,walking,2026-03-04_14-04-11
1772633055846694100,4.726694091796875,-0.6735523184008896,0.6401344713151454,0.233317757487297,-0.1774391531944275,0.1034937873482704,-0.167476549744606,walking,2026-03-04_14-04-11
1772633055856644000,4.73664404296875,-0.6468218401245772,0.4169274812147021,0.381361954575777,-0.1722260266542434,0.0869590193033218,-0.152657926082611,walking,2026-03-04_14-04-11
1772633055866593000,4.746593017578125,-0.5915330105576664,0.1979337248951196,0.4938613755524158,-0.1607667654752731,0.0847750455141067,-0.1382025778293609,walking,2026-03-04_14-04-11
1772633055876542200,4.756542236328125,-0.5054120395492762,0.0232025964111089,0.5887514900803565,-0.1418942660093307,0.0842120498418808,-0.1165124475955963,walking,2026-03-04_14-04-11
1772633055886491400,4.766491455078125,-0.3928387861514464,-0.1472337574884295,0.6863719063550233,-0.1243766918778419,0.0666396245360374,-0.0927885547280311,walking,2026-03-04_14-04-11
1772633055896440300,4.7764404296875,-0.3115860057013109,-0.3007433803759515,0.8030775468498468,-0.1052208468317985,0.0466480776667594,-0.0779981613159179,walking,2026-03-04_14-04-11
1772633055906389200,4.78638916015625,-0.2379660947497933,-0.4344986476100981,0.8928332210987806,-0.0801391080021858,0.0208319053053855,-0.0601552054286003,walking,2026-03-04_14-04-11
1772633055916338200,4.796338134765625,-0.1936925436614081,-0.5154873702965677,1.0074468577504156,-0.0670989379286766,-0.0307532586157321,-0.0552866794168949,walking,2026-03-04_14-04-11
1772633055926287000,4.806287109375,-0.1869663406789302,-0.5701762612089515,1.1098024858534334,-0.0714351385831832,-0.0972879976034164,-0.0523079484701156,walking,2026-03-04_14-04-11
1772633055936236000,4.816236083984375,-0.1909370709408074,-0.6306370135210454,1.216755963140726,-0.106689266860485,-0.1853163838386535,-0.0683103576302528,walking,2026-03-04_14-04-11
1772633055946185200,4.826185302734375,-0.2662783988574519,-0.6825866887278854,1.2648966014534235,-0.1628944277763366,-0.2569086253643036,-0.0912406891584396,walking,2026-03-04_14-04-11
1772633055956134400,4.836134521484375,-0.3301845423830672,-0.6989606081627309,1.1206488740384577,-0.2204599976539611,-0.2843320071697235,-0.1144962087273597,walking,2026-03-04_14-04-11
1772633055966083300,4.846083251953125,-0.3809295545078814,-0.6666216423548758,0.844694920873642,-0.2699634134769439,-0.2611526548862457,-0.1243988052010536,walking,2026-03-04_14-04-11
1772633055976032300,4.8560322265625,-0.3714352019863203,-0.5342381018653511,0.5101303733080625,-0.302532821893692,-0.1891511529684066,-0.1093053370714187,walking,2026-03-04_14-04-11
1772633055985981200,4.865981201171875,-0.3186996370987967,-0.3703673900917172,0.1508393807649612,-0.3072536289691925,-0.0849733278155326,-0.0721170082688331,walking,2026-03-04_14-04-11
1772633055995930000,4.87593017578125,-0.2847638670861721,-0.2013126998089253,-0.1221978081703186,-0.2896344065666199,0.0131146237254142,-0.0346047841012477,walking,2026-03-04_14-04-11
1772633056005878800,4.885878662109375,-0.2476194372253492,-0.0679015698373317,-0.2289022791326045,-0.2436904311180114,0.0766616687178611,0.0072102849371731,walking,2026-03-04_14-04-11
1772633056015827700,4.89582763671875,-0.1498563245443627,0.0016024667605757,-0.2367553307205438,-0.1767377704381942,0.114708125591278,0.0565730407834053,walking,2026-03-04_14-04-11
1772633056025776600,4.905776611328125,-0.0321076047373935,0.0515709050223231,-0.1353092186778783,-0.1023094803094863,0.1357238143682479,0.1024572402238845,walking,2026-03-04_14-04-11
1772633056035726800,4.915726806640625,0.038517252583988,0.0047035015158355,0.0970680430889129,-0.048177532851696,0.1269750744104385,0.1325176656246185,walking,2026-03-04_14-04-11
1772633056045675800,4.92567578125,0.0616160232944414,-0.0984241338729858,0.4784638999342918,-0.0240161381661891,0.0985848829150199,0.1409636735916137,walking,2026-03-04_14-04-11
1772633056055624700,4.935624755859375,0.0821011409077793,-0.2159568728417158,0.8688947116285562,-0.0283040925860404,0.0663979202508926,0.1454817354679107,walking,2026-03-04_14-04-11
1772633056065573600,4.94557373046875,0.1224254794463515,-0.2762996978625655,1.1746826620429751,-0.0594034343957901,0.0410073287785053,0.1511555761098861,walking,2026-03-04_14-04-11
1772633056075522600,4.9555224609375,0.1934938427515327,-0.2891927894443273,1.399330790862441,-0.1087683215737342,0.0145448297262191,0.1673987209796905,walking,2026-03-04_14-04-11
1772633056085471700,4.9654716796875,0.2743000850105658,-0.3119488111317157,1.5111048201739787,-0.1602016240358352,-0.0299265701323747,0.1856653839349746,walking,2026-03-04_14-04-11
1772633056095420700,4.975420654296875,0.3761845884704962,-0.3309963336899876,1.3867986415475606,-0.1835141479969024,-0.0586194694042205,0.2061986327171325,walking,2026-03-04_14-04-11
1772633056105369600,4.98536962890625,0.4139987708190455,-0.2868012181326747,1.03270989382267,-0.1748490631580352,-0.0676564946770668,0.2321680188179016,walking,2026-03-04_14-04-11
1772633056115318800,4.99531884765625,0.3871721386918798,-0.249928554417938,0.6288274798810481,-0.1604315042495727,-0.069802738726139,0.2519420087337494,walking,2026-03-04_14-04-11
1772633056125267700,5.005267822265625,0.3445007255705073,-0.2551930508174002,0.2945598694354295,-0.141580581665039,-0.0610822141170501,0.2679529190063476,walking,2026-03-04_14-04-11
1772633056135216600,5.015216552734375,0.2879150611260905,-0.3028556963548064,-0.0040466450423002,-0.1187024265527725,-0.0313176624476909,0.2679561078548431,walking,2026-03-04_14-04-11
1772633056145165600,5.02516552734375,0.1180296556401997,-0.3296206614226102,-0.3033428953498602,-0.1039893105626106,3.90727072954e-05,0.2475324422121048,walking,2026-03-04_14-04-11
1772633056155114800,5.03511474609375,-0.0717336222808808,-0.3482055349051952,-0.468687186807394,-0.1015053763985633,0.0107119567692279,0.2167987674474716,walking,2026-03-04_14-04-11
1772633056165063700,5.045063720703125,-0.1623938806867227,-0.3564065231479704,-0.5824076740115881,-0.1026218608021736,-0.005144546739757,0.1970983743667602,walking,2026-03-04_14-04-11
1772633056175012600,5.0550126953125,-0.1424916044626384,-0.2801132648013532,-0.7200584873795509,-0.0949128121137619,-0.0339064188301563,0.2013008445501327,walking,2026-03-04_14-04-11
1772633056184961500,5.06496142578125,-0.1304368634011596,-0.1387149354681372,-0.9375713574916124,-0.0825579613447189,-0.0682943239808082,0.2189285606145858,walking,2026-03-04_14-04-11
1772633056194910700,5.07491064453125,-0.159785013362579,-0.0504648434765636,-1.1735855144560337,-0.0765828937292099,-0.0907341241836547,0.2289918363094329,walking,2026-03-04_14-04-11
1772633056204859600,5.084859619140625,-0.2830016066540032,-0.0307177943468093,-1.327033616414666,-0.059420246630907,-0.0751722604036331,0.2606012523174286,walking,2026-03-04_14-04-11
1772633056214808600,5.09480859375,-0.2773440192837268,-0.1345345810435712,-1.5936112539470195,-0.0334781259298324,0.00083275930956,0.3039695024490356,walking,2026-03-04_14-04-11
1772633056224758500,5.104758544921875,-0.3382384503053501,-0.1298698041029274,-1.7311679592907427,0.0231615379452705,0.1049318462610244,0.3691275119781494,walking,2026-03-04_14-04-11
1772633056234707700,5.114707763671875,-0.4533885319212451,-0.1719374061122536,-1.8798615601986648,0.086431860923767,0.1774175018072128,0.417278528213501,walking,2026-03-04_14-04-11
1772633056244656600,5.12465673828125,-0.6714686439946294,-0.2407793255396187,-1.7950263912171125,0.1451931297779083,0.1797252744436264,0.4220576882362366,walking,2026-03-04_14-04-11
1772633056254605800,5.134605712890625,-0.8539895495720207,-0.4691670792788266,-1.588643986928463,0.2028894573450088,0.1451300084590912,0.4033002257347107,walking,2026-03-04_14-04-11
1772633056264554800,5.1445546875,-0.9518916323322802,-0.6534896274507045,-1.4099796106487512,0.2573127448558807,0.1038897559046745,0.3737857341766357,walking,2026-03-04_14-04-11
1772633056274503700,5.154503662109375,-1.0445403246089815,-0.7169257423117756,-1.3037462643295523,0.2925436794757843,0.0874822884798049,0.3398754298686981,walking,2026-03-04_14-04-11
1772633056284452600,5.16445263671875,-1.1124654214523733,-0.7726742252796888,-1.1700368820637463,0.2977041602134704,0.0863324627280235,0.2940468788146972,walking,2026-03-04_14-04-11
1772633056294401500,5.174401611328125,-1.0863941377371549,-0.8151888404041528,-0.931561303421855,0.2585687339305877,0.0729069411754608,0.2364970296621322,walking,2026-03-04_14-04-11
1772633056304350700,5.184350830078125,-1.0286864835254848,-0.8201591761626302,-0.6300526377618313,0.1857211142778396,0.0444456152617931,0.1738047301769256,walking,2026-03-04_14-04-11
1772633056314299600,5.194299560546875,-0.886358033735305,-0.7760913402467966,-0.3806546830892562,0.094523549079895,0.0096719227731227,0.1184477284550666,walking,2026-03-04_14-04-11
1772633056324248800,5.204248779296875,-0.719049310337007,-0.6258990252137184,-0.215150817155838,0.0077954102307558,-0.0371921472251415,0.0790881142020225,walking,2026-03-04_14-04-11
1772633056334197800,5.21419775390625,-0.5419323096297681,-0.3748223236739635,-0.2564268303960562,-0.0415851920843124,-0.0603850856423378,0.0592779219150543,walking,2026-03-04_14-04-11
1772633056344146700,5.224146728515625,-0.3302035758771002,-0.0928219299517571,-0.471397030287981,-0.0480444207787513,-0.0654469579458236,0.0592054836452007,walking,2026-03-04_14-04-11
1772633056354095600,5.234095703125,-0.1405757243713364,0.1931751321911811,-0.7484259192079306,-0.0182290002703666,-0.0678770840167999,0.071392111480236,walking,2026-03-04_14-04-11
1772633056364044500,5.24404443359375,-0.0101364132847636,0.3823251005195081,-0.9254109640985728,0.0253385826945304,-0.0710664615035057,0.0873335748910904,walking,2026-03-04_14-04-11
1772633056373993700,5.25399365234375,0.0761775230124592,0.4941906075067818,-1.003085739931464,0.0648372545838356,-0.0758244693279266,0.1009662970900535,walking,2026-03-04_14-04-11
1772633056383942700,5.263942626953125,0.0773418723504058,0.5215057538032531,-0.9837316356420516,0.0868436247110366,-0.0820720046758651,0.094810351729393,walking,2026-03-04_14-04-11
1772633056393892900,5.273892822265625,-0.0241627101475372,0.4595642614141106,-0.9467308155030012,0.1027179285883903,-0.0484847500920295,0.0843643620610237,walking,2026-03-04_14-04-11
1772633056403841800,5.283841796875,-0.1111066149113699,0.4150213553324341,-0.9538000232368709,0.1200690865516662,0.036948088556528,0.0718106850981712,walking,2026-03-04_14-04-11
1772633056413790700,5.293790771484375,-0.2339075218076817,0.4317744833432138,-0.9258248055964708,0.1531852334737777,0.1464594006538391,0.0552356950938701,walking,2026-03-04_14-04-11
1772633056423739600,5.30373974609375,-0.2887473106991499,0.4825225276753306,-0.8666974938452243,0.2046313732862472,0.2533107399940491,0.0427489317953586,walking,2026-03-04_14-04-11
1772633056433688600,5.3136884765625,-0.1389749746438116,0.5194102428287267,-0.6796066500037908,0.2723742127418518,0.3344476819038391,0.053956314921379,walking,2026-03-04_14-04-11
1772633056443637500,5.323637451171875,0.1371667927106842,0.58683338149935,-0.3512959021359682,0.3441850841045379,0.365339994430542,0.0713392198085784,walking,2026-03-04_14-04-11
1772633056455452700,5.33545263671875,0.3003194193428382,0.6637887570165097,-0.0715530780822038,0.4289625585079193,0.3654960691928863,0.088076926767826,walking,2026-03-04_14-04-11
1772633056465401600,5.345401611328125,0.4775317701833322,0.7525643341869115,0.3915425723284482,0.4782873690128326,0.2991420924663543,0.0906211137771606,walking,2026-03-04_14-04-11
1772633056475350500,5.3553505859375,0.6409915265358984,0.8797726639956235,0.9948322908490896,0.488417237997055,0.1854496300220489,0.0959639474749565,walking,2026-03-04_14-04-11
1772633056485299700,5.3652998046875,0.8041112738117575,0.9597980946078896,1.407325881269574,0.4487485289573669,0.0343191288411617,0.107718139886856,walking,2026-03-04_14-04-11
1772633056495248600,5.37524853515625,0.8906742894992232,1.0426485195130109,1.710872774758935,0.3761949837207794,-0.1017225906252861,0.1161758080124855,walking,2026-03-04_14-04-11
1772633056505197800,5.38519775390625,0.8146870283618569,1.1134507792279125,1.8230273278206583,0.2803182005882263,-0.193065345287323,0.1187617033720016,walking,2026-03-04_14-04-11
1772633056515146800,5.395146728515625,0.7177591974612325,1.175171614603698,1.7714333341836928,0.1733898818492889,-0.2451064437627792,0.1277605295181274,walking,2026-03-04_14-04-11
1772633056525095700,5.405095703125,0.6935127180203795,1.212878829446435,1.6083581567019225,0.067993015050888,-0.2577893733978271,0.1455298662185669,walking,2026-03-04_14-04-11
1772633056535044600,5.415044677734375,0.6640631900437176,1.1926380054503678,1.3134031504690646,-0.0239813830703496,-0.2369048744440078,0.171316996216774,walking,2026-03-04_14-04-11
1772633056544993500,5.42499365234375,0.593296257370524,1.1671063815698026,0.9638584759145976,-0.0972203090786933,-0.2056960612535476,0.1873309016227722,walking,2026-03-04_14-04-11
1772633056554942700,5.434942626953125,0.4424986333880573,1.0655696686342355,0.6648638389021158,-0.1613830626010894,-0.1852325946092605,0.1782886683940887,walking,2026-03-04_14-04-11
1772633056564891600,5.4448916015625,0.1822304895297624,0.942217721992731,0.4163619562864303,-0.2157331109046936,-0.1739923804998397,0.1349935531616211,walking,2026-03-04_14-04-11
1772633056574841900,5.454841796875,-0.1370881745165214,0.8470663261801004,0.2103647519230842,-0.273082435131073,-0.1885135322809219,0.0636314824223518,walking,2026-03-04_14-04-11
1772633056584790800,5.464790771484375,-0.3564074729960411,0.7661734650835395,0.0501572388321161,-0.3058537244796753,-0.2304519861936569,-0.0142652094364166,walking,2026-03-04_14-04-11
1772633056594739700,5.47473974609375,-0.3865701176781207,0.7719590627476572,-0.3030471272736788,-0.2942117154598236,-0.2216438502073288,-0.0665398687124252,walking,2026-03-04_14-04-11
1772633056604688600,5.484688720703125,-0.3214856510881334,0.8830220211803913,-0.7418897954374551,-0.2506849765777588,-0.1406605988740921,-0.0818065628409385,walking,2026-03-04_14-04-11
1772633056614637600,5.494637451171875,-0.1962351408163085,1.0613815692946311,-0.9836480490118265,-0.2027097195386886,-0.0106426794081926,-0.0595814138650894,walking,2026-03-04_14-04-11
1772633056624586500,5.50458642578125,-0.085520667027682,1.125197038862109,-0.9932143342584372,-0.1652760207653045,0.1238353624939918,-0.02764543145895,walking,2026-03-04_14-04-11
1772633056634535700,5.51453564453125,0.0011190306251868,1.1028772166348992,-0.8249509404838085,-0.1354387700557708,0.2460906952619552,0.016192864626646,walking,2026-03-04_14-04-11
1772633056644484900,5.52448486328125,0.1263279119786806,1.0036226232871412,-0.5145020125210285,-0.1231461390852928,0.327725201845169,0.0722400397062301,walking,2026-03-04_14-04-11
1772633056654433800,5.534433837890625,0.2811481425407342,0.8215009461604058,-0.0328232421934604,-0.1302714347839355,0.3289824724197387,0.1222824305295944,walking,2026-03-04_14-04-11
1772633056664382700,5.5443828125,0.3766293365633115,0.573753096782416,0.4698287580579519,-0.1378342658281326,0.2958177030086517,0.1608071774244308,walking,2026-03-04_14-04-11
1772633056674331600,5.55433154296875,0.4135084665514528,0.2845907024763524,0.7969564336210488,-0.1331457793712616,0.2633556425571441,0.1881658285856247,walking,2026-03-04_14-04-11
1772633056684280600,5.564280517578125,0.3755674429528415,0.0555021069914102,1.0117571221649646,-0.1349314749240875,0.2080801427364349,0.1950938701629638,walking,2026-03-04_14-04-11
1772633056694229500,5.5742294921875,0.2616995831672102,-0.1818583500154316,1.2061989132910966,-0.1436717063188552,0.1467624604701995,0.1725334376096725,walking,2026-03-04_14-04-11
1772633056704178700,5.5841787109375,0.2008273274447768,-0.4215085253946483,1.3701596414357422,-0.1612507253885269,0.0971426516771316,0.1350707560777664,walking,2026-03-04_14-04-11
1772633056714128000,5.5941279296875,0.207927587904036,-0.5873736258558928,1.4641034150242804,-0.18283112347126,0.0425659604370594,0.1073967739939689,walking,2026-03-04_14-04-11
1772633056724076800,5.604076904296875,0.2542190546860918,-0.6786066791810095,1.473257612338662,-0.2030007988214492,0.0036620951723307,0.0909465849399566,walking,2026-03-04_14-04-11
1772633056734025700,5.614025634765625,0.3364737056551501,-0.6961997651472688,1.4140759400516747,-0.2196090668439865,-0.0229809656739234,0.0869025737047195,walking,2026-03-04_14-04-11
1772633056743974700,5.623974609375,0.3649280485820025,-0.6809437438264488,1.2991238652259112,-0.23857082426548,-0.0646720081567764,0.0776656419038772,walking,2026-03-04_14-04-11
1772633056753923600,5.633923583984375,0.3713978656506165,-0.7215056174479425,1.1247732604920864,-0.2516573369503021,-0.0892625749111175,0.0671227201819419,walking,2026-03-04_14-04-11
1772633056763873500,5.64387353515625,0.3504723473260179,-0.7899630676023661,0.8913269081890582,-0.2564855515956878,-0.0711943879723548,0.0611668676137924,walking,2026-03-04_14-04-11
1772633056773822700,5.65382275390625,0.3081272800821811,-0.8641827345453202,0.5967535947501659,-0.2515203654766083,-0.0197969712316989,0.0552698336541652,walking,2026-03-04_14-04-11
1772633056783771600,5.663771728515625,0.2152826999071985,-0.9601903087958692,0.3591635667711496,-0.2479851096868515,0.0180274583399295,0.0341124273836612,walking,2026-03-04_14-04-11
1772633056794341600,5.674341552734375,0.104110399348475,-1.046024864078313,0.2484042674601078,-0.2446380406618118,0.0341217406094074,-0.005553756840527,walking,2026-03-04_14-04-11
1772633056804290800,5.684290771484375,-0.0254364564104005,-1.1150887556932867,0.1506938348144292,-0.2257424145936966,0.0191729646176099,-0.047425054013729,walking,2026-03-04_14-04-11
1772633056814239700,5.69423974609375,-0.0939838498705998,-1.1000627437360584,-0.0457487747400999,-0.1737455278635025,0.0056515620090067,-0.1005633771419525,walking,2026-03-04_14-04-11
1772633056824189700,5.704189697265625,-0.1324815575039014,-1.0428555863924325,-0.3592956687182188,-0.0913741141557693,0.0079422406852245,-0.1506205052137375,walking,2026-03-04_14-04-11
1772633056834138600,5.714138671875,-0.0499071730611845,-0.9499179211065172,-0.6045049395292997,-0.0019070771522819,0.0075835129246115,-0.1692056506872177,walking,2026-03-04_14-04-11
1772633056844087600,5.724087646484375,0.1195653042422607,-0.813991155052185,-0.7080079841017722,0.0818856507539749,0.0050654080696403,-0.1630378365516662,walking,2026-03-04_14-04-11
1772633056854036500,5.734036376953125,0.2450044324213638,-0.6765797033980488,-0.7704904514998198,0.1497387439012527,0.0231181774288415,-0.1437224745750427,walking,2026-03-04_14-04-11
1772633056863985700,5.743985595703125,0.2704856778215617,-0.5565225605182349,-0.7037690313577651,0.1965729594230651,0.0293779745697975,-0.1233803704380989,walking,2026-03-04_14-04-11
1772633056873934800,5.753934814453125,0.2401200579132884,-0.5270782932385802,-0.5574158560961484,0.2328460067510604,0.0097251767292618,-0.1112629845738411,walking,2026-03-04_14-04-11
1772633056883883800,5.7638837890625,0.1695220885988324,-0.5289983015157282,-0.436308765771985,0.254181295633316,-0.0229401346296072,-0.1211533397436142,walking,2026-03-04_14-04-11
1772633056893832700,5.773832763671875,0.0516524092933163,-0.5526322750814259,-0.3534568795621395,0.2576154470443725,-0.03892283141613,-0.1401541978120803,walking,2026-03-04_14-04-11
1772633056903781600,5.78378173828125,-0.0011667787570506,-0.5884374556951224,-0.2632593067646026,0.2386308014392852,-0.058011095970869,-0.1616653650999069,walking,2026-03-04_14-04-11
1772633056913730600,5.79373046875,0.0071806687517091,-0.6093183311603964,-0.1405529645502567,0.1962109059095382,-0.1036246567964553,-0.1890828758478164,walking,2026-03-04_14-04-11
1772633056923679500,5.803679443359375,0.0194385311698541,-0.5893688913263381,-0.0885451294153928,0.1619684249162674,-0.1142447888851165,-0.2062709629535675,walking,2026-03-04_14-04-11
1772633056933628700,5.813628662109375,0.0941172669919207,-0.5193969449557364,-0.2410024667710065,0.1521999537944793,-0.0765570625662803,-0.1973480433225631,walking,2026-03-04_14-04-11
1772633056943577900,5.823577880859375,0.255147238914296,-0.3657511284679174,-0.429490317928791,0.1556633859872818,-0.0435219332575798,-0.1604346185922622,walking,2026-03-04_14-04-11
1772633056953526800,5.83352685546875,0.4233988691858947,-0.2309713404916226,-0.5409720862954854,0.1766650825738906,-0.0271541476249694,-0.1131184920668602,walking,2026-03-04_14-04-11
1772633056963475700,5.843475830078125,0.5505784478241578,-0.1672775976076722,-0.6265367385953664,0.21014966070652,-0.0166034810245037,-0.0711366608738899,walking,2026-03-04_14-04-11
1772633056973424600,5.853424560546875,0.6259031168669462,-0.2301886656813323,-0.6778197665870189,0.248033657670021,-0.0270201694220304,-0.0481639727950096,walking,2026-03-04_14-04-11
1772633056983373600,5.86337353515625,0.6249426012717187,-0.3234896113216877,-0.6717395698904991,0.2843295633792877,-0.0565319024026393,-0.0388170666992664,walking,2026-03-04_14-04-11
1772633056993323500,5.873323486328125,0.5837888627042993,-0.394050609626621,-0.646606882199645,0.3089744448661804,-0.0860312059521675,-0.0313149392604827,walking,2026-03-04_14-04-11
1772633057003272700,5.883272705078125,0.4806424860823899,-0.4075893056355416,-0.6347393342733383,0.3147867619991302,-0.0978741496801376,-0.031878650188446,walking,2026-03-04_14-04-11
1772633057013221600,5.8932216796875,0.3615849486991763,-0.4276762542441487,-0.5617874953091144,0.2882635295391083,-0.1074897572398185,-0.0487601608037948,walking,2026-03-04_14-04-11
1772633057023170800,5.9031708984375,0.2146746144788339,-0.5199111780881881,-0.4678910679936409,0.2246934026479721,-0.1162777990102768,-0.0828489959239959,walking,2026-03-04_14-04-11
1772633057033119700,5.91311962890625,0.0325684271821752,-0.5624114724263548,-0.3693810094028711,0.1306095123291015,-0.1140316873788833,-0.1334509253501892,walking,2026-03-04_14-04-11
1772633057043068700,5.923068603515625,-0.1267522931369021,-0.5239601612180471,-0.3336024245351552,0.0189723428338766,-0.1163268312811851,-0.1790344417095184,walking,2026-03-04_14-04-11
1772633057053017600,5.933017578125,-0.2277542050760239,-0.4438002905711531,-0.3766729199767112,-0.0869311913847923,-0.1025345847010612,-0.2184196710586547,walking,2026-03-04_14-04-11
1772633057062966500,5.942966552734375,-0.2672576922183856,-0.314876389016211,-0.6560854891628026,-0.1655900478363037,-0.060398381203413,-0.2406579852104187,walking,2026-03-04_14-04-11
1772633057072915500,5.95291552734375,-0.3411395055091008,-0.0660911594145,-0.9986468807011842,-0.2093436419963836,-0.0204954389482736,-0.2481702268123626,walking,2026-03-04_14-04-11
1772633057082864600,5.96286474609375,-0.462312719872035,0.1915812871284782,-1.2812141145259142,-0.225389152765274,0.0121992379426956,-0.2602222263813019,walking,2026-03-04_14-04-11
1772633057092813800,5.972813720703125,-0.5680684387421235,0.3950179933540523,-1.4825743067383763,-0.2153871208429336,0.0207746159285306,-0.2830865383148193,walking,2026-03-04_14-04-11
1772633057102762800,5.9827626953125,-0.6658516808956861,0.6113644500352442,-1.6690256836324928,-0.1639861613512039,0.0421186983585357,-0.300419270992279,walking,2026-03-04_14-04-11
1772633057112711700,5.992711669921875,-0.6781193340554833,0.8485537882588803,-1.8410311865448952,-0.0697171837091445,0.0913552194833755,-0.2913964688777923,walking,2026-03-04_14-04-11
1772633057122660600,6.00266064453125,-0.6054030939454212,1.1128117506720123,-1.948977766522765,0.0551351383328437,0.154141679406166,-0.2579729259014129,walking,2026-03-04_14-04-11
1772633057132609500,6.012609619140625,-0.5080971504474059,1.40129551506415,-1.8257786723554128,0.187146708369255,0.2162151783704757,-0.2075915187597274,walking,2026-03-04_14-04-11
1772633057142558500,6.022558349609375,-0.4337809643274173,1.5612806175760925,-1.5180483557015656,0.3023896217346191,0.2581450641155243,-0.1528964787721634,walking,2026-03-04_14-04-11
1772633057152508000,6.0325078125,-0.4334259038120508,1.589165234323591,-0.975495137694478,0.3861369788646698,0.267583817243576,-0.1125107035040855,walking,2026-03-04_14-04-11
1772633057162457600,6.04245751953125,-0.493278862956725,1.5482392035648225,-0.3399152609437704,0.4298064410686493,0.2432920038700103,-0.0935869440436363,walking,2026-03-04_14-04-11
1772633057172406800,6.05240673828125,-0.6190652336709201,1.38681851529181,0.2547550977915525,0.4440636932849884,0.1663849651813507,-0.1025426238775253,walking,2026-03-04_14-04-11
1772633057182355700,6.062355712890625,-0.7746849805802106,1.2440490437358618,0.6910393136441707,0.4561195969581604,0.0706786066293716,-0.1316632032394409,walking,2026-03-04_14-04-11
1772633057192304600,6.0723046875,-0.937448169503361,1.1506047441020608,0.8538952954173088,0.4690516293048858,0.0168649107217788,-0.1710510849952697,walking,2026-03-04_14-04-11
1772633057202253600,6.082253662109375,-1.058466120239347,1.1063219502612949,0.9217775760322808,0.4622490108013153,-0.0079470705240964,-0.2151557356119156,walking,2026-03-04_14-04-11
1772633057212202800,6.09220263671875,-1.1521847798351197,1.0197320465669035,1.0283628045290707,0.4175417125225067,-0.0177967716008424,-0.2785951495170593,walking,2026-03-04_14-04-11
1772633057222151700,6.102151611328125,-1.2975940253101288,0.9050096888437866,1.2058446930259463,0.3223537504673004,-0.0216672234237194,-0.3629001677036285,walking,2026-03-04_14-04-11
1772633057232100600,6.1121005859375,-1.482082285437733,0.8036129689007997,1.3937486068159342,0.2041674554347992,-0.0096145551651716,-0.4627625644207001,walking,2026-03-04_14-04-11
1772633057242049800,6.1220498046875,-1.6150633534289895,0.7723612138077616,1.4345207621872424,0.0760729908943176,0.019161332398653,-0.5561116337776184,walking,2026-03-04_14-04-11
1772633057251998700,6.131998779296875,-1.5809921570010483,0.8419862464368343,1.3970903184592722,-0.0505786873400211,0.0433393754065036,-0.617185115814209,walking,2026-03-04_14-04-11
1772633057261947600,6.14194775390625,-1.3712654107205569,1.0173860679626463,1.343480893346667,-0.1596322804689407,0.0505438484251499,-0.624686598777771,walking,2026-03-04_14-04-11
1772633057271896600,6.151896484375,-1.035977005859837,1.230023733253777,1.1804676751852037,-0.2305243015289306,0.0498056188225746,-0.5839551687240601,walking,2026-03-04_14-04-11
1772633057281845500,6.161845458984375,-0.7189221768260001,1.3850252021342515,0.9569202010840177,-0.2656116187572479,0.0408740863204002,-0.5084788799285889,walking,2026-03-04_14-04-11
1772633057291794700,6.171794677734375,-0.4703822272222488,1.4508210318639874,0.7276268768072128,-0.2717877626419067,0.0156512856483459,-0.4285869598388672,walking,2026-03-04_14-04-11
1772633057301743900,6.181743896484375,-0.3640567456401884,1.3671470156162977,0.578276857817173,-0.2707361280918121,-0.0331206917762756,-0.3606760799884796,walking,2026-03-04_14-04-11
1772633057311692800,6.19169287109375,-0.4130537815865129,1.2136679339975118,0.5354483544379472,-0.270038902759552,-0.0895935595035553,-0.3176798820495605,walking,2026-03-04_14-04-11
1772633057321641700,6.201641845703125,-0.5341473548419773,0.9940341262087226,0.4722592000752687,-0.2755249440670013,-0.1262687742710113,-0.3008652031421661,walking,2026-03-04_14-04-11
1772633057331591700,6.211591796875,-0.6769021402854472,0.7348112353533506,0.4546668447613716,-0.2824001610279083,-0.1291764080524444,-0.3057449162006378,walking,2026-03-04_14-04-11
1772633057341540600,6.22154052734375,-0.7647581914581358,0.5022214998796581,0.360389893695712,-0.2740271687507629,-0.0914150550961494,-0.309500515460968,walking,2026-03-04_14-04-11
1772633057351489800,6.23148974609375,-0.7081408167012035,0.3347437035247683,0.2532756728887558,-0.254406601190567,-0.0520673878490924,-0.2999450862407684,walking,2026-03-04_14-04-11
1772633057361438700,6.241438720703125,-0.5327690522260964,0.241055658262968,0.2604150232493877,-0.2248105257749557,-0.0479460954666137,-0.2743346095085144,walking,2026-03-04_14-04-11
1772633057371387600,6.2513876953125,-0.3116813923671841,0.1680532581552863,0.3241021902620792,-0.1815804988145828,-0.0535304769873619,-0.2265809327363968,walking,2026-03-04_14-04-11
1772633057381336600,6.261336669921875,-0.1173733106233179,0.063253451770544,0.3645949441701173,-0.1312076598405838,-0.0507123805582523,-0.1764155328273773,walking,2026-03-04_14-04-11
1772633057391285800,6.27128564453125,-0.0570026477474719,-0.0673756462670862,0.5017570972383022,-0.0969743207097053,-0.0685457065701484,-0.1457992941141128,walking,2026-03-04_14-04-11
1772633057401234700,6.281234619140625,-0.0925127909373492,-0.2752741542071104,0.7446487387567758,-0.0967254936695098,-0.1131960749626159,-0.146357849240303,walking,2026-03-04_14-04-11
1772633057411183600,6.29118359375,-0.1865333560891449,-0.4990886086814105,1.0317185446977617,-0.1265776604413986,-0.1469694823026657,-0.1655445843935012,walking,2026-03-04_14-04-11
1772633057421132500,6.301132568359375,-0.2728790757641196,-0.6631096887111664,1.18707627967,-0.1718100309371948,-0.165129616856575,-0.1836319416761398,walking,2026-03-04_14-04-11
1772633057431081700,6.311081787109375,-0.3308718305274844,-0.7443478561140596,1.2116788060069084,-0.2360787689685821,-0.1856809556484222,-0.2091604620218277,walking,2026-03-04_14-04-11
1772633057441030700,6.32103076171875,-0.3710843061894178,-0.7970179545499384,1.1748925054013728,-0.2889160513877868,-0.2019062340259552,-0.2361279875040054,walking,2026-03-04_14-04-11
1772633057450979600,6.3309794921875,-0.3502030288653448,-0.8068916983105242,0.9825310276806354,-0.3236045241355896,-0.1909164190292358,-0.2510238587856293,walking,2026-03-04_14-04-11
1772633057460928800,6.3409287109375,-0.3227001414444297,-0.6909877295874058,0.6663578768521546,-0.3306204676628113,-0.1664404869079589,-0.2518412172794342,walking,2026-03-04_14-04-11
1772633057470877700,6.350877685546875,-0.2689011851090938,-0.5238767207182944,0.3236410024911165,-0.3150151371955871,-0.1437780559062957,-0.2233003973960876,walking,2026-03-04_14-04-11
1772633057480826600,6.36082666015625,-0.1130349160928279,-0.3791704358808696,0.0196902043759822,-0.2751554846763611,-0.124070756137371,-0.1670144349336624,walking,2026-03-04_14-04-11
1772633057490775600,6.370775634765625,0.0093461396899074,-0.2510352004855871,-0.1689338403820991,-0.2344772815704345,-0.1059330329298973,-0.1126987189054489,walking,2026-03-04_14-04-11
1772633057500725800,6.380725830078125,0.0255548220930621,-0.1937796739555895,-0.2829050874769687,-0.1924953460693359,-0.0882124602794647,-0.0651052817702293,walking,2026-03-04_14-04-11
1772633057510674700,6.3906748046875,0.0024719430714845,-0.2326698149725794,-0.2965367224663496,-0.158305674791336,-0.0658584162592887,-0.0236505176872015,walking,2026-03-04_14-04-11
1772633057520623600,6.40062353515625,-0.0339060324614867,-0.2790694548368453,-0.2549585114091635,-0.1361299902200698,-0.0380079038441181,0.0041510388255119,walking,2026-03-04_14-04-11
1772633057530572500,6.410572509765625,-0.1102004598518833,-0.3177322168387472,-0.1969423757702112,-0.1186383515596389,-0.00011005718261,0.020918833091855,walking,2026-03-04_14-04-11
1772633057540521700,6.420521728515625,-0.1696453496523201,-0.3764502171367406,-0.1461614520817995,-0.1091479957103729,0.0330505184829235,0.0299595575779676,walking,2026-03-04_14-04-11
1772633057550470700,6.430470703125,-0.1591245036272332,-0.3942550461575388,-0.0847369693040847,-0.0930390655994415,0.0619085282087326,0.0510097183287143,walking,2026-03-04_14-04-11
1772633057560419600,6.440419677734375,-0.011458711397089,-0.3900521876402199,-0.0627466712921857,-0.0621360130608081,0.0960969254374504,0.100808560848236,walking,2026-03-04_14-04-11
1772633057570368800,6.45036865234375,0.1719647690432146,-0.3807524443753063,-0.0550526096582412,-0.0252504311501979,0.0965981259942054,0.1636447757482528,walking,2026-03-04_14-04-11
1772633057580317700,6.460317626953125,0.2818633233390748,-0.3829050923645496,-0.00434533572793,0.0111002596095204,0.0692594274878501,0.219959408044815,walking,2026-03-04_14-04-11
1772633057590266600,6.4702666015625,0.2705683876689523,-0.4713438387960195,0.044157706156373,0.0454830005764961,0.0347914583981037,0.2517844438552856,walking,2026-03-04_14-04-11
1772633057600215600,6.480215576171875,0.1423589910589158,-0.6202974058143794,0.0189180509597063,0.0676028206944465,0.005182335153222,0.2516761124134063,walking,2026-03-04_14-04-11
1772633057610164700,6.490164794921875,-0.0106726390533149,-0.7949711050227284,-0.0272796365916728,0.0758213326334953,-0.0199142303317785,0.2315585911273956,walking,2026-03-04_14-04-11
1772633057620113700,6.50011376953125,-0.1549848830718547,-0.8967711450695991,-0.1064706622064113,0.0648655742406845,-0.0245295464992523,0.2028081566095352,walking,2026-03-04_14-04-11
1772633057630062600,6.5100625,-0.2819331371722742,-0.9510397647432982,-0.2117997531622648,0.041518434882164,-0.0161331314593553,0.1676970422267913,walking,2026-03-04_14-04-11
1772633057640011800,6.52001171875,-0.3871363367261365,-0.9150016521565616,-0.3398965562433004,0.0090213967487216,-0.0042185871861875,0.1383211463689804,walking,2026-03-04_14-04-11
1772633057649960700,6.529960693359375,-0.4118604801487177,-0.8249068090811371,-0.5085165083706379,-0.005937844980508,0.008393345400691,0.1301090121269226,walking,2026-03-04_14-04-11
1772633057659909600,6.53990966796875,-0.3648961556063965,-0.7096702182255685,-0.8354623976260424,0.0220885947346687,0.0526384711265563,0.1501030325889587,walking,2026-03-04_14-04-11
1772633057669859600,6.549859619140625,-0.3028766660775989,-0.5315929941840469,-1.1893407174706458,0.0705485343933105,0.0946178808808326,0.1914171725511551,walking,2026-03-04_14-04-11
1772633057679808500,6.55980859375,-0.2313801770208403,-0.3939408656418323,-1.3382102594673633,0.1504131406545639,0.1617758423089981,0.2623187303543091,walking,2026-03-04_14-04-11
1772633057689757700,6.5697578125,-0.1646392484607174,-0.4277538495250046,-1.5322674351900816,0.2461300790309906,0.2536189556121826,0.321648359298706,walking,2026-03-04_14-04-11
1772633057699706600,6.57970654296875,-0.2462895403284579,-0.4657515717469155,-1.5091116005301477,0.3267795145511627,0.294283390045166,0.3656988143920898,walking,2026-03-04_14-04-11
1772633057709655800,6.58965576171875,-0.2941249486168846,-0.6169296829469502,-1.2301999666035175,0.3792363405227661,0.2625358402729034,0.3924201726913452,walking,2026-03-04_14-04-11
1772633057719604700,6.599604736328125,-0.2676726296948268,-0.8541818572737276,-0.8218050436735153,0.402592658996582,0.1926636397838592,0.3997579216957092,walking,2026-03-04_14-04-11
1772633057729553700,6.6095537109375,-0.2668134190496057,-0.976684932000935,-0.4978916539818048,0.4009841084480285,0.106994017958641,0.3988114297389984,walking,2026-03-04_14-04-11
1772633057739502600,6.619502685546875,-0.3270621725788339,-1.002984471514076,-0.2718658070683479,0.3727307915687561,0.0144684314727783,0.3803467750549316,walking,2026-03-04_14-04-11
1772633057749451500,6.629451416015625,-0.4389212863579392,-1.0110798074252902,-0.1328209089934826,0.3247368931770324,-0.0761613398790359,0.3470276892185211,walking,2026-03-04_14-04-11
1772633057759400700,6.639400634765625,-0.5194703389855101,-0.9741194654271006,-0.0948778395682573,0.2509669661521911,-0.1548396646976471,0.2867696285247803,walking,2026-03-04_14-04-11
