time,seconds_elapsed,acc_x,acc_y,acc_z,gyr_x,gyr_y,gyr_z,activity,session
1772633195346911700,0.073911865234375,-0.0305032748132944,0.0407781467206776,0.4162783696562051,-0.1037562489509582,-0.0482336543500423,0.1437130868434906,walking,2026-03-04_14-06-35
1772633195356860700,0.083860595703125,-0.1000092111073434,0.0384837521731853,0.4297217885971069,-0.123467244207859,-0.0310630239546298,0.1506642699241638,walking,2026-03-04_14-06-35
1772633195366809600,0.0938095703125,-0.2458748220477253,0.0910202873572707,0.4285363782048225,-0.1339457184076309,-0.0133279683068394,0.1369599103927612,walking,2026-03-04_14-06-35
1772633195376758500,0.103758544921875,-0.4492849325273185,0.0858696265958249,0.3756728030234575,-0.1326953619718551,0.0010171381291002,0.1055965423583984,walking,2026-03-04_14-06-35
1772633195386707500,0.11370751953125,-0.6146787622150033,0.0333691856384277,0.2442109074234962,-0.1118337735533714,0.001282654935494,0.0616948641836643,walking,2026-03-04_14-06-35
1772633195396656600,0.12365673828125,-0.6715875211339444,0.0064008069530129,0.0748012662231922,-0.0732089206576347,0.0061329593881964,0.0296506136655807,walking,2026-03-04_14-06-35
1772633195406605600,0.13360546875,-0.5377369037665426,0.0670918608896434,-0.0457598806560039,-0.0354458279907703,0.0180423483252525,0.0290434136986732,walking,2026-03-04_14-06-35
1772633195416555500,0.143555419921875,-0.2378322392370551,0.1067757826328277,0.0043956046104431,-0.0108791124075651,0.0086817704141139,0.053087294101715,walking,2026-03-04_14-06-35
1772633195426504700,0.153504638671875,0.054401671468839,0.0588322743274271,0.1857312459260225,-0.0083765406161546,-0.0384322106838226,0.0816196054220199,walking,2026-03-04_14-06-35
1772633195436453600,0.16345361328125,0.2291445634558796,-0.0807078599184751,0.419366983321309,-0.0285765659064054,-0.120007112622261,0.0948703214526176,walking,2026-03-04_14-06-35
1772633195446402600,0.173402587890625,0.2345929650548845,-0.2310739240832626,0.5778028105646371,-0.064586766064167,-0.214672103524208,0.0977856814861297,walking,2026-03-04_14-06-35
1772633195456351500,0.1833515625,0.2039715437546372,-0.3338273193322122,0.6444032346755266,-0.1008847951889038,-0.2856988310813904,0.0921102613210678,walking,2026-03-04_14-06-35
1772633195466300400,0.193300537109375,0.1526156697224825,-0.3957436772800982,0.5443459466427565,-0.1193365082144737,-0.3018221259117126,0.0717192366719245,walking,2026-03-04_14-06-35
1772633195476249300,0.203249267578125,-0.0101486151792109,-0.412225879395008,0.2327706449985504,-0.1155184954404831,-0.2571404278278351,0.0477597527205944,walking,2026-03-04_14-06-35
1772633195486198800,0.21319873046875,-0.1866116089571267,-0.3814835351288318,-0.1138075809657573,-0.0922230184078216,-0.1737619191408157,0.0328905247151851,walking,2026-03-04_14-06-35
1772633195496147700,0.223147705078125,-0.231833729474619,-0.3132023183241486,-0.2729395737797022,-0.0689903050661087,-0.085331954061985,0.0243535414338111,walking,2026-03-04_14-06-35
1772633195506096600,0.2330966796875,-0.2653596400447189,-0.3176988990910351,-0.3271978181898594,-0.0546931251883506,-0.0120169939473271,0.0131307141855359,walking,2026-03-04_14-06-35
1772633195516046600,0.243046630859375,-0.3400369145620614,-0.3558557573974132,-0.2694154913067818,-0.0513679794967174,0.027225162833929,0.0028237150982022,walking,2026-03-04_14-06-35
1772633195525995500,0.25299560546875,-0.301120981516689,-0.4173233486644923,-0.096073771354556,-0.0586157739162445,0.0309671703726053,-0.0020410811994224,walking,2026-03-04_14-06-35
1772633195535944400,0.2629443359375,-0.1575857862852513,-0.4963930859871208,0.1087444523572921,-0.0683412998914718,0.0207228325307369,-0.0058478987775743,walking,2026-03-04_14-06-35
1772633195545893600,0.2728935546875,-0.0637606706403195,-0.535669011451304,0.279038475176692,-0.0685604810714721,0.0193805992603302,-0.0222260728478431,walking,2026-03-04_14-06-35
1772633195555842600,0.282842529296875,-0.0708413496162742,-0.6159745741792023,0.3008516630560159,-0.0577485896646976,0.0319582670927047,-0.036672543734312,walking,2026-03-04_14-06-35
1772633195565791500,0.29279150390625,-0.0676532941646873,-0.6720354840971529,0.3000339169323444,-0.0589336939156055,0.0307004544883966,-0.0464889556169509,walking,2026-03-04_14-06-35
1772633195575740700,0.30274072265625,0.0145367671355605,-0.7491194544300437,0.4778717792600393,-0.0888511762022972,-0.0040869545191526,-0.0488285571336746,walking,2026-03-04_14-06-35
1772633195585689600,0.312689697265625,0.1259670975759625,-0.8698746625766157,0.7279536245435476,-0.1412057280540466,-0.0757486224174499,-0.0527271591126918,walking,2026-03-04_14-06-35
1772633195595638500,0.322638427734375,0.2132126156348735,-0.9585174071475864,0.9163403534144162,-0.2196211218833923,-0.139385774731636,-0.0533552542328834,walking,2026-03-04_14-06-35
1772633195605587500,0.33258740234375,0.2444754035785794,-1.006757268051058,1.0075129087239505,-0.3010818660259247,-0.1593251377344131,-0.0539161153137683,walking,2026-03-04_14-06-35
1772633195615537700,0.34253759765625,0.2128316534932702,-1.052744235461205,0.8817565312892198,-0.365271508693695,-0.1245581954717636,-0.0638403594493866,walking,2026-03-04_14-06-35
1772633195625486600,0.352486572265625,0.0012274229031056,-1.0404084855012594,0.5272650479823351,-0.4019176661968231,-0.0663601383566856,-0.0773566961288452,walking,2026-03-04_14-06-35
1772633195635435500,0.362435546875,-0.1176375875826925,-0.9698080319687724,0.1560866337686777,-0.4024402797222137,-0.0108755407854914,-0.0717235058546066,walking,2026-03-04_14-06-35
1772633195645383200,0.372383056640625,-0.0761598412252962,-0.8650725229918956,-0.1069563998967409,-0.3694801926612854,0.0264121778309345,-0.050223272293806,walking,2026-03-04_14-06-35
1772633195655332000,0.38233203125,0.0012139058344066,-0.7479119783364236,-0.2450759998202323,-0.3125118911266327,0.0471089892089366,-0.0217338073998689,walking,2026-03-04_14-06-35
1772633195665281300,0.39228125,0.074971362093091,-0.6585834434583783,-0.2750339157104492,-0.2329321205615997,0.0608016327023506,0.0020436937920749,walking,2026-03-04_14-06-35
1772633195675230200,0.402230224609375,0.0338174408625811,-0.629349019537121,-0.2441799277633428,-0.1391411423683166,0.0588354393839836,0.0105745121836662,walking,2026-03-04_14-06-35
1772633195685179100,0.41217919921875,-0.071964873753488,-0.6490889082737267,-0.1569815367817878,-0.0546536855399608,0.0138202961534261,0.0051158312708139,walking,2026-03-04_14-06-35
1772633195695128300,0.42212841796875,-0.0920093714598566,-0.7404517254583537,0.0779226131141185,-0.0073198191821575,-0.0743382051587104,-0.0077182799577713,walking,2026-03-04_14-06-35
1772633195705077200,0.4320771484375,0.0018931933354586,-0.8473466044262051,0.3857125510007143,0.001988195348531,-0.1555041521787643,-0.0078362580388784,walking,2026-03-04_14-06-35
1772633195715027200,0.442027099609375,0.0891969443876296,-0.921131971605122,0.6581278086453676,-0.0128462212160229,-0.1941802501678466,-0.0051486287266016,walking,2026-03-04_14-06-35
1772633195724976400,0.451976318359375,0.0514325194649398,-0.9235492618799208,0.776230456456542,-0.0318185836076736,-0.1969992071390152,-0.0094642806798219,walking,2026-03-04_14-06-35
1772633195734925300,0.46192529296875,-0.0298906228076666,-0.9168914114259182,0.7055512385994196,-0.0433416664600372,-0.1888985633850097,-0.0068310098722577,walking,2026-03-04_14-06-35
1772633195744874200,0.471874267578125,-0.0099413291040807,-0.9366215094208716,0.6263543677657842,-0.0464056320488452,-0.1730708628892898,-0.0050040809437632,walking,2026-03-04_14-06-35
1772633195754823200,0.4818232421875,0.0051787908773869,-0.977492741252482,0.5940495964884758,-0.0494879521429538,-0.1520882397890091,-0.0124620972201228,walking,2026-03-04_14-06-35
1772633195764772000,0.491772216796875,-0.0806453160762786,-1.0862893621884286,0.5643640677988528,-0.0403732806444168,-0.126159980893135,-0.0418527424335479,walking,2026-03-04_14-06-35
1772633195774721000,0.501720947265625,-0.2455617375105619,-1.1890588317893445,0.445659946963191,-0.0304298363626003,-0.0786030143499374,-0.0814268067479133,walking,2026-03-04_14-06-35
1772633195784670200,0.511670166015625,-0.3624919805414974,-1.2616940060198307,0.3914198227316141,-0.0401170849800109,-0.043557409197092,-0.1141053885221481,walking,2026-03-04_14-06-35
1772633195794619100,0.521619140625,-0.3401704778138548,-1.3334158647976817,0.5284808535128832,-0.0788139328360557,-0.0543830133974552,-0.1425784677267074,walking,2026-03-04_14-06-35
1772633195804568300,0.531568359375,-0.2201126042816787,-1.444637374792993,0.7099152790278196,-0.1290379464626312,-0.0921373143792152,-0.1610267162322998,walking,2026-03-04_14-06-35
1772633195814518300,0.541518310546875,-0.1208973200310021,-1.4925998800598084,0.7889332861632108,-0.1802327185869217,-0.1137751638889312,-0.1602753102779388,walking,2026-03-04_14-06-35
1772633195824467200,0.55146728515625,-0.0800180510234087,-1.4998897448070347,0.6760615247428416,-0.2037992924451828,-0.1118105500936508,-0.156989499926567,walking,2026-03-04_14-06-35
1772633195834416000,0.561416015625,-0.0780157347576692,-1.5887680516995488,0.4048772701978683,-0.1895367056131363,-0.1006390154361724,-0.1614505499601364,walking,2026-03-04_14-06-35
1772633195844365000,0.571364990234375,-0.13004676810503,-1.6773441607750952,0.1205173077374696,-0.1370692402124405,-0.0781275779008865,-0.1696394979953766,walking,2026-03-04_14-06-35
1772633195854314000,0.58131396484375,-0.1825997064346447,-1.7235151064500212,-0.060131520357728,-0.0703889653086662,-0.063779592514038,-0.1822913736104965,walking,2026-03-04_14-06-35
1772633195864263400,0.591263427734375,-0.1402274954555556,-1.792360094617307,-0.0621159721732139,-0.007473652716726,-0.0660491362214088,-0.1941315233707428,walking,2026-03-04_14-06-35
1772633195874212400,0.60121240234375,-0.0947051864150911,-1.8814315859943629,0.0520025744378566,0.044978529214859,-0.0812006518244743,-0.2017054557800293,walking,2026-03-04_14-06-35
1772633195884161300,0.611161376953125,-0.0411231607660651,-1.9640987632870672,0.1645849975228309,0.0756554827094078,-0.0945452153682708,-0.2136156409978866,walking,2026-03-04_14-06-35
1772633195894110200,0.621110107421875,-0.0455645042143762,-2.011377085682005,0.3102683106988668,0.0851948633790016,-0.1137508973479271,-0.2279379069805145,walking,2026-03-04_14-06-35
1772633195904059100,0.63105908203125,-0.0024741715611889,-2.0644372063487766,0.5029366624116898,0.0708699896931648,-0.1383012533187866,-0.241627350449562,walking,2026-03-04_14-06-35
1772633195914008000,0.641008056640625,0.0759481347033754,-2.0833613947883247,0.6641220806241035,0.0513809397816658,-0.1470603346824646,-0.2582875788211822,walking,2026-03-04_14-06-35
1772633195923958300,0.650958251953125,0.1314495110424235,-2.121495602871477,0.6973492274433374,0.0232433080673217,-0.1579984724521637,-0.2796708941459656,walking,2026-03-04_14-06-35
1772633195933907200,0.6609072265625,0.1879219974359497,-2.1345139282681047,0.7052005254656076,-0.0118560697883367,-0.1776026040315628,-0.3021090626716614,walking,2026-03-04_14-06-35
1772633195943856000,0.670856201171875,0.3013415289321914,-2.148515419483185,0.6536638149738312,-0.0418587103486061,-0.1817310452461242,-0.3204611539840698,walking,2026-03-04_14-06-35
1772633195953805300,0.680805419921875,0.3671233666691929,-2.0717117273963988,0.5085761296033859,-0.0700075253844261,-0.166352093219757,-0.3305670619010925,walking,2026-03-04_14-06-35
1772633195963754200,0.690754150390625,0.4068260661780834,-1.9134169160589571,0.3132522949457168,-0.0915319919586181,-0.1516849994659423,-0.3296133875846863,walking,2026-03-04_14-06-35
1772633195973703200,0.700703125,0.5012521068582311,-1.7465354781620204,0.1591705712586641,-0.1059475392103195,-0.1438614875078201,-0.3301980495452881,walking,2026-03-04_14-06-35
1772633195983652000,0.710652099609375,0.5421837636401876,-1.586890713520348,-0.0115133276611566,-0.0986568704247474,-0.1358112841844558,-0.3303429186344147,walking,2026-03-04_14-06-35
1772633195993601000,0.72060107421875,0.5888524662367999,-1.4049176510840653,-0.2755886269837618,-0.0762787014245987,-0.1315793544054031,-0.3142069876194,walking,2026-03-04_14-06-35
1772633196003550200,0.73055029296875,0.7165157002061605,-1.2390741779327392,-0.4961497787505388,-0.0428235419094562,-0.1402615159749984,-0.2767080664634704,walking,2026-03-04_14-06-35
1772633196013500200,0.740500244140625,0.8722429991431534,-1.1135893109157682,-0.6779840172380208,0.0017400486394762,-0.1284634619951248,-0.2097706794738769,walking,2026-03-04_14-06-35
1772633196023449000,0.750448974609375,0.9792009334098548,-0.9581639175347983,-0.8120318376779556,0.0705111175775528,-0.0806922018527984,-0.1813009530305862,walking,2026-03-04_14-06-35
1772633196033398300,0.760398193359375,0.9049420304350554,-0.88467957912907,-0.94033614602983,0.1528128087520599,-0.0677504763007164,-0.1687881499528885,walking,2026-03-04_14-06-35
1772633196043347200,0.77034716796875,0.8622421218715608,-0.8904615235313773,-0.9138888686090708,0.2041236609220504,-0.1015347987413406,-0.1581956893205642,walking,2026-03-04_14-06-35
1772633196053296000,0.780296142578125,0.8684728329546749,-0.9413574519015848,-0.7216963177144528,0.2005863040685653,-0.1733097583055496,-0.1483722925186157,walking,2026-03-04_14-06-35
1772633196063245300,0.790245361328125,0.8914908665791154,-0.9500149517402052,-0.4100800995379686,0.1518501788377761,-0.2638694941997528,-0.1481595039367675,walking,2026-03-04_14-06-35
1772633196073194200,0.8001943359375,0.8098193492602557,-0.9900750133194028,-0.3149059073716402,0.08729238063097,-0.326160728931427,-0.1451163738965988,walking,2026-03-04_14-06-35
1772633196083143200,0.81014306640625,0.7486837664265185,-0.979886942912638,-0.483859036976099,0.0399315245449543,-0.3279708921909332,-0.1382171958684921,walking,2026-03-04_14-06-35
1772633196093092000,0.820092041015625,0.6536078470028936,-0.8942315435893833,-0.7962690358787775,0.0164018832147121,-0.3053239285945892,-0.1341375112533569,walking,2026-03-04_14-06-35
1772633196103041300,0.830041259765625,0.577482200308144,-0.7846900956355035,-1.1027934838742015,0.0255743414163589,-0.2415745258331298,-0.1443776339292526,walking,2026-03-04_14-06-35
1772633196112991000,0.839990966796875,0.4328813120739534,-0.6634745765008032,-1.4246464339047669,0.0392652712762355,-0.1723705828189849,-0.1592642366886139,walking,2026-03-04_14-06-35
1772633196122940400,0.8499404296875,0.3059836556496098,-0.4634134841881692,-1.610645390856266,0.0349357686936855,-0.1190058961510658,-0.1568639278411865,walking,2026-03-04_14-06-35
1772633196132889300,0.859889404296875,0.3160891988720745,-0.2841590330608189,-1.5857131941735745,-0.0017309323884546,-0.0958451181650161,-0.1521348357200622,walking,2026-03-04_14-06-35
1772633196142838300,0.86983837890625,0.3582121477978304,-0.1375803784802556,-1.4434592709243297,-0.0717251971364021,-0.1106999590992927,-0.1377420425415039,walking,2026-03-04_14-06-35
1772633196152787200,0.879787109375,0.3504887139389291,0.0382028894051909,-1.266157999691367,-0.1626545041799545,-0.1530263274908065,-0.1186467483639717,walking,2026-03-04_14-06-35
1772633196162736000,0.889736083984375,0.2613898048319854,0.2555181911185383,-1.2213292624056338,-0.245033785700798,-0.1803141385316848,-0.1033338382840156,walking,2026-03-04_14-06-35
1772633196172685000,0.89968505859375,0.0497950909888371,0.4898914490081369,-1.4009697902411222,-0.2885971963405609,-0.1768556386232376,-0.0927117988467216,walking,2026-03-04_14-06-35
1772633196182634200,0.90963427734375,-0.2164533876543864,0.8008658621497452,-1.6985352712333202,-0.2745322585105896,-0.14699786901474,-0.0611402913928031,walking,2026-03-04_14-06-35
1772633196192583200,0.919583251953125,-0.3168797647278755,1.1167030590221283,-1.9883833097159864,-0.1955411732196808,-0.0807360485196113,-0.0009930178057402,walking,2026-03-04_14-06-35
1772633196202532400,0.929532470703125,-0.2730615744578652,1.3416732594028111,-2.294923539802432,-0.0380160063505172,0.0211631525307893,0.0538473278284072,walking,2026-03-04_14-06-35
1772633196212482300,0.939482421875,-0.4114425469975918,1.5362497828245163,-2.5208622929543254,0.1760480105876922,0.1232407391071319,0.0917660444974899,walking,2026-03-04_14-06-35
1772633196222431200,0.94943115234375,-0.5912697930442169,1.635328581213951,-2.4235996040761467,0.3947747647762298,0.1753199249505996,0.1152141094207763,walking,2026-03-04_14-06-35
1772633196232380200,0.959380126953125,-0.745977941533923,1.6591083929911254,-1.946325790709257,0.5689009428024292,0.1521034985780716,0.1210448071360588,walking,2026-03-04_14-06-35
1772633196242329000,0.9693291015625,-0.8222628704436122,1.541201560012996,-1.166404663041234,0.6780394315719604,0.0724994763731956,0.1173371523618698,walking,2026-03-04_14-06-35
1772633196252278000,0.979278076171875,-0.9051919135428964,1.3741991260848938,-0.4289963969320058,0.7369096279144287,-0.0149515522643923,0.0849457904696464,walking,2026-03-04_14-06-35
1772633196262227200,0.989227294921875,-1.1554355252593755,1.1823283544905483,0.0964051952660083,0.756532609462738,-0.0984211415052414,0.0163933616131544,walking,2026-03-04_14-06-35
1772633196272176400,0.99917626953125,-1.3701416673876343,1.0527271381959318,0.5054536136686801,0.7515520453453064,-0.1710215210914611,-0.0663399696350097,walking,2026-03-04_14-06-35
1772633196282125300,1.009125244140625,-1.416888805515319,1.0019809935599564,0.8503384797185659,0.7111721038818359,-0.2286185026168823,-0.1352998614311218,walking,2026-03-04_14-06-35
1772633196292074200,1.01907421875,-1.296125414062291,1.000075306069106,1.1152052216798067,0.647026002407074,-0.2527354955673218,-0.1944072246551513,walking,2026-03-04_14-06-35
1772633196302023200,1.029023193359375,-1.176489565334469,1.0289122551053762,1.3022837905615567,0.5558556318283081,-0.230164423584938,-0.240702286362648,walking,2026-03-04_14-06-35
1772633196311973000,1.03897314453125,-1.0965342042837292,1.0834145374044777,1.4508809453576803,0.429975301027298,-0.159927099943161,-0.280712753534317,walking,2026-03-04_14-06-35
1772633196321922300,1.04892236328125,-0.989967972748354,1.0620141681097448,1.6368255417734383,0.2699981331825256,-0.0748870447278022,-0.3145753741264343,walking,2026-03-04_14-06-35
1772633196331871200,1.058871337890625,-0.8668576528429984,0.9777719965852796,1.83184600957036,0.09251369535923,0.0160514265298843,-0.3439666628837585,walking,2026-03-04_14-06-35
1772633196341820200,1.068820068359375,-0.7392404499724506,0.8869201976627111,1.8902052595585583,-0.0760090053081512,0.1021668687462806,-0.3645648658275604,walking,2026-03-04_14-06-35
1772633196351769000,1.07876904296875,-0.6136952310703695,0.8471370533287524,1.807722206661105,-0.2263179719448089,0.1434843838214874,-0.3762750029563904,walking,2026-03-04_14-06-35
1772633196361718300,1.08871826171875,-0.4143880989301949,0.8492337333470582,1.7235241665393113,-0.3413899838924408,0.1375665813684463,-0.3692346811294555,walking,2026-03-04_14-06-35
1772633196371667200,1.098667236328125,-0.1414109148201532,0.8318889230534434,1.493489668506384,-0.3992009162902832,0.1304385513067245,-0.3406121730804443,walking,2026-03-04_14-06-35
1772633196381616000,1.1086162109375,0.1193522825460881,0.8234390746161341,1.097347493427992,-0.3961758315563202,0.1336758881807327,-0.3003590106964111,walking,2026-03-04_14-06-35
1772633196391565000,1.11856494140625,0.2601975811064243,0.8312870116375386,0.6653302873700857,-0.337516188621521,0.1394400745630264,-0.2578550577163696,walking,2026-03-04_14-06-35
1772633196401514200,1.12851416015625,0.341929742571339,0.8234380517028271,0.3825643161028623,-0.25315922498703,0.1520496159791946,-0.2067063748836517,walking,2026-03-04_14-06-35
1772633196411464200,1.138464111328125,0.4191058846997096,0.7590482893787324,0.2812561512261629,-0.1618742048740387,0.1378846913576126,-0.1481294184923172,walking,2026-03-04_14-06-35
1772633196421413000,1.1484130859375,0.5357104394402354,0.680370912374556,0.370737100186944,-0.0939840972423553,0.0885291248559951,-0.0830351114273071,walking,2026-03-04_14-06-35
1772633196431362000,1.158362060546875,0.5610812832685187,0.4977873168244958,0.6143775142461061,-0.0576672032475471,0.0063820760697126,-0.0259798597544431,walking,2026-03-04_14-06-35
1772633196441311200,1.168311279296875,0.5146825201870874,0.2815248851649463,0.8392810791313647,-0.0528127960860729,-0.077604703605175,0.0225032530725002,walking,2026-03-04_14-06-35
1772633196451260200,1.17826025390625,0.3658690557591617,0.1198104746423661,1.0410095201343297,-0.0787736177444458,-0.1405827403068542,0.054600715637207,walking,2026-03-04_14-06-35
1772633196461209300,1.188209228515625,0.1394233029332011,-0.0098842651546001,1.1237094306528568,-0.1209258586168289,-0.1592432409524917,0.0748031958937645,walking,2026-03-04_14-06-35
1772633196471158300,1.198158203125,-0.0677960271036252,-0.1087726555384695,1.0604495491415262,-0.1622249186038971,-0.135587140917778,0.0958257317543029,walking,2026-03-04_14-06-35
1772633196481107200,1.208107177734375,-0.2035653375739231,-0.1545493411988019,0.96185824200809,-0.1892991513013839,-0.0974842309951782,0.1216285675764083,walking,2026-03-04_14-06-35
1772633196491056000,1.21805615234375,-0.2119073051899671,-0.1385495157733559,0.7849059303432703,-0.180133581161499,-0.0434937700629234,0.1616781204938888,walking,2026-03-04_14-06-35
1772633196501005000,1.228005126953125,-0.2623809530274942,-0.0619099282070994,0.5310545033931732,-0.1391904056072235,0.0131684429943561,0.2088930308818817,walking,2026-03-04_14-06-35
1772633196510955000,1.237955078125,-0.3197538588594645,0.0842098766900599,0.4042962554395198,-0.0909627899527549,0.0216828566044569,0.2535771131515503,walking,2026-03-04_14-06-35
1772633196520904200,1.247904296875,-0.3244252847366035,0.1077794067174196,0.484095768341422,-0.0535373911261558,-0.0226547792553901,0.2931405007839203,walking,2026-03-04_14-06-35
1772633196530853400,1.257853271484375,-0.3204734418382868,0.0119609252981841,0.6397872653126716,-0.0337180458009243,-0.0854350924491882,0.3224491775035858,walking,2026-03-04_14-06-35
1772633196540802300,1.26780224609375,-0.4125510927613824,-0.0699291301421821,0.7583493473291396,-0.0246622338891029,-0.1269292831420898,0.3459377288818359,walking,2026-03-04_14-06-35
1772633196550751200,1.277751220703125,-0.4930973323773592,-0.1606065954111516,0.8592629599303007,-0.0306567046791315,-0.158438891172409,0.3650685548782348,walking,2026-03-04_14-06-35
1772633196560700200,1.2877001953125,-0.5158889003021643,-0.2659457693696022,0.9283902721703052,-0.0295485649257898,-0.1661418229341507,0.3728396594524383,walking,2026-03-04_14-06-35
1772633196570649000,1.297649169921875,-0.5339287801878526,-0.3621174481406807,0.9031903644621372,-0.0152251543477177,-0.1303277015686035,0.3805326521396637,walking,2026-03-04_14-06-35
1772633196580598000,1.307597900390625,-0.5642656123930588,-0.3989259605780244,0.8324754907697439,0.0053008934482932,-0.0656057074666023,0.382002979516983,walking,2026-03-04_14-06-35
1772633196590547200,1.317547119140625,-0.5444661389563232,-0.4421222743563354,0.8546592655271291,0.0085507482290267,-0.0121049340814352,0.3793954849243164,walking,2026-03-04_14-06-35
1772633196600496400,1.327496337890625,-0.4667590317564085,-0.5050485399991274,1.014383963537216,-0.004113114438951,0.02509649656713,0.3720587491989136,walking,2026-03-04_14-06-35
1772633196610446300,1.3374462890625,-0.40390192235969,-0.6342024509176611,1.1421715545386075,-0.0341875590384006,0.0368114560842514,0.3560856878757477,walking,2026-03-04_14-06-35
1772633196620395300,1.347395263671875,-0.3455427089041099,-0.717605833530426,1.245555356645584,-0.0763049200177192,0.0350910536944866,0.3364898860454559,walking,2026-03-04_14-06-35
1772633196630344200,1.35734423828125,-0.2725247824337333,-0.7484617211736738,1.2678928606599569,-0.1174473091959953,0.0526029244065284,0.3257383108139038,walking,2026-03-04_14-06-35
1772633196640293000,1.367293212890625,-0.1427620737007819,-0.7044517529249191,1.175187104433775,-0.1563451737165451,0.0799732953310012,0.3221933841705322,walking,2026-03-04_14-06-35
1772633196650242600,1.37724267578125,-0.0884280149749014,-0.6272399184286594,0.988555694797635,-0.175005242228508,0.1125650852918624,0.324352353811264,walking,2026-03-04_14-06-35
1772633196660191500,1.38719140625,-0.017068989026919,-0.6190826231971382,0.7340840901225805,-0.1751708984375,0.1576079279184341,0.3451308608055115,walking,2026-03-04_14-06-35
1772633196670140400,1.397140380859375,0.0789457638830877,-0.6207698456317186,0.5531213737726212,-0.1726726442575454,0.1888496875762939,0.3746318817138672,walking,2026-03-04_14-06-35
1772633196680089600,1.407089599609375,0.1578709964348003,-0.6477152818329632,0.4661515308499336,-0.1682672500610351,0.209317147731781,0.3941472470760345,walking,2026-03-04_14-06-35
1772633196690038500,1.41703857421875,0.137702854082454,-0.7617126862823963,0.3749322137892246,-0.17733995616436,0.2028375118970871,0.3888003528118133,walking,2026-03-04_14-06-35
1772633196699987500,1.426987548828125,-0.0274502804508432,-0.8913272004500031,0.3469277700543403,-0.227868378162384,0.1606916487216949,0.356248527765274,walking,2026-03-04_14-06-35
1772633196709936400,1.436936279296875,-0.2322033117056824,-1.017734296878427,0.3658183484852313,-0.3109303414821625,0.1055195033550262,0.3184395730495453,walking,2026-03-04_14-06-35
1772633196719886600,1.446886474609375,-0.3154487820766866,-1.11951212509349,0.2548158880680799,-0.3866964876651764,0.0603176653385162,0.2835148870944977,walking,2026-03-04_14-06-35
1772633196729835500,1.45683544921875,-0.401134540005587,-1.0794092472858727,-0.1959633016049861,-0.4218051433563232,0.0122990552335977,0.2567742764949798,walking,2026-03-04_14-06-35
1772633196739784400,1.466784423828125,-0.532491988850385,-0.9209681593455372,-0.7927326784461736,-0.4027145206928253,-0.0039044166915118,0.2523829936981201,walking,2026-03-04_14-06-35
1772633196749733400,1.4767333984375,-0.5451403484234586,-0.7722242895551026,-1.44015789129138,-0.3281350433826446,0.0406578332185745,0.2799877226352691,walking,2026-03-04_14-06-35
1772633196759682300,1.486682373046875,-0.5098894041590393,-0.6653337945014238,-2.049583920609951,-0.2109490633010864,0.1145922467112541,0.3224113583564758,walking,2026-03-04_14-06-35
1772633196769631500,1.496631591796875,-0.4942334968004375,-0.6412649366497993,-2.478732293233276,-0.0782912820577621,0.1641664355993271,0.357766330242157,walking,2026-03-04_14-06-35
1772633196779580400,1.506580322265625,-0.559313871737197,-0.7134846619471907,-2.659499779272079,0.0393125750124454,0.1582361161708831,0.3818535506725311,walking,2026-03-04_14-06-35
1772633196789529600,1.516529541015625,-0.6481051579333842,-0.9009146746151148,-2.629095288658142,0.1229192018508911,0.1178775280714035,0.3856787383556366,walking,2026-03-04_14-06-35
1772633196799478500,1.526478515625,-0.7199531273089349,-1.0751998128972946,-2.525253805911541,0.178016796708107,0.0729699730873107,0.3758490085601806,walking,2026-03-04_14-06-35
1772633196809428500,1.536428466796875,-0.7994547532428056,-1.1445716014176606,-2.379884965512157,0.209851861000061,0.0506003275513649,0.3580298721790313,walking,2026-03-04_14-06-35
1772633196819377400,1.54637744140625,-0.8567170017745346,-1.1083281755171717,-2.2477058615535497,0.2131664305925369,0.0341736823320388,0.3249709904193878,walking,2026-03-04_14-06-35
1772633196829326300,1.556326416015625,-0.8984528876114636,-1.0650317623652517,-2.113137232109904,0.1950111538171768,0.0279367454349994,0.2898926436901092,walking,2026-03-04_14-06-35
1772633196839275300,1.566275146484375,-0.8861484826378524,-0.9566476677529512,-2.0170663833647966,0.1596462428569793,0.0292944274842739,0.2545301020145416,walking,2026-03-04_14-06-35
1772633196849224400,1.576224365234375,-0.8376552314952015,-0.7108344396993518,-1.9755249971866609,0.113151378929615,0.0208188723772764,0.2284751832485199,walking,2026-03-04_14-06-35
1772633196859173600,1.586173583984375,-0.6490708611603826,-0.4375969058863818,-1.9109797520399088,0.0656808018684387,0.0131787955760955,0.2101816534996032,walking,2026-03-04_14-06-35
1772633196869122600,1.59612255859375,-0.4364562844838947,-0.1800787731222808,-1.8747534234046932,0.0313514694571495,0.0125035168603062,0.1989704817533493,walking,2026-03-04_14-06-35
1772633196879071500,1.606071533203125,-0.21754355751127,0.1454867676906287,-1.895277155995369,0.0002787723205983,-0.0031721144914627,0.1978831142187118,walking,2026-03-04_14-06-35
1772633196889020400,1.6160205078125,-0.0752766651825979,0.4982952663466334,-1.8159984520971773,-0.0293307024985551,-0.0373152010142803,0.2016676515340805,walking,2026-03-04_14-06-35
1772633196898969300,1.62596923828125,0.0497852819808758,0.785072519081831,-1.76009945474267,-0.0413833707571029,-0.0612479671835899,0.2183499634265899,walking,2026-03-04_14-06-35
1772633196908918300,1.635918212890625,0.1165658118990249,1.008775037614256,-1.788917552947998,-0.007132708095014,-0.041905503720045,0.246885746717453,walking,2026-03-04_14-06-35
1772633196918868500,1.645868408203125,0.0918434768410399,1.2293417423389852,-1.914981973418593,0.0907661616802215,0.034457441419363,0.271911472082138,walking,2026-03-04_14-06-35
1772633196928817400,1.6558173828125,0.0315989884949754,1.392048963291198,-2.0362720190942287,0.2488458305597305,0.1487105190753936,0.2865464985370636,walking,2026-03-04_14-06-35
1772633196938766600,1.6657666015625,-0.0014113829015754,1.4638047243386507,-2.0107500398248432,0.4483823478221893,0.2720745503902435,0.2965304255485534,walking,2026-03-04_14-06-35
1772633196948715500,1.675715576171875,0.0814120261324569,1.5501410916633902,-1.6715402968019246,0.6166924238204956,0.3934245109558105,0.2716668248176574,walking,2026-03-04_14-06-35
1772633196958664400,1.68566455078125,0.1671257132478989,1.5153512255720794,-0.9373469010859729,0.7219477891921997,0.4576309323310852,0.2681306600570678,walking,2026-03-04_14-06-35
1772633196968613400,1.69561328125,0.4624123808542266,1.423629950338602,0.0092296006381511,0.7384680509567261,0.4694921970367431,0.2805703282356262,walking,2026-03-04_14-06-35
1772633196978562300,1.705562255859375,0.7653460743486881,1.3348098033741116,0.9885036723494528,0.6839931011199951,0.4172074198722839,0.3052655756473541,walking,2026-03-04_14-06-35
1772633196988511500,1.715511474609375,0.996441918002814,1.296444124622643,1.7886738073199986,0.5754797458648682,0.3171923160552978,0.3435637354850769,walking,2026-03-04_14-06-35
1772633196998460400,1.72546044921875,1.2010540246833117,1.243449616537988,2.329907759422064,0.4560620486736297,0.1705158054828643,0.365443468093872,walking,2026-03-04_14-06-35
1772633197008409600,1.73540966796875,1.2571671762451528,1.1854964631326497,2.585350254955888,0.3349692523479461,0.0216662902384996,0.3948298096656799,walking,2026-03-04_14-06-35
1772633197018359300,1.745359375,1.2391017965920268,1.103950398824364,2.577572606691718,0.2289919704198837,-0.1129040345549583,0.416942834854126,walking,2026-03-04_14-06-35
1772633197028308500,1.75530859375,1.0416007640257476,1.1791412488870323,2.3470529554903505,0.1551740765571594,-0.1837155222892761,0.4199633300304413,walking,2026-03-04_14-06-35
1772633197038257400,1.76525732421875,0.7374436296835541,1.2291121713668107,1.9415689515709875,0.1046025156974792,-0.2166705429553985,0.4069649875164032,walking,2026-03-04_14-06-35
1772633197048206600,1.77520654296875,0.4928497873570769,1.240142245555669,1.60869834844172,0.0737868323922157,-0.2424537539482116,0.3859579563140869,walking,2026-03-04_14-06-35
1772633197058155500,1.785155517578125,0.2877077567846514,1.199532733400166,1.249652855092287,0.0716166198253631,-0.2458916306495666,0.3463437259197235,walking,2026-03-04_14-06-35
1772633197068104400,1.7951044921875,-0.0174329269684851,1.183354482667893,0.91375968927145,0.0678908079862594,-0.2334563732147216,0.2945027351379394,walking,2026-03-04_14-06-35
1772633197078053400,1.805053466796875,-0.2526709301949478,1.1720435457110403,0.7553595178633928,0.0467200092971324,-0.2288262099027633,0.2383177578449249,walking,2026-03-04_14-06-35
1772633197088002600,1.81500244140625,-0.3943278556654229,1.0999714121907949,0.7213374212741851,-0.0042288112454116,-0.2343997806310653,0.1809147149324417,walking,2026-03-04_14-06-35
1772633197097951500,1.824951416015625,-0.4691792446406558,1.0525541197165846,0.7464940743625164,-0.0809158682823181,-0.2312431335449218,0.1341522634029388,walking,2026-03-04_14-06-35
1772633197107900400,1.834900390625,-0.4844547378469258,1.0044302864082155,0.7668529717803001,-0.1625121831893921,-0.1992388665676117,0.098572701215744,walking,2026-03-04_14-06-35
1772633197117850600,1.8448505859375,-0.4634798639552667,0.9796604406803846,0.6531862605899572,-0.2232532948255539,-0.1203831955790519,0.0676454156637191,walking,2026-03-04_14-06-35
1772633197127799600,1.854799560546875,-0.475625900029391,0.9669225396603344,0.404135511919856,-0.2538061439990997,-0.0076501751318573,0.0390073582530021,walking,2026-03-04_14-06-35
1772633197137748500,1.86474853515625,-0.5382705357192084,0.9759105866275728,0.2292974159300327,-0.2611325085163116,0.1035834029316902,0.0065660648979246,walking,2026-03-04_14-06-35
1772633197147697400,1.874697509765625,-0.5672038943346589,0.946925899683684,0.1724520776361227,-0.2597894072532654,0.1714908629655838,-0.0225153546780347,walking,2026-03-04_14-06-35
1772633197157646300,1.884646240234375,-0.450109217989631,0.8739560866713524,0.2759709042996168,-0.2385940998792648,0.2175899147987365,-0.0416472367942333,walking,2026-03-04_14-06-35
1772633197167595300,1.89459521484375,-0.3456245785012841,0.8190687505774199,0.3378524831950664,-0.2026760131120681,0.2401677966117859,-0.066066138446331,walking,2026-03-04_14-06-35
1772633197177544400,1.90454443359375,-0.3545043062558397,0.7937047383487225,0.4331412416517734,-0.1696573346853256,0.2113105803728103,-0.0873035117983818,walking,2026-03-04_14-06-35
1772633197187493600,1.91449365234375,-0.2316989971790462,0.7362263628482818,0.6721048960715532,-0.1506246030330658,0.1571250408887863,-0.0907179862260818,walking,2026-03-04_14-06-35
1772633197197442600,1.924442626953125,-0.0119036421529948,0.6057037939250469,0.9264759629815816,-0.1496999561786651,0.0908275246620178,-0.0804381817579269,walking,2026-03-04_14-06-35
1772633197207391500,1.9343916015625,0.1757219661522656,0.4747629995897412,1.154240762516856,-0.1621989011764526,0.0218088142573833,-0.0551180094480514,walking,2026-03-04_14-06-35
1772633197217341400,1.944341552734375,0.3091666695998981,0.3735452894754708,1.3418249428331852,-0.1847409605979919,-0.0611329413950443,-0.0357682779431343,walking,2026-03-04_14-06-35
1772633197227290400,1.954290283203125,0.3271774329889566,0.2169362392678856,1.3586737863034009,-0.1986453235149383,-0.1126576513051986,-0.0379107967019081,walking,2026-03-04_14-06-35
1772633197237239300,1.9642392578125,0.0934029264437966,0.0293298471197485,1.197729191109538,-0.210997074842453,-0.1392602324485778,-0.0649312287569046,walking,2026-03-04_14-06-35
1772633197247188500,1.9741884765625,-0.1388784645999316,-0.0963140098512172,1.0673445693522692,-0.2354384213685989,-0.1379835456609726,-0.095457524061203,walking,2026-03-04_14-06-35
1772633197257137700,1.9841376953125,-0.2026838420316576,-0.2389671615511178,0.9769353996306656,-0.2668655812740326,-0.1275815069675445,-0.1225783601403236,walking,2026-03-04_14-06-35
1772633197267086600,1.994086669921875,-0.1855721646404825,-0.3796503283523023,0.9221925865739584,-0.3078308403491974,-0.1287525594234466,-0.148771733045578,walking,2026-03-04_14-06-35
1772633197277035500,2.004035400390625,-0.1186588203892111,-0.4818175942763686,0.8605874865323304,-0.3363703191280365,-0.118332415819168,-0.1652654856443405,walking,2026-03-04_14-06-35
1772633197286984400,2.013984375,-0.1011385165313724,-0.5237083784140646,0.6784539728373289,-0.3461908400058746,-0.0945411399006843,-0.1856708526611328,walking,2026-03-04_14-06-35
1772633197296933400,2.023933349609375,-0.1764236481482163,-0.5168253409020602,0.4441325912654399,-0.3402307033538818,-0.0845020934939384,-0.204314574599266,walking,2026-03-04_14-06-35
1772633197306882300,2.03388232421875,-0.1694979222719557,-0.5620386935912073,0.2459703183114528,-0.3194137811660766,-0.0871476456522941,-0.219248741865158,walking,2026-03-04_14-06-35
1772633197316832500,2.04383251953125,-0.1338342050887178,-0.6319016266293823,0.0938958427935838,-0.2856411635875702,-0.0889894887804985,-0.2352069318294525,walking,2026-03-04_14-06-35
1772633197326781400,2.053781494140625,-0.133951419993909,-0.6971919910550117,-0.092239307758212,-0.2369417399168014,-0.0819735154509544,-0.2467160373926162,walking,2026-03-04_14-06-35
1772633197336730400,2.06373046875,-0.0826519431909546,-0.7405839735358953,-0.2473199793547391,-0.1807650178670883,-0.0704979598522186,-0.2452190667390823,walking,2026-03-04_14-06-35
1772633197346679600,2.073679443359375,0.0388644403201527,-0.8073509863853454,-0.3053454673439264,-0.1057347804307937,-0.0598094947636127,-0.2544155120849609,walking,2026-03-04_14-06-35
1772633197356628500,2.08362841796875,0.0824239979202859,-0.8788185781411826,-0.3440630282729864,-0.0279177445918321,-0.0740254521369934,-0.2740094363689422,walking,2026-03-04_14-06-35
1772633197366577400,2.093577392578125,0.0835304613248445,-0.9099005296252668,-0.3155956432014704,0.0463861152529716,-0.1067191660404205,-0.2925715148448944,walking,2026-03-04_14-06-35
1772633197376526300,2.1035263671875,0.122745907039754,-1.0122976587824524,-0.3041249856382608,0.1030358076095581,-0.1505574584007263,-0.3185914158821106,walking,2026-03-04_14-06-35
1772633197386475500,2.1134755859375,0.1630136382865719,-1.1469770551241931,-0.2186713924974203,0.1247533559799194,-0.1754784286022186,-0.3396251797676086,walking,2026-03-04_14-06-35
1772633197396424400,2.123424560546875,0.2651942934151738,-1.265298460252583,-0.1205383505254983,0.1232462748885154,-0.1948278993368148,-0.3507944941520691,walking,2026-03-04_14-06-35
1772633197406373400,2.133373291015625,0.3857213553616777,-1.3557181513682006,-0.0177314715236425,0.1001380532979965,-0.1999740004539489,-0.3599034249782562,walking,2026-03-04_14-06-35
1772633197416323300,2.1433232421875,0.4842429947923868,-1.4072573460780082,0.0258791221439838,0.0666898116469383,-0.190221756696701,-0.3672888875007629,walking,2026-03-04_14-06-35
1772633197426272500,2.1532724609375,0.5413617797328159,-1.4566557293668387,-0.0572299536973237,0.0445166900753974,-0.154344841837883,-0.3753603398799896,walking,2026-03-04_14-06-35
1772633197436221400,2.163221435546875,0.5784173257337882,-1.3823507222279905,-0.2592617615610361,0.0434793904423713,-0.0936428755521774,-0.3731792271137237,walking,2026-03-04_14-06-35
1772633197446170600,2.173170654296875,0.6891587605945766,-1.235161972925067,-0.4495405877888202,0.0500244982540607,-0.0418481267988681,-0.3551847338676452,walking,2026-03-04_14-06-35
1772633197456119600,2.18311962890625,0.8622476748295128,-1.1162541462108493,-0.5353443095415831,0.0573780201375484,-0.0071292947977781,-0.3282170295715332,walking,2026-03-04_14-06-35
1772633197466068500,2.193068359375,1.030181690519303,-1.0699676113322376,-0.5887181723326445,0.0866305232048034,0.0119517650455236,-0.2944535613059997,walking,2026-03-04_14-06-35
1772633197476017400,2.203017333984375,1.1671794468060137,-1.0506494551390408,-0.7203858196377754,0.1263686120510101,0.0069807092659175,-0.2559370696544647,walking,2026-03-04_14-06-35
1772633197485966300,2.21296630859375,1.3286363754361867,-1.0200194852061568,-0.8481260643661022,0.1787075102329254,-0.0232491418719291,-0.2118811309337616,walking,2026-03-04_14-06-35
1772633197495915500,2.22291552734375,1.4281328147158026,-0.9443576566308736,-0.9464256950765848,0.2386989444494247,-0.0694232955574989,-0.1680095493793487,walking,2026-03-04_14-06-35
1772633197505864400,2.232864501953125,1.4943682049065827,-0.8324493334151803,-1.0609674355357883,0.2951383888721466,-0.1147466525435447,-0.1190639212727546,walking,2026-03-04_14-06-35
1772633197515814700,2.242814697265625,1.4911321455948054,-0.7655320984400809,-1.1746335622042416,0.3403721749782562,-0.148508608341217,-0.0737148150801658,walking,2026-03-04_14-06-35
1772633197525763600,2.252763671875,1.3768079934090376,-0.7078510399743915,-1.2794880213856696,0.3609793484210968,-0.1872747093439102,-0.0588313713669776,walking,2026-03-04_14-06-35
1772633197535712500,2.26271240234375,1.0852984514549373,-0.6608560645654797,-1.3196955286115408,0.3553142547607422,-0.2191463559865951,-0.065130814909935,walking,2026-03-04_14-06-35
1772633197545661400,2.272661376953125,0.7880877021845429,-0.5983261047638953,-1.3672873008698223,0.3197093307971954,-0.2307279855012893,-0.0785329863429069,walking,2026-03-04_14-06-35
1772633197555610400,2.2826103515625,0.5171018562885001,-0.479387590650469,-1.4101391851246357,0.2584137320518493,-0.2071291804313659,-0.1012659966945648,walking,2026-03-04_14-06-35
1772633197565559300,2.292559326171875,0.2378884994689375,-0.3122634300388395,-1.4630945302426814,0.1577583998441696,-0.1648777425289154,-0.1136253476142883,walking,2026-03-04_14-06-35
1772633197575508500,2.302508544921875,0.0762772753261961,-0.1035648577623069,-1.4227040676653384,0.0311639811843633,-0.1225744932889938,-0.1074854284524917,walking,2026-03-04_14-06-35
1772633197585457700,2.312457763671875,0.0248236582743003,0.1151918749310076,-1.346723236268759,-0.0916701257228851,-0.0486472323536872,-0.0862073525786399,walking,2026-03-04_14-06-35
1772633197595406600,2.322406494140625,-0.0575807490295264,0.3374807272732257,-1.4252718723267317,-0.1606380045413971,0.0694780722260475,-0.0505771897733211,walking,2026-03-04_14-06-35
1772633197605355500,2.33235546875,-0.2389854095938615,0.6138046827942133,-1.6820985156953334,-0.1490060687065124,0.1978625357151031,-0.0185205657035112,walking,2026-03-04_14-06-35
1772633197615305500,2.342305419921875,-0.3664497782565653,0.8836680639989674,-1.913531774610281,-0.0552617385983467,0.3050880432128906,0.0038997887168079,walking,2026-03-04_14-06-35
1772633197625254400,2.35225439453125,-0.4016893243441358,1.1362880494579672,-1.9679384875804184,0.0902639254927635,0.3684771656990051,0.0281724631786346,walking,2026-03-04_14-06-35
1772633197635203300,2.362203369140625,-0.3572502439631149,1.3306034377254543,-1.7631588423132896,0.2505878210067749,0.3778205811977386,0.053786214441061,walking,2026-03-04_14-06-35
1772633197645152300,2.37215234375,-0.2824572341116145,1.47356887024492,-1.35613929938972,0.4083864688873291,0.3474507927894592,0.0856966003775596,walking,2026-03-04_14-06-35
1772633197655101200,2.38210107421875,-0.1864403075108304,1.530840909518301,-0.8796253644794225,0.5479164123535156,0.3020558655261993,0.12229935079813,walking,2026-03-04_14-06-35
1772633197665050400,2.39205029296875,-0.1257931109822355,1.558648661637306,-0.4203337825268506,0.67203688621521,0.2465253919363021,0.1425486207008361,walking,2026-03-04_14-06-35
1772633197674999300,2.401999267578125,-0.1428769505184143,1.5604516194060445,-0.0383826298862695,0.7791836261749268,0.1922397911548614,0.1563200801610946,walking,2026-03-04_14-06-35
1772633197684948200,2.4119482421875,-0.2073409471224993,1.5808040870830415,0.3255997353434562,0.8489526510238647,0.1294231712818145,0.1635450422763824,walking,2026-03-04_14-06-35
1772633197694897200,2.421897216796875,-0.2574335232205689,1.6094225710630417,0.7796797201275825,0.8555479645729065,0.0453176274895668,0.1677794605493545,walking,2026-03-04_14-06-35
1772633197704846000,2.43184619140625,-0.262598851828184,1.5457731057122348,1.2578846768647431,0.802611768245697,-0.0439029112458229,0.1704098433256149,walking,2026-03-04_14-06-35
1772633197714796300,2.44179638671875,-0.2435423605121672,1.3199305064111948,1.631180813884735,0.7012733817100525,-0.1307121068239212,0.1546090394258499,walking,2026-03-04_14-06-35
1772633197724745200,2.4517451171875,-0.3426659478913992,1.0594926868081092,1.8347148430049416,0.560387134552002,-0.2142362892627716,0.1104674190282821,walking,2026-03-04_14-06-35
1772633197734694100,2.461694091796875,-0.5570732532035559,0.8555065300062298,1.9331109198272227,0.404153048992157,-0.2621857225894928,0.0279152803122997,walking,2026-03-04_14-06-35
1772633197744643300,2.471643310546875,-0.831931447020918,0.6725885879352689,1.7815654366195202,0.2466801851987838,-0.2490157634019851,-0.0736569315195083,walking,2026-03-04_14-06-35
1772633197754592300,2.48159228515625,-1.0412634218301624,0.602954495216906,1.5542723462492227,0.0776978284120559,-0.1998106688261032,-0.1674225777387619,walking,2026-03-04_14-06-35
1772633197764541200,2.491541259765625,-1.089752069862932,0.6533095947086811,1.3977414758443831,-0.1077495589852333,-0.1407527029514312,-0.239430233836174,walking,2026-03-04_14-06-35
1772633197774490400,2.501490478515625,-0.9333779974550008,0.7491735227048396,1.2862024243324994,-0.2937290072441101,-0.0742117464542388,-0.2738713026046753,walking,2026-03-04_14-06-35
1772633197784439300,2.511439208984375,-0.6753044958304614,0.8274316513836383,1.080890279623866,-0.4469082355499267,0.0047122291289269,-0.2765917479991913,walking,2026-03-04_14-06-35
1772633197794388200,2.52138818359375,-0.5387001227755099,0.954707785731554,0.6961784300982952,-0.5424851179122925,0.0919099822640419,-0.2644343972206116,walking,2026-03-04_14-06-35
1772633197804338200,2.531338134765625,-0.4135275731107219,1.0753446281954646,0.2987082212865352,-0.5673120617866516,0.1719760000705719,-0.2404017150402069,walking,2026-03-04_14-06-35
1772633197814287000,2.541287109375,-0.2850442001312039,1.127159278845787,-0.0660363604873418,-0.5230333209037781,0.2329160571098327,-0.2140683829784393,walking,2026-03-04_14-06-35
1772633197824236000,2.551236083984375,-0.1395123511898331,1.1144918127134442,-0.3616875322908163,-0.4322155117988586,0.2614804208278656,-0.174440711736679,walking,2026-03-04_14-06-35
1772633197834185200,2.561185302734375,-0.0004531140623614,1.0902709791705012,-0.4906956049978733,-0.3234176337718963,0.2778436839580536,-0.1421850323677063,walking,2026-03-04_14-06-35
1772633197844134400,2.571134521484375,0.1583077621505595,1.0288315910845995,-0.3811801682680845,-0.2304142117500305,0.23524871468544,-0.1264746189117431,walking,2026-03-04_14-06-35
1772633197854083300,2.581083251953125,0.2534891877752728,0.8732194429598749,-0.0899345379471778,-0.1652181595563888,0.1641380488872528,-0.1097044348716735,walking,2026-03-04_14-06-35
1772633197864032300,2.5910322265625,0.3131604519437998,0.6751493783339858,0.1636813266813755,-0.1190083399415016,0.1079968437552452,-0.0800472199916839,walking,2026-03-04_14-06-35
1772633197873981200,2.600981201171875,0.3126550962375476,0.5498407446667551,0.277434547111392,-0.0885641500353813,0.0755851045250892,-0.0529804453253746,walking,2026-03-04_14-06-35
1772633197883930000,2.61093017578125,0.2420162651897408,0.4442795985206961,0.3883955064743757,-0.0688548609614372,0.0574293807148933,-0.0295629799365997,walking,2026-03-04_14-06-35
1772633197893879300,2.62087939453125,0.2338760489571839,0.3100963151328265,0.4809282442212104,-0.0602038539946079,0.0409702472388744,-0.0023049924056977,walking,2026-03-04_14-06-35
1772633197903829200,2.630829345703125,0.2448986339593306,0.1833088410846889,0.5839934818983078,-0.0603907853364944,0.0350732207298278,0.0281526446342468,walking,2026-03-04_14-06-35
1772633197913778400,2.6407783203125,0.2022054291312582,0.074886460288614,0.6620505350470542,-0.0720498338341713,0.0421084910631179,0.0509154796600341,walking,2026-03-04_14-06-35
1772633197923727400,2.650727294921875,0.0908646218715235,0.0002658113293349,0.7412105810016393,-0.0924057438969612,0.0528148338198661,0.0612112805247306,walking,2026-03-04_14-06-35
1772633197933676300,2.66067626953125,-0.0703011417923495,-0.0676985946111381,0.7953349698990583,-0.1222006604075431,0.051209483295679,0.0581782087683677,walking,2026-03-04_14-06-35
1772633197943625200,2.670625244140625,-0.2677170168258249,-0.1177928512096404,0.8607605050116777,-0.1621726006269455,0.035037487745285,0.038345456123352,walking,2026-03-04_14-06-35
1772633197953574100,2.68057421875,-0.3708696770580485,-0.175320764940232,0.8325631690531968,-0.2001924216747284,0.0134088918566703,0.0364615358412265,walking,2026-03-04_14-06-35
1772633197963523000,2.690523193359375,-0.3225647515617311,-0.1700382944926619,0.7652391068428754,-0.2296967059373855,-0.0064849522896111,0.0572721920907497,walking,2026-03-04_14-06-35
1772633197973472300,2.70047216796875,-0.2273806042569689,-0.0657433688901364,0.6454156265884637,-0.2440540939569473,-0.0128336623311042,0.0903262868523597,walking,2026-03-04_14-06-35
1772633197983421400,2.71042138671875,-0.1511407565980218,0.0828707370407879,0.5142115051418542,-0.2352815568447113,-0.0044618835672736,0.1391324549913406,walking,2026-03-04_14-06-35
1772633197993370400,2.720370361328125,-0.1027720634168013,0.1928431237578391,0.40461306630373,-0.2157541960477829,0.0024277141783386,0.1916704922914505,walking,2026-03-04_14-06-35
1772633198003320300,2.7303203125,-0.1398450537429191,0.255887170561403,0.3653407941013574,-0.1872130334377288,0.0027045388706028,0.2314252704381942,walking,2026-03-04_14-06-35
1772633198013269200,2.740269287109375,-0.2318959993221797,0.2085470349766313,0.3431283777713775,-0.1496158689260482,-0.0020880857482552,0.2574920058250427,walking,2026-03-04_14-06-35
1772633198023218200,2.75021826171875,-0.3118721656989306,0.1203169628597796,0.3179015820562839,-0.104211650788784,-0.0079839807003736,0.2735420763492584,walking,2026-03-04_14-06-35
1772633198033167000,2.7601669921875,-0.4071607780251651,0.024620792645961,0.3706850777387618,-0.0719932615756988,-0.0182552598416805,0.2766827642917633,walking,2026-03-04_14-06-35
1772633198043116300,2.7701162109375,-0.4274904493484646,-0.118409229542315,0.4784527940183877,-0.0680911093950271,-0.0293071456253528,0.2826281785964966,walking,2026-03-04_14-06-35
1772633198053065200,2.780065185546875,-0.3598764642808586,-0.295194952468574,0.6541419538795947,-0.0968290194869041,-0.0196180325001478,0.2986683845520019,walking,2026-03-04_14-06-35
1772633198063014100,2.79001416015625,-0.2313905888170003,-0.4337373078487813,0.7610340563684701,-0.131547600030899,0.0180058535188436,0.3239159286022186,walking,2026-03-04_14-06-35
1772633198072963300,2.79996337890625,-0.1119977733311243,-0.5170509663514793,0.7937924166321754,-0.1691817939281463,0.0613932721316814,0.3511320948600769,walking,2026-03-04_14-06-35
1772633198082912300,2.809912353515625,-0.0350354200839065,-0.5946830720864236,0.7950655053079128,-0.1903472542762756,0.1059384793043136,0.3684580028057098,walking,2026-03-04_14-06-35
1772633198092861200,2.819861083984375,-0.0211042541586793,-0.6532650249145925,0.7070037754952907,-0.1921731233596801,0.1483849883079528,0.3787215650081634,walking,2026-03-04_14-06-35
1772633198102811400,2.829811279296875,-0.0177969562415964,-0.7095658810682595,0.5640238760590552,-0.1740765422582626,0.1704135090112686,0.3791257441043854,walking,2026-03-04_14-06-35
1772633198112760300,2.83976025390625,-0.0093372805300168,-0.7466555485345423,0.4562169968128204,-0.155703917145729,0.1504376828670501,0.381873071193695,walking,2026-03-04_14-06-35
1772633198122709200,2.849709228515625,0.0542219309877604,-0.7947574622720479,0.4151934970289468,-0.1446634083986282,0.0984439700841903,0.3863412141799927,walking,2026-03-04_14-06-35
1772633198132658200,2.859658203125,0.1233845337368547,-0.8336971415191888,0.3524503328680992,-0.1442548781633377,0.0514567531645298,0.3877004981040954,walking,2026-03-04_14-06-35
1772633198142607000,2.869607177734375,0.0941599005572497,-0.8105693639099597,0.220736508333683,-0.1410671770572662,0.0061139743775129,0.3855724632740021,walking,2026-03-04_14-06-35
1772633198152556300,2.879556396484375,-0.0273086617567576,-0.7881348292618989,0.0285310979574918,-0.1482494622468948,-0.0392138287425041,0.370143175125122,walking,2026-03-04_14-06-35
1772633198162505200,2.889505126953125,-0.1948458053497597,-0.7811034693203867,-0.1492746156662702,-0.1669156551361084,-0.0567644909024238,0.3506858050823211,walking,2026-03-04_14-06-35
1772633198172454400,2.899454345703125,-0.3547590116692706,-0.7540528191789985,-0.3921832083195448,-0.1670781075954437,-0.0314072035253047,0.3180719316005707,walking,2026-03-04_14-06-35
1772633198182403300,2.9094033203125,-0.6282191387243569,-0.6731200644634664,-0.7912421476274728,-0.1508655548095703,0.0066490368917584,0.2838043868541717,walking,2026-03-04_14-06-35
1772633198192352300,2.919352294921875,-0.8545077282272279,-0.5728086555391549,-1.1528969466924666,-0.1100531443953514,0.0538591593503952,0.2723067104816437,walking,2026-03-04_14-06-35
1772633198202302200,2.92930224609375,-0.8259890513598919,-0.4947391813002526,-1.4790052160799505,-0.0345325879752635,0.1267792284488678,0.2963237464427948,walking,2026-03-04_14-06-35
1772633198212251100,2.939251220703125,-0.7531497328594327,-0.4299747404448688,-1.795811988636851,0.0728766918182373,0.2196226269006729,0.3351909816265106,walking,2026-03-04_14-06-35
1772633198222200000,2.949199951171875,-0.7705906239386647,-0.4535393020361661,-1.972927966430783,0.1977341473102569,0.294859379529953,0.3609720170497894,walking,2026-03-04_14-06-35
1772633198232149200,2.959149169921875,-0.8042186797089874,-0.6557745235174894,-1.995382959344983,0.3186155557632446,0.3113739192485809,0.3804426491260528,walking,2026-03-04_14-06-35
1772633198242098400,2.969098388671875,-0.8206132766056805,-0.8915152703680097,-1.75616386885941,0.4140351414680481,0.2653508186340332,0.3888922035694122,walking,2026-03-04_14-06-35
1772633198252047400,2.97904736328125,-0.7676386422652751,-1.1129752706706524,-1.386480661639571,0.4796365201473236,0.1738472729921341,0.3863092064857483,walking,2026-03-04_14-06-35
1772633198261996300,2.988996337890625,-0.7365160665098577,-1.344332687870413,-1.0831167235016823,0.5167471766471863,0.0788038894534111,0.3677141070365906,walking,2026-03-04_14-06-35
1772633198271945200,2.9989453125,-0.7070844395160675,-1.501540873014927,-0.8565560390591621,0.5226263999938965,0.0051704170182347,0.3367793560028076,walking,2026-03-04_14-06-35
1772633198281894100,3.00889404296875,-0.678781158965081,-1.560276116708666,-0.6825520558059215,0.494452029466629,-0.0371967479586601,0.2998309433460235,walking,2026-03-04_14-06-35
1772633198291844000,3.018843994140625,-0.6455673830840736,-1.5444586621128022,-0.5456412471503019,0.4258327484130859,-0.0727483481168747,0.2514460980892181,walking,2026-03-04_14-06-35
1772633198301793300,3.028793212890625,-0.6524119152165949,-1.4828196598015724,-0.4413140267133713,0.3226486444473266,-0.1079346910119056,0.1954812556505203,walking,2026-03-04_14-06-35
1772633198311742200,3.0387421875,-0.6213710994604975,-1.3783464550226927,-0.4108732957422733,0.1851927787065506,-0.1482922285795211,0.1447919756174087,walking,2026-03-04_14-06-35
1772633198321691400,3.04869140625,-0.5491441407047212,-1.104486989919096,-0.4156424098402261,0.0295022018253803,-0.1636521220207214,0.0895182266831398,walking,2026-03-04_14-06-35
1772633198331640300,3.058640380859375,-0.608516951649636,-0.7682758441902696,-0.5616542243182658,-0.1096487641334533,-0.1392762064933776,0.0164179168641567,walking,2026-03-04_14-06-35
1772633198341589200,3.06858935546875,-0.7471889978241175,-0.3604170739635824,-0.8937468288123607,-0.2030507028102874,-0.0605043210089206,-0.0626973435282707,walking,2026-03-04_14-06-35
1772633198351538200,3.0785380859375,-0.7217214521557093,0.0692323800496757,-1.3076298277646303,-0.2332506775856018,0.0516626946628093,-0.1034940332174301,walking,2026-03-04_14-06-35
1772633198361487000,3.088487060546875,-0.4285970223508775,0.5789296226374805,-1.6841168697804212,-0.1975628137588501,0.1799611151218414,-0.1014872714877128,walking,2026-03-04_14-06-35
1772633198371436300,3.098436279296875,-0.023384583648201,0.9998178241766988,-1.9013462467759847,-0.1017124578356742,0.2585989534854889,-0.0604109466075897,walking,2026-03-04_14-06-35
1772633198381385200,3.10838525390625,0.3310133944226429,1.314890758678317,-1.924400959149003,0.0171156916767358,0.2657904028892517,0.0096999909728765,walking,2026-03-04_14-06-35
1772633198391335200,3.118335205078125,0.607355214393884,1.4691514921940865,-1.7572528331398962,0.1342124938964843,0.2163895368576049,0.0801006555557251,walking,2026-03-04_14-06-35
1772633198401284000,3.1282841796875,0.7240226417701691,1.4972002134621143,-1.4669617270648478,0.2623305916786194,0.1486437767744064,0.1179700568318367,walking,2026-03-04_14-06-35
1772633198411233300,3.1382333984375,0.5937798761690035,1.435743728110939,-1.187842587867379,0.3847590386867523,0.1090649366378784,0.1307449787855148,walking,2026-03-04_14-06-35
1772633198421182200,3.14818212890625,0.4281381726674735,1.3792333208598195,-0.9091267687737942,0.4940487146377563,0.1106252372264862,0.1262810826301574,walking,2026-03-04_14-06-35
1772633198431131100,3.158131103515625,0.3420335682719945,1.36423317399621,-0.5912649342060089,0.5856465101242065,0.1385572701692581,0.1155527979135513,walking,2026-03-04_14-06-35
1772633198441080300,3.168080322265625,0.3521041132463142,1.3387307762101293,-0.2044388690054416,0.6434293985366821,0.1760696768760681,0.1053104326128959,walking,2026-03-04_14-06-35
1772633198451029200,3.178029296875,0.4361495200896635,1.3354632988467812,0.2633703659236431,0.648151695728302,0.1977142542600631,0.1053690239787101,walking,2026-03-04_14-06-35
1772633198460978200,3.187978271484375,0.5885732839692384,1.3780226298958065,0.8390092764526605,0.5923123955726624,0.1971637904644012,0.1172374784946441,walking,2026-03-04_14-06-35
1772633198470927400,3.19792724609375,0.7717397209085524,1.3676166789546609,1.3839379914194343,0.4897569417953491,0.1768611818552017,0.1429207324981689,walking,2026-03-04_14-06-35
1772633198480876300,3.207876220703125,0.897140562903881,1.2918451063945888,1.78389650991559,0.3641753792762756,0.1560008525848388,0.1668376624584198,walking,2026-03-04_14-06-35
1772633198490826200,3.217826171875,0.9066557755503803,1.2338757325068117,1.9688836594760415,0.2451211363077163,0.1385507434606552,0.1820001006126403,walking,2026-03-04_14-06-35
1772633198500775400,3.227775390625,0.7852780515912919,1.2591969285070896,2.017792944073677,0.1451906412839889,0.1210228651762008,0.1965508610010147,walking,2026-03-04_14-06-35
1772633198510724400,3.237724365234375,0.7273292090348898,1.3045748241081834,1.9984610516160728,0.0645850226283073,0.0847772434353828,0.1959002465009689,walking,2026-03-04_14-06-35
1772633198520673300,3.24767333984375,0.6748736301325261,1.2701783412486314,1.9028852929115292,-0.0004978384822607,0.0254201833158731,0.1885195672512054,walking,2026-03-04_14-06-35
1772633198530622200,3.257622314453125,0.5918786456575617,1.2021747723415492,1.7576421247184275,-0.0557528361678123,-0.0406962521374225,0.1812637895345688,walking,2026-03-04_14-06-35
1772633198540571100,3.267571044921875,0.5225894573867321,1.149898933920264,1.6714076103329658,-0.1208134740591049,-0.1302525997161865,0.172334149479866,walking,2026-03-04_14-06-35
1772633198550520000,3.27752001953125,0.5086640270825475,1.0398618114039302,1.6880594699263571,-0.2155032306909561,-0.2569996118545532,0.1605717539787292,walking,2026-03-04_14-06-35
1772633198560469200,3.28746923828125,0.4363769356373697,0.9329393137767912,1.6930945414841174,-0.3225491940975189,-0.3724428117275238,0.1198238283395767,walking,2026-03-04_14-06-35
1772633198570418400,3.29741845703125,0.1630594684559851,0.8454930855140089,1.4079478125602003,-0.4328543841838836,-0.4526657462120056,0.072562575340271,walking,2026-03-04_14-06-35
1772633198580368400,3.307368408203125,-0.1224305574802681,0.8529524616092443,1.0010638787150383,-0.537495493888855,-0.4920743703842163,0.0274092461913824,walking,2026-03-04_14-06-35
1772633198590317300,3.3173173828125,-0.2846220657289959,0.9032850570082664,0.5966536415070295,-0.6205354928970337,-0.4704124927520752,-0.004111660644412,walking,2026-03-04_14-06-35
1772633198600266200,3.327266357421875,-0.3367481752149761,0.9094579004243016,0.0765384652793407,-0.6536719799041748,-0.3625872433185577,-0.0240268129855394,walking,2026-03-04_14-06-35
1772633198610215200,3.337215087890625,-0.4490444383023306,1.0434360166288912,-0.4758849893569946,-0.6281970143318176,-0.1816055029630661,-0.0407101884484291,walking,2026-03-04_14-06-35
1772633198620164000,3.3471640625,-0.57691170694381,1.163204113434255,-0.8716174145907163,-0.5534496307373047,0.0051414435729384,-0.050192542374134,walking,2026-03-04_14-06-35
1772633198630113000,3.357113037109375,-0.5577635735552757,1.1763751451745628,-1.016381274834275,-0.4542178213596344,0.1418880969285965,-0.0506844297051429,walking,2026-03-04_14-06-35
1772633198640062200,3.367062255859375,-0.4350548932533711,1.0844868428111076,-0.9311182358294724,-0.3416886031627655,0.2229699194431305,-0.0504565984010696,walking,2026-03-04_14-06-35
1772633198650011100,3.37701123046875,-0.3105665629930794,0.9616897535733878,-0.6822486889451742,-0.2294259667396545,0.2499892711639404,-0.0450509153306484,walking,2026-03-04_14-06-35
1772633198659960000,3.3869599609375,-0.1627397167160175,0.7768807370588183,-0.2764139718919992,-0.1405587792396545,0.2107709795236587,-0.0359225571155548,walking,2026-03-04_14-06-35
1772633198669909000,3.396908935546875,0.0202454088396392,0.5498964203767478,0.2400987959295511,-0.0833801701664924,0.1267170906066894,-0.0234978478401899,walking,2026-03-04_14-06-35
1772633198679859200,3.406859130859375,0.2101607720498926,0.3108864425972104,0.7635019077867269,-0.052213467657566,0.0524915903806686,-0.0099314386025071,walking,2026-03-04_14-06-35
1772633198689808100,3.41680810546875,0.3536774635102599,0.1166908813171088,1.1191723717451094,-0.0457023084163665,0.0020923349075019,0.0016812749672681,walking,2026-03-04_14-06-35
1772633198699757000,3.426757080078125,0.419857031860575,-0.0435886740967631,1.3873802408277989,-0.0698669925332069,-0.033602524548769,0.0059660268016159,walking,2026-03-04_14-06-35
1772633198709706000,3.4367060546875,0.439411955951713,-0.2095982975952327,1.6313701989769935,-0.1235576570034027,-0.0532904751598835,-0.0001272861845791,walking,2026-03-04_14-06-35
1772633198719655000,3.446655029296875,0.4355710991472005,-0.3928961788944899,1.777255756726861,-0.1973161846399307,-0.0632114708423614,-0.0086539825424551,walking,2026-03-04_14-06-35
1772633198729604000,3.45660400390625,0.4250774699226021,-0.5503215139210224,1.8397680347412824,-0.2848910391330719,-0.0896835550665855,-0.0240627657622098,walking,2026-03-04_14-06-35
1772633198739553000,3.466552978515625,0.4309721905170008,-0.6503612662971019,1.8522674508303405,-0.3759994208812713,-0.1270485371351242,-0.0377338789403438,walking,2026-03-04_14-06-35
1772633198749502200,3.476502197265625,0.4328605615468695,-0.7171176116220652,1.7562889565438031,-0.4459151327610016,-0.1568767428398132,-0.0550058111548423,walking,2026-03-04_14-06-35
1772633198759451100,3.486451171875,0.4016865113325417,-0.7119235501103103,1.4166373149722813,-0.4710999131202698,-0.1654778271913528,-0.0814623311161995,walking,2026-03-04_14-06-35
1772633198769401000,3.496401123046875,0.2949777295213192,-0.6745636874005199,0.9202993201732635,-0.4681819081306457,-0.1614753603935241,-0.1105357930064201,walking,2026-03-04_14-06-35
1772633198779350000,3.50635009765625,0.2252023286361247,-0.6417300699435174,0.5036439338982105,-0.4462175369262695,-0.1513219028711319,-0.1350385099649429,walking,2026-03-04_14-06-35
1772633198789299000,3.516298828125,0.2423737368579022,-0.6580060819618404,0.2097521729826927,-0.42104372382164,-0.1256224066019058,-0.1555914431810379,walking,2026-03-04_14-06-35
1772633198799248000,3.526247802734375,0.2471086746916174,-0.709734515633434,-0.0439537080168724,-0.3975187838077545,-0.0921637713909149,-0.1763792037963867,walking,2026-03-04_14-06-35
1772633198809197300,3.536197265625,0.2491733156038448,-0.7690970974452793,-0.2625356686651706,-0.3726531267166137,-0.0387420877814292,-0.1923501789569854,walking,2026-03-04_14-06-35
1772633198819146200,3.546146240234375,0.3106118634395301,-0.8511033266112208,-0.4812742811799049,-0.3337762057781219,0.0337329730391502,-0.2071800976991653,walking,2026-03-04_14-06-35
1772633198829095200,3.55609521484375,0.2983561564458534,-0.8964125408902763,-0.6908686332523822,-0.278738796710968,0.1052873134613037,-0.2277050763368606,walking,2026-03-04_14-06-35
1772633198839044000,3.566044189453125,0.2784592687829397,-0.9016770372897386,-0.8564373811155557,-0.218769833445549,0.1362655758857727,-0.2400012165307998,walking,2026-03-04_14-06-35
1772633198848993000,3.575992919921875,0.3415258014129474,-0.9110755647540092,-0.8571914143532514,-0.1593975871801376,0.1151823922991752,-0.2449427098035812,walking,2026-03-04_14-06-35
1772633198858942000,3.58594189453125,0.4970668205302208,-0.9520270222149788,-0.7663169652074575,-0.1011429280042648,0.0502630621194839,-0.2438232898712158,walking,2026-03-04_14-06-35
1772633198868892200,3.59589208984375,0.5969803892433643,-0.9943325246334076,-0.7112661091148853,-0.0373080223798751,-0.0368601232767105,-0.2421750575304031,walking,2026-03-04_14-06-35
1772633198878841000,3.605841064453125,0.6111226771686226,-1.0067217583462595,-0.7505886501997708,0.0291043054312467,-0.1272239238023758,-0.24799245595932,walking,2026-03-04_14-06-35
1772633198888790000,3.6157900390625,0.5432862084567547,-1.0451394595459105,-0.7814484833657741,0.0853449404239654,-0.2028097510337829,-0.2674766778945923,walking,2026-03-04_14-06-35
1772633198898739200,3.6257392578125,0.475704920082353,-1.052573262808472,-0.8079308320999145,0.1150296851992607,-0.2422761619091034,-0.2799303829669952,walking,2026-03-04_14-06-35
1772633198908688100,3.635688232421875,0.4212381840206682,-1.026979387346655,-0.8241869703739881,0.1296238005161285,-0.2306916713714599,-0.2823346853256225,walking,2026-03-04_14-06-35
1772633198918637000,3.645636962890625,0.4109220302548259,-0.9773962951406836,-0.8867565315335989,0.1302327513694763,-0.1653536558151245,-0.2699516713619232,walking,2026-03-04_14-06-35
1772633198928586000,3.6555859375,0.3956397785142064,-0.8525418349817395,-0.973628174778819,0.1293134242296219,-0.0754978060722351,-0.2456482201814651,walking,2026-03-04_14-06-35
1772633198938535000,3.665534912109375,0.4493552943497896,-0.7817473201818764,-0.9943424615055322,0.1362884938716888,0.0256074797362089,-0.2103335410356521,walking,2026-03-04_14-06-35
1772633198948484000,3.675484130859375,0.5592415371533483,-0.7790459522686898,-1.0302882196336984,0.1646620780229568,0.1037914976477623,-0.1701578944921493,walking,2026-03-04_14-06-35
1772633198958434000,3.68543408203125,0.6620945203192532,-0.7845112319372594,-1.0126567013531922,0.2107271999120712,0.1392549723386764,-0.1376149207353592,walking,2026-03-04_14-06-35
1772633198968383000,3.695383056640625,0.8050096839562058,-0.841824626134336,-0.9184697666585444,0.2605490684509277,0.1147637441754341,-0.1115196645259857,walking,2026-03-04_14-06-35
1772633198978332200,3.705332275390625,0.9872417626548556,-0.940450566189736,-0.7931091105431318,0.2996789515018463,0.042474590241909,-0.0880933851003646,walking,2026-03-04_14-06-35
1772633198988281000,3.715281005859375,1.1409408436998725,-0.9434364501327276,-0.5796645127832889,0.3127420246601105,-0.0680250227451324,-0.061519831418991,walking,2026-03-04_14-06-35
1772633198998230000,3.72522998046875,1.270407619959861,-0.9050734017297624,-0.3579740647256374,0.2886538207530975,-0.1948936134576797,-0.0311645697802305,walking,2026-03-04_14-06-35
1772633199008179200,3.73517919921875,1.3245109660692511,-0.8595088975153863,-0.2531149293690919,0.2504675388336181,-0.2768800854682922,0.0022288071922957,walking,2026-03-04_14-06-35
1772633199018128100,3.745128173828125,1.2353544267572465,-0.7924404175013303,-0.383661463689804,0.2065291255712509,-0.3096500337123871,0.0314418189227581,walking,2026-03-04_14-06-35
1772633199028077000,3.7550771484375,1.027071887935698,-0.6927899567037821,-0.6333201151251793,0.1616266369819641,-0.3071104288101196,0.0449054315686225,walking,2026-03-04_14-06-35
1772633199038026000,3.76502587890625,0.729153940244019,-0.5211234764873981,-0.9064519966065884,0.1164928302168846,-0.2772921919822693,0.0470631867647171,walking,2026-03-04_14-06-35
1772633199047975200,3.77497509765625,0.4052397468347102,-0.316874723226577,-1.154481585535407,0.0474357306957244,-0.2521554231643677,0.0389051251113414,walking,2026-03-04_14-06-35
1772633199057924900,3.7849248046875,0.1521675606288015,-0.116605687251687,-1.2083978846400976,-0.0562573634088039,-0.2448280751705169,0.0301915425807237,walking,2026-03-04_14-06-35
1772633199067874300,3.794874267578125,0.0181795760507462,0.0035438100866973,-1.184084696638584,-0.1736132800579071,-0.2288326025009155,0.0198267847299575,walking,2026-03-04_14-06-35
1772633199077823200,3.8048232421875,-0.0939358642767183,0.1615473833926022,-1.2990817796498535,-0.26951864361763,-0.1825112551450729,0.0074331569485366,walking,2026-03-04_14-06-35
1772633199087772200,3.814772216796875,-0.244765362968482,0.4137327768266201,-1.5882722310066222,-0.3107790052890777,-0.117144227027893,-0.0019262566929683,walking,2026-03-04_14-06-35
1772633199097721000,3.82472119140625,-0.3716162941742688,0.7650918073266744,-1.9573785151213403,-0.2856472432613373,-0.0341258570551872,-0.0029033566825091,walking,2026-03-04_14-06-35
1772633199107670000,3.834669921875,-0.4469770574437454,1.0978938752643763,-2.303831068879366,-0.1905756145715713,0.0689589828252792,0.0147848259657621,walking,2026-03-04_14-06-35
1772633199117619000,3.844618896484375,-0.4253887278288603,1.3848935385785996,-2.544474054688215,-0.0399111583828926,0.1813161224126815,0.0509010665118694,walking,2026-03-04_14-06-35
1772633199127568100,3.854568115234375,-0.3790635414402932,1.6237965488523245,-2.5563328347861765,0.1635556668043136,0.2710449695587158,0.0966405943036079,walking,2026-03-04_14-06-35
1772633199137517000,3.86451708984375,-0.3742124481473118,1.7592771785743533,-2.379484568017721,0.3781518936157226,0.2966170012950897,0.1142739430069923,walking,2026-03-04_14-06-35
1772633199147467300,3.87446728515625,-0.4744906123891472,1.789273234517872,-1.921381319066882,0.5658653378486633,0.2701800763607025,0.1045121252536773,walking,2026-03-04_14-06-35
1772633199157416200,3.884416259765625,-0.552276410848461,1.7443112262412903,-1.2500228574484586,0.7039567828178406,0.2192673087120056,0.091062992811203,walking,2026-03-04_14-06-35
1772633199167365000,3.894365234375,-0.6019978520791978,1.655828932929039,-0.5147019190073013,0.7903135418891907,0.1613819003105163,0.0767847225069999,walking,2026-03-04_14-06-35
1772633199177314000,3.90431396484375,-0.6498753094110638,1.5822259365797042,0.1842360389322042,0.8221972584724426,0.0916694551706314,0.0458145849406719,walking,2026-03-04_14-06-35
1772633199187263000,3.914262939453125,-0.7561069021645933,1.4652949628964065,0.7816957361251116,0.8046374320983887,0.0152535112574696,-0.0031186020933091,walking,2026-03-04_14-06-35
1772633199197212000,3.9242119140625,-0.8553027510624378,1.2949870576821267,1.219065993648767,0.7437107563018799,-0.0350225195288658,-0.0622112043201923,walking,2026-03-04_14-06-35
1772633199207161000,3.9341611328125,-1.0051823468845338,1.164216066955775,1.5470955864876508,0.642475962638855,-0.0458855554461479,-0.1307884007692337,walking,2026-03-04_14-06-35
1772633199217110300,3.9441103515625,-1.162464108721912,1.064773695950955,1.8024375442564489,0.5201952457427979,-0.013658276759088,-0.2071034759283065,walking,2026-03-04_14-06-35
1772633199227059200,3.95405908203125,-1.2462626281321048,0.9625497314035892,1.8715718707591291,0.3796745836734772,0.0645238757133483,-0.2793441116809845,walking,2026-03-04_14-06-35
1772633199237009200,3.964009033203125,-1.2544121784485875,0.8786641182318329,1.9225620532840488,0.216355100274086,0.1511416137218475,-0.3439862728118896,walking,2026-03-04_14-06-35
1772633199246958000,3.9739580078125,-1.1326736583530903,0.8406333705231547,2.073762084054947,0.0299370121210813,0.2045648992061615,-0.3847334384918213,walking,2026-03-04_14-06-35
1772633199256907000,3.983906982421875,-0.9290522432103752,0.8024173293754457,2.252233568111062,-0.1573545038700103,0.2260710448026657,-0.40228071808815,walking,2026-03-04_14-06-35
1772633199266856200,3.993856201171875,-0.7261406568374484,0.7557680986642837,2.2354922766685483,-0.3156874179840088,0.2213191539049148,-0.4106081426143646,walking,2026-03-04_14-06-35
1772633199276805000,4.00380517578125,-0.6840406869284809,0.768149441331625,2.033486772289872,-0.4299316704273224,0.1843176782131195,-0.4175223112106323,walking,2026-03-04_14-06-35
1772633199286754000,4.013754150390625,-0.6266664293896407,0.7710268964640796,1.7555448601782322,-0.5008138418197632,0.1195480078458786,-0.4117989242076874,walking,2026-03-04_14-06-35
1772633199296703000,4.023702880859375,-0.5300456186115742,0.7877655575580894,1.355420921987295,-0.5109899640083313,0.0800500065088272,-0.3866347968578338,walking,2026-03-04_14-06-35
1772633199306652200,4.033652099609375,-0.4626381889667362,0.8768198055393993,0.857688257959485,-0.4666467010974884,0.0728363022208213,-0.3469617068767547,walking,2026-03-04_14-06-35
1772633199316601000,4.04360107421875,-0.4012227662783116,0.9650441785678266,0.4958803141593932,-0.3831007182598114,0.0930236652493476,-0.2966014742851257,walking,2026-03-04_14-06-35
1772633199326551000,4.053551025390625,-0.3134275784473866,0.971864087715745,0.2517395493626594,-0.2819104492664337,0.1099714860320091,-0.2455955594778061,walking,2026-03-04_14-06-35
1772633199336500200,4.063500244140625,-0.2682983238451182,0.8454201664082706,0.1315542500585317,-0.172460600733757,0.1176710724830627,-0.1933164745569229,walking,2026-03-04_14-06-35
1772633199346449200,4.07344921875,-0.1571980290766805,0.6402376394286752,0.1276537354886531,-0.0880581066012382,0.0859927684068679,-0.1418658047914505,walking,2026-03-04_14-06-35
1772633199356398000,4.083398193359375,-0.0775712606594897,0.4074474129468202,0.4383189365506172,-0.0575255751609802,0.0063304677605628,-0.1072776541113853,walking,2026-03-04_14-06-35
1772633199366347000,4.093346923828125,-0.0261796394605189,0.135148621288687,0.8820897087663412,-0.083130270242691,-0.0760664045810699,-0.0720743909478187,walking,2026-03-04_14-06-35
1772633199376296000,4.1032958984375,0.0131762011057697,-0.1116980414658784,1.1871475913405418,-0.131473422050476,-0.1177924424409866,-0.0417961739003658,walking,2026-03-04_14-06-35
1772633199386245000,4.1132451171875,-0.0212135414857417,-0.2377902267262339,1.232971769404411,-0.183256983757019,-0.1424280107021331,-0.0260845888406038,walking,2026-03-04_14-06-35
1772633199396194000,4.123194091796875,-0.1420875719727017,-0.3332360754407942,1.118009173184633,-0.232754498720169,-0.1718010902404785,-0.0259109511971473,walking,2026-03-04_14-06-35
1772633199406143200,4.133143310546875,-0.1891991777649149,-0.3996509138517081,0.9793810392171144,-0.2654027342796325,-0.1698729544878006,-0.0176058840006589,walking,2026-03-04_14-06-35
1772633199416093200,4.14309326171875,-0.1617261374929919,-0.3887133402518928,0.754818250593543,-0.2848590612411499,-0.1398495286703109,0.0020423375535756,walking,2026-03-04_14-06-35
1772633199426042000,4.1530419921875,-0.1314885461448691,-0.2778602251775562,0.5572410840511322,-0.2858252823352813,-0.1120301410555839,0.0261082593351602,walking,2026-03-04_14-06-35
1772633199435991000,4.162990966796875,-0.1162364886131137,-0.1952947546936571,0.4091553859084844,-0.279877632856369,-0.0965585857629776,0.0577628724277019,walking,2026-03-04_14-06-35
1772633199445940000,4.17293994140625,-0.0460501505731604,-0.165633045271039,0.3237000392019749,-0.2575659155845642,-0.0872447118163108,0.0910539850592613,walking,2026-03-04_14-06-35
1772633199455889000,4.182888916015625,-0.0880857500090263,-0.1582321213647723,0.2017927384108304,-0.2250052243471145,-0.0831961184740066,0.1061360314488411,walking,2026-03-04_14-06-35
1772633199465838000,4.192838134765625,-0.2008207698398269,-0.1757693854905664,0.1215565876573324,-0.1929128021001815,-0.1054678633809089,0.1128173694014549,walking,2026-03-04_14-06-35
1772633199475787300,4.202787353515625,-0.2829773672618903,-0.1806979279339313,0.1339940444260835,-0.1703107804059982,-0.1183353438973426,0.1285911649465561,walking,2026-03-04_14-06-35
1772633199485736200,4.212736083984375,-0.2595730194672942,-0.1816904461026191,0.1642190868198871,-0.1493911147117614,-0.1208685413002967,0.147102802991867,walking,2026-03-04_14-06-35
1772633199495685000,4.22268505859375,-0.3025128377338871,-0.1712380256712436,0.1120709664314985,-0.1191769391298294,-0.1005846038460731,0.1556322872638702,walking,2026-03-04_14-06-35
1772633199505634000,4.232634033203125,-0.3439435666117817,-0.2360216096185147,0.0326069690942764,-0.0875740051269531,-0.050278827548027,0.1679789721965789,walking,2026-03-04_14-06-35
1772633199515584000,4.242583984375,-0.3368705594856291,-0.3041536272108555,0.0022428104907274,-0.0535532683134079,0.0143446736037731,0.1868866980075836,walking,2026-03-04_14-06-35
1772633199525533000,4.252532958984375,-0.2665512061831541,-0.3190333625651896,0.0346639016240835,-0.0253775566816329,0.0638429820537567,0.2085166275501251,walking,2026-03-04_14-06-35
1772633199535482000,4.262482177734375,-0.1619845327008515,-0.3923546193636953,0.1674193441659212,-0.0046300594694912,0.0795047804713249,0.2290925532579422,walking,2026-03-04_14-06-35
1772633199545431000,4.27243115234375,-0.0513751632545143,-0.4789284487061202,0.3621387831896543,0.0054377550259232,0.0754650309681892,0.2487117946147918,walking,2026-03-04_14-06-35
1772633199555380200,4.282380126953125,0.0300599514925852,-0.5489534404382109,0.5286702386051416,0.0027798637747764,0.0499687679111957,0.2625516653060913,walking,2026-03-04_14-06-35
1772633199565329200,4.2923291015625,0.0542585092716384,-0.5963434065140784,0.6603659429609775,-0.0103995874524116,0.0176337305456399,0.2757785320281982,walking,2026-03-04_14-06-35
1772633199575278000,4.302278076171875,0.0931766708067152,-0.6601318419441581,0.7126876663506031,-0.0311564151197671,-0.009835809469223,0.2846852540969848,walking,2026-03-04_14-06-35
1772633199585227000,4.31222705078125,0.0607794172066729,-0.7021016826674342,0.6649485945761203,-0.0424274429678916,-0.0075137987732887,0.2868629395961761,walking,2026-03-04_14-06-35
1772633199595176000,4.322176025390625,-0.0241959274305496,-0.6771198016241192,0.4986345813035964,-0.0440860465168952,0.011097359471023,0.2781203091144562,walking,2026-03-04_14-06-35
1772633199605126100,4.332126220703125,-0.1607358843466267,-0.6213795019626617,0.2364016949772834,-0.0466711744666099,0.0050146989524364,0.2676764726638794,walking,2026-03-04_14-06-35
1772633199615075000,4.342074951171875,-0.2230640744984149,-0.5896256425663828,0.0956850642979145,-0.0597471483051776,-0.003883252851665,0.2470541000366211,walking,2026-03-04_14-06-35
1772633199625024000,4.35202392578125,-0.2669181580657139,-0.6128099726684391,-0.0524403813332319,-0.088465616106987,0.018272116780281,0.2248782366514206,walking,2026-03-04_14-06-35
1772633199634973000,4.361972900390625,-0.3957721727222204,-0.5863721937283873,-0.2411591186374425,-0.1365381777286529,0.0597726106643676,0.2084055691957473,walking,2026-03-04_14-06-35
1772633199644922600,4.371922607421875,-0.5259025274574757,-0.541483104557544,-0.389677947500348,-0.1827048659324646,0.0850124508142471,0.196904182434082,walking,2026-03-04_14-06-35
1772633199654871800,4.381871826171875,-0.5373483063077554,-0.5371459521360695,-0.5670522839695215,-0.2021561414003372,0.0862134769558906,0.1931719928979873,walking,2026-03-04_14-06-35
1772633199664820700,4.39182080078125,-0.5331276929380372,-0.5074966638036073,-0.8663596401929855,-0.1758739352226257,0.0854856371879577,0.1985702067613601,walking,2026-03-04_14-06-35
1772633199674769700,4.401769775390625,-0.5909026036996394,-0.4291718996293842,-1.214458207592368,-0.104539155960083,0.123405247926712,0.2096711248159408,walking,2026-03-04_14-06-35
1772633199684718800,4.41171875,-0.647746407623589,-0.3773144327506423,-1.5544278290718794,0.0220901612192392,0.2168638259172439,0.2245568633079528,walking,2026-03-04_14-06-35
1772633199694668800,4.421668701171875,-0.6916062998771667,-0.3817231891036033,-1.8397288717746731,0.1651947498321533,0.2870071530342102,0.2466606795787811,walking,2026-03-04_14-06-35
1772633199704617700,4.43161767578125,-0.6510805935475975,-0.4737212354518473,-1.782586011838913,0.2766770720481872,0.2581736445426941,0.2666130661964416,walking,2026-03-04_14-06-35
1772633199714566700,4.441566650390625,-0.5188847941825167,-0.7131130521558224,-1.3735428541332482,0.3310300707817077,0.1552130281925201,0.2825513184070587,walking,2026-03-04_14-06-35
1772633199724515600,4.451515625,-0.4069994134509935,-0.9653880235694348,-0.8854442798912525,0.331047922372818,0.0378621630370616,0.2982256114482879,walking,2026-03-04_14-06-35
1772633199734464800,4.46146484375,-0.3070915803588926,-1.1280893993027508,-0.5707727657973766,0.2941352427005768,-0.0559006817638874,0.3090457916259765,walking,2026-03-04_14-06-35
1772633199744414000,4.4714140625,-0.3065513360023498,-1.1955733282499017,-0.4564905530571937,0.231906771659851,-0.1147943586111068,0.3021902740001678,walking,2026-03-04_14-06-35
1772633199754363000,4.48136279296875,-0.4313353612735867,-1.1417892772227525,-0.4595581239342689,0.1596055030822754,-0.1453379094600677,0.2785800993442535,walking,2026-03-04_14-06-35
1772633199764311800,4.491311767578125,-0.5944362577185034,-1.0694589311577378,-0.5884253268659114,0.0737049877643585,-0.1717809587717056,0.2461664825677871,walking,2026-03-04_14-06-35
1772633199774260700,4.5012607421875,-0.6632507776822895,-1.0047557189702987,-0.725489280256629,-0.0253969486802816,-0.1869656890630722,0.2104315906763076,walking,2026-03-04_14-06-35
1772633199784210700,4.511210693359375,-0.7105502159304916,-0.8600945884488522,-0.9184224203854798,-0.1192973405122757,-0.166978120803833,0.1696348935365677,walking,2026-03-04_14-06-35
1772633199794159600,4.52115966796875,-0.7908143506694585,-0.5423233547739684,-1.186919627803564,-0.1808224618434906,-0.1066712588071823,0.1217885687947273,walking,2026-03-04_14-06-35
1772633199804108800,4.53110888671875,-0.914794512211904,-0.1018701826736331,-1.5492799447894094,-0.198013424873352,-0.0253335293382406,0.0763393267989158,walking,2026-03-04_14-06-35
1772633199814057700,4.5410576171875,-0.8731575567048042,0.3213745188638567,-1.8464847757756708,-0.1644064486026764,0.0521133318543434,0.0432797744870185,walking,2026-03-04_14-06-35
1772633199824007000,4.5510068359375,-0.6900466493450105,0.665361267030239,-2.050223387557268,-0.0922614112496376,0.1164382621645927,0.0324044898152351,walking,2026-03-04_14-06-35
1772633199833955800,4.560955810546875,-0.4705987195171415,0.9349984382636845,-2.0880407847762106,0.0028561120852828,0.1447035074234008,0.0507250800728797,walking,2026-03-04_14-06-35
1772633199843904800,4.57090478515625,-0.2116531112331897,1.1225145217798649,-1.94717802362442,0.1073098182678222,0.1186442002654075,0.0902170985937118,walking,2026-03-04_14-06-35
1772633199853853700,4.580853759765625,0.0021384276676457,1.2088396370582282,-1.7025801627099513,0.2349363416433334,0.0893532484769821,0.1449925303459167,walking,2026-03-04_14-06-35
1772633199863802600,4.590802734375,0.0878031519416719,1.1864565403364598,-1.5054408030629156,0.3809089958667755,0.0779232233762741,0.1861748546361923,walking,2026-03-04_14-06-35
1772633199873752800,4.6007529296875,-0.0105962402157019,1.07200554690063,-1.284064243260026,0.5227952599525452,0.0846435278654098,0.1874933689832687,walking,2026-03-04_14-06-35
1772633199883701800,4.61070166015625,-0.2107896628042682,0.8858457002989947,-0.9012111733436584,0.6302607655525208,0.093991219997406,0.1582880765199661,walking,2026-03-04_14-06-35
1772633199893650700,4.620650634765625,-0.2831825892440974,0.733672878973186,-0.3705862935394048,0.6818680763244629,0.0833844989538192,0.1260368376970291,walking,2026-03-04_14-06-35
1772633199903599600,4.630599609375,-0.1621490938791073,0.632825463476032,0.2600520351558923,0.6725672483444214,0.0685826539993286,0.0949731841683387,walking,2026-03-04_14-06-35
1772633199913548800,4.640548828125,-0.0851546923926565,0.6139584120512008,0.8138467781454324,0.6114140748977661,0.0409669540822505,0.0514072999358177,walking,2026-03-04_14-06-35
1772633199923497700,4.650497802734375,-0.0316919640080537,0.6423495170161128,1.2094196289032697,0.5049629807472229,-0.0098967608064413,0.0150540843605995,walking,2026-03-04_14-06-35
1772633199933446700,4.66044677734375,0.0612042732889298,0.6988176925607025,1.5236229409635067,0.3596978187561035,-0.0726677179336547,-0.0130134131759405,walking,2026-03-04_14-06-35
1772633199943395800,4.670395751953125,0.1690027043672278,0.8089622209742665,1.730471793720126,0.2042323052883148,-0.1270601153373718,-0.025218416005373,walking,2026-03-04_14-06-35
1772633199953344800,4.6803447265625,0.2715444478931836,0.9653827628724276,1.698364006319642,0.0704723596572876,-0.1520702540874481,-0.0165224205702543,walking,2026-03-04_14-06-35
1772633199963293700,4.690293701171875,0.3122632839083671,1.1422665393456817,1.4286118304044009,-0.0213872529566288,-0.1579478532075882,-0.0057944096624851,walking,2026-03-04_14-06-35
1772633199973243600,4.70024365234375,0.2924382011063396,1.2603424452804028,1.0463292538523674,-0.0687109008431434,-0.1665271818637848,0.0019445526413619,walking,2026-03-04_14-06-35
1772633199983192600,4.710192626953125,0.2121346842050552,1.279536975093931,0.6801087543070315,-0.090725652873516,-0.1902820467948913,-0.0125241354107856,walking,2026-03-04_14-06-35
1772633199993141800,4.720141845703125,0.0457072234535822,1.2644731153443456,0.3684358375072479,-0.0926444232463836,-0.2211337685585022,-0.0426019988954067,walking,2026-03-04_14-06-35
1772633200003091000,4.730091064453125,-0.1492425308944191,1.2386673506975174,0.0848041893213987,-0.0885929614305496,-0.2521233856678009,-0.0851790159940719,walking,2026-03-04_14-06-35
1772633200013039900,4.740039794921875,-0.3000276515883393,1.173584929934144,-0.1238590193808078,-0.0846931636333465,-0.2541552782058716,-0.1234525665640831,walking,2026-03-04_14-06-35
1772633200022988800,4.74998876953125,-0.3536846604360267,1.1422910892650484,-0.2714706702709197,-0.0774837210774421,-0.214895486831665,-0.1589162796735763,walking,2026-03-04_14-06-35
1772633200032937700,4.759937744140625,-0.4209275106362998,1.1425180298887192,-0.3993231432020664,-0.0602839067578315,-0.1356109380722046,-0.194305807352066,walking,2026-03-04_14-06-35
1772633200042886700,4.76988671875,-0.4703310084916651,1.1625870044492184,-0.5059375977933407,-0.025430055335164,-0.0205820836126804,-0.2152901738882064,walking,2026-03-04_14-06-35
1772633200052835600,4.779835693359375,-0.440005976322107,1.1844264958135784,-0.4921276836276054,0.0091675370931625,0.0903358608484268,-0.2254316806793213,walking,2026-03-04_14-06-35
1772633200062785500,4.78978564453125,-0.4167296570876613,1.211414163721353,-0.2911410009026527,0.0292986370623111,0.1625477522611618,-0.2377464026212692,walking,2026-03-04_14-06-35
1772633200072734700,4.799734619140625,-0.342898770266585,1.1277297722101212,0.0335913039565086,0.0323367565870285,0.1678203493356704,-0.247981995344162,walking,2026-03-04_14-06-35
1772633200082684000,4.809683837890625,-0.2213930177473463,0.9543119182817638,0.4394394650131464,0.0164288971573114,0.1343177855014801,-0.2587462365627289,walking,2026-03-04_14-06-35
1772633200092632800,4.8196328125,-0.136729177611554,0.8130532896801829,0.7460048295408487,0.0004788730293512,0.1073247194290161,-0.2662862241268158,walking,2026-03-04_14-06-35
1772633200102581800,4.829581787109375,-0.0830474818471819,0.728766840622574,0.8852584019303321,-0.0095684342086315,0.0891880691051483,-0.2781284749507904,walking,2026-03-04_14-06-35
1772633200112530700,4.83953076171875,-0.1160493685431778,0.6713476479634642,0.9309446328282356,-0.0091151800006628,0.0935469344258308,-0.2889617085456848,walking,2026-03-04_14-06-35
1772633200122479600,4.849479736328125,-0.0865259259469341,0.5803523489169776,0.9508364972561596,-0.008542601019144,0.1088129729032516,-0.2816899418830871,walking,2026-03-04_14-06-35
1772633200132428500,4.859428466796875,0.0155015935797244,0.5345581275999546,1.0384323631227017,-0.0050782593898475,0.1297821551561355,-0.2694191336631775,walking,2026-03-04_14-06-35
1772633200142377700,4.869377685546875,0.0822996956871822,0.4903615507379174,1.1578320650070906,-0.0071882815100252,0.1311595439910888,-0.2563483417034149,walking,2026-03-04_14-06-35
1772633200152327700,4.87932763671875,0.1519915099421516,0.3990054555550217,1.332960668376088,-0.0261666346341371,0.1009718999266624,-0.2413780987262725,walking,2026-03-04_14-06-35
1772633200162276900,4.88927685546875,0.1933107412695884,0.2870226057983934,1.5558113923847674,-0.0652522519230842,0.0411365292966365,-0.2367963939905166,walking,2026-03-04_14-06-35
1772633200172225800,4.899225830078125,0.1633569170325994,0.1653233947999775,1.706914977043867,-0.1165518537163734,-0.0110747758299112,-0.2568146288394928,walking,2026-03-04_14-06-35
1772633200182174700,4.9091748046875,0.0147810424865223,0.0157728848017752,1.7048071911096572,-0.1757456660270691,-0.0518645495176315,-0.2888340950012207,walking,2026-03-04_14-06-35
1772633200192123600,4.91912353515625,-0.0905940065029077,-0.1204106324926018,1.6120874063581228,-0.2372984886169433,-0.0818357542157173,-0.3197551369667053,walking,2026-03-04_14-06-35
1772633200202072800,4.92907275390625,-0.0332820553442463,-0.207363378150016,1.487450388342142,-0.2900123000144958,-0.0928830802440643,-0.3336240947246551,walking,2026-03-04_14-06-35
1772633200212021800,4.939021728515625,0.0315491671370342,-0.1981551125608384,1.2574866174578665,-0.3243968784809112,-0.0720476433634758,-0.3357643187046051,walking,2026-03-04_14-06-35
1772633200221970700,4.948970703125,0.0081357592531479,-0.1394122700825333,0.8989964199036359,-0.3311482667922973,-0.0487367250025272,-0.3381638526916504,walking,2026-03-04_14-06-35
1772633200231919900,4.958919921875,-0.0473042605537921,-0.1340858143627643,0.6014601650059223,-0.3257814049720764,-0.0444400459527969,-0.3450444936752319,walking,2026-03-04_14-06-35
1772633200241869600,4.96886962890625,-0.1075332864692434,-0.1696642004832625,0.4108031531155109,-0.3045629262924194,-0.0371696166694164,-0.3508669734001159,walking,2026-03-04_14-06-35
1772633200251818800,4.97881884765625,-0.1294621366174891,-0.2261721235163509,0.2456511693596839,-0.2706071734428406,-0.0308596566319465,-0.3515492975711822,walking,2026-03-04_14-06-35
1772633200261767700,4.988767578125,-0.1286774890458211,-0.2914012592740356,0.1488040755450725,-0.2195887267589569,-0.0179856680333614,-0.3542758524417877,walking,2026-03-04_14-06-35
1772633200271716900,4.998716796875,-0.1689704643317498,-0.3516106671735644,0.0533773699223995,-0.1551949977874755,-0.0035747685469686,-0.3638834953308105,walking,2026-03-04_14-06-35
1772633200281665800,5.008665771484375,-0.1720872081127949,-0.4712060377605259,0.0184480953603982,-0.0870297849178314,0.0013113331515341,-0.3742988705635071,walking,2026-03-04_14-06-35
1772633200291614700,5.01861474609375,-0.1123495459108613,-0.5990349836856127,0.067205404266715,-0.0424704402685165,-0.0259478334337472,-0.3815801739692688,walking,2026-03-04_14-06-35
1772633200301563600,5.028563720703125,-0.0393682251238264,-0.7255461250104009,0.3145470109313726,-0.0374810062348842,-0.0855001062154769,-0.387167751789093,walking,2026-03-04_14-06-35
1772633200311512800,5.038512939453125,0.0110310788358561,-0.8688898893229663,0.5869529162257909,-0.0656801536679267,-0.1650051474571228,-0.3984591662883758,walking,2026-03-04_14-06-35
1772633200321461800,5.048461669921875,0.0144870097097009,-0.9961823902837932,0.7494955942660569,-0.1228739321231842,-0.2444142252206802,-0.4080428183078766,walking,2026-03-04_14-06-35
1772633200331411700,5.05841162109375,0.0234857242014259,-1.0707228136137128,0.7468278363615274,-0.188920646905899,-0.3037753105163574,-0.4157628118991852,walking,2026-03-04_14-06-35
1772633200341361000,5.06836083984375,0.0340137671522796,-1.0895201608031988,0.5709861162871122,-0.2499166280031204,-0.3404097259044647,-0.415216326713562,walking,2026-03-04_14-06-35
1772633200351309800,5.078309814453125,0.0670422495942562,-1.0649198264233768,0.2255523841828107,-0.2886658608913421,-0.3510430455207824,-0.4081229865550995,walking,2026-03-04_14-06-35
1772633200361258800,5.0882587890625,0.0946171976043842,-0.9841451848790048,-0.200379949003458,-0.293679803609848,-0.3416761755943298,-0.403713047504425,walking,2026-03-04_14-06-35
1772633200371207700,5.098207763671875,0.0565515840783016,-0.8770420699879526,-0.6292898366957903,-0.2623527646064758,-0.309455543756485,-0.4010323584079742,walking,2026-03-04_14-06-35
1772633200381156600,5.108156494140625,-0.0140513354059075,-0.7606213839143514,-1.080970359122753,-0.1845075190067291,-0.2596688270568847,-0.4100058674812317,walking,2026-03-04_14-06-35
1772633200391105500,5.11810546875,-0.0175249435003381,-0.7179571311861276,-1.454132056108117,-0.0797078236937522,-0.1840978860855102,-0.4205607175827026,walking,2026-03-04_14-06-35
1772633200401055000,5.128054931640625,0.1195902468872722,-0.6662384882561863,-1.668933913695812,0.0271459184587001,-0.1080366596579551,-0.4118364751338959,walking,2026-03-04_14-06-35
1772633200411004000,5.13800390625,0.4373291217956692,-0.6482640017569065,-1.6521481985896824,0.1110763922333717,-0.0565230399370193,-0.3722353279590606,walking,2026-03-04_14-06-35
1772633200420952800,5.147952880859375,0.8027096633855253,-0.7022051430419087,-1.4075602745473383,0.1611659228801727,-0.0350158885121345,-0.3273818492889404,walking,2026-03-04_14-06-35
1772633200430902800,5.15790283203125,1.113342496547848,-0.8261438035301863,-1.0594488476663828,0.1775486469268798,-0.018530985340476,-0.2715141773223877,walking,2026-03-04_14-06-35
1772633200440851700,5.167851806640625,1.339786715003848,-0.9761183841593564,-0.7823579994261264,0.1690254658460617,-0.006391764152795,-0.2149899005889892,walking,2026-03-04_14-06-35
1772633200450800600,5.177800537109375,1.47322911689654,-1.0768740297198296,-0.6234954712033272,0.1466923505067825,-0.0495384261012077,-0.1714119762182235,walking,2026-03-04_14-06-35
1772633200460749600,5.18774951171875,1.5133867936313152,-1.1516970693834123,-0.5607914700090885,0.1136007085442543,-0.1310380697250366,-0.1405278295278549,walking,2026-03-04_14-06-35
1772633200470698800,5.19769873046875,1.437885124053806,-1.090942594821751,-0.5214660063147545,0.0619686506688594,-0.2617221474647522,-0.1295111626386642,walking,2026-03-04_14-06-35
1772633200480647700,5.207647705078125,1.2978953463442622,-1.0806455110825597,-0.6075216570019721,0.035313069820404,-0.3631182909011841,-0.1249193400144577,walking,2026-03-04_14-06-35
1772633200490596900,5.217596923828125,0.9247506004936992,-0.991360523085296,-0.9356734149158,0.0290531199425458,-0.4132685661315918,-0.137762501835823,walking,2026-03-04_14-06-35
1772633200500545800,5.2275458984375,0.5022822170909493,-0.6703302876144647,-1.351116502791643,0.0235885791480541,-0.4368439316749573,-0.1487078368663787,walking,2026-03-04_14-06-35
1772633200510494700,5.23749462890625,0.199494471405819,-0.3686906890511512,-1.6199083092421291,0.0072226952761411,-0.4415362477302551,-0.1590399593114853,walking,2026-03-04_14-06-35
1772633200520444700,5.247444580078125,-0.1092526576077565,-0.1188851764909923,-1.7848083640635013,-0.0271920021623373,-0.4070885181427002,-0.1699892729520797,walking,2026-03-04_14-06-35
1772633200530393900,5.257393798828125,-0.3492582953611388,0.1913753892928361,-1.8714415223777288,-0.0683700144290924,-0.3415144383907318,-0.1705563813447952,walking,2026-03-04_14-06-35
1772633200540342800,5.2673427734375,-0.4682133952831849,0.4055209749288856,-1.9579028312563893,-0.0847223550081253,-0.2538357079029083,-0.1619144231081009,walking,2026-03-04_14-06-35
1772633200550291700,5.277291748046875,-0.4699388673689216,0.6121307582326233,-2.0952362492382526,-0.0699530392885208,-0.1572216004133224,-0.1396437883377075,walking,2026-03-04_14-06-35
1772633200560240600,5.28724072265625,-0.4374051096413284,0.8948727641023695,-2.12905317864418,-0.0328160636126995,-0.0716462433338165,-0.1090656295418739,walking,2026-03-04_14-06-35
1772633200570189800,5.29718994140625,-0.3820062803613022,1.1703880335889756,-2.018425396758318,0.0221911072731018,0.0026347215753048,-0.0674540624022483,walking,2026-03-04_14-06-35
1772633200580138800,5.307138671875,-0.3516181198276579,1.3766845131598413,-1.8439391829460856,0.0969425812363624,0.0692643523216247,-0.0425545647740364,walking,2026-03-04_14-06-35
1772633200593197800,5.32019775390625,-0.4155247017446905,1.518164967818558,-1.6679963405847549,0.23718923330307,0.1603410392999649,-0.0244614128023386,walking,2026-03-04_14-06-35
1772633200603146800,5.330146728515625,-0.4444988672945648,1.673236140934378,-1.3936486535727977,0.3762376606464386,0.2294223755598068,-0.0184743609279394,walking,2026-03-04_14-06-35
1772633200613096700,5.3400966796875,-0.3552870175987482,1.787355564328283,-1.0434615894615649,0.51491379737854,0.2839193344116211,-0.0111185619607567,walking,2026-03-04_14-06-35
1772633200623045600,5.350045654296875,-0.2390393500044941,1.844689270661026,-0.5972486847907305,0.6276832222938538,0.2966037094593048,-0.0009250466246157,walking,2026-03-04_14-06-35
1772633200632994600,5.35999462890625,-0.0904552647524978,1.81050555376932,0.0334825828850269,0.697181761264801,0.2506109476089477,0.0127900503575801,walking,2026-03-04_14-06-35
1772633200642943700,5.36994384765625,0.03199323024326,1.6936979142047464,0.6353016443312167,0.7155053615570068,0.1639868468046188,0.0228227097541093,walking,2026-03-04_14-06-35
1772633200652892400,5.379892333984375,0.0575304892801679,1.527461350082606,1.1617635592371225,0.6946065425872803,0.0770064294338226,0.0093733444809913,walking,2026-03-04_14-06-35
1772633200662841300,5.38984130859375,-0.0669936338127125,1.3309173259802165,1.5222481454789638,0.6448986530303955,0.0144937774166464,-0.0285785645246505,walking,2026-03-04_14-06-35
1772633200672790300,5.399790283203125,-0.2578210977660491,1.1425262131951748,1.7438509152531625,0.5578094720840454,-0.0231357347220182,-0.0881146192550659,walking,2026-03-04_14-06-35
1772633200682739200,5.4097392578125,-0.406343835619092,0.9485659219756722,1.8988778108358384,0.4310193359851837,-0.0348099656403064,-0.1595983952283859,walking,2026-03-04_14-06-35
1772633200692688100,5.419688232421875,-0.4955255093723535,0.8157081881031394,2.041407628417015,0.2695620656013489,-0.0335899963974952,-0.23070128262043,walking,2026-03-04_14-06-35
1772633200702637300,5.42963720703125,-0.4897925552109256,0.7248188336491584,2.108646934953332,0.0814294666051864,-0.0250724088400602,-0.2951908111572265,walking,2026-03-04_14-06-35
1772633200712587300,5.439587158203125,-0.4893270565910264,0.7166101004913449,2.072365661260485,-0.1110612154006958,0.0116416197270154,-0.3451334834098816,walking,2026-03-04_14-06-35
1772633200722536400,5.449536376953125,-0.4592443818099797,0.8474632165431976,1.9127379938840865,-0.2952630221843719,0.0689211562275886,-0.3709373772144317,walking,2026-03-04_14-06-35
1772633200732485400,5.4594853515625,-0.3620173487670719,0.9554533434018492,1.634000547480583,-0.4622043073177337,0.1257363259792328,-0.3682178556919098,walking,2026-03-04_14-06-35
1772633200742434300,5.469434326171875,-0.2073885491238906,0.9627768181577324,1.3008844451576471,-0.5970122218132019,0.1690848618745803,-0.35231614112854,walking,2026-03-04_14-06-35
1772633200752383200,5.47938330078125,-0.1523897885447367,0.937124198246002,0.893432940557599,-0.6787713170051575,0.1981370896100998,-0.3365687429904938,walking,2026-03-04_14-06-35
1772633200762332400,5.48933251953125,-0.2159672663715668,0.9786920340396464,0.4580190777987241,-0.7031443119049072,0.2207324206829071,-0.3208909630775451,walking,2026-03-04_14-06-35
1772633200772281300,5.49928125,-0.2028461564539,1.0236492200106382,0.0187251587361097,-0.6725502610206604,0.2334572672843933,-0.2861641049385071,walking,2026-03-04_14-06-35
1772633200782230300,5.509230224609375,-0.0383225519957952,0.9901369726397096,-0.4247533525347709,-0.5724140405654907,0.2543774545192718,-0.2302864789962768,walking,2026-03-04_14-06-35
1772633200792179500,5.519179443359375,0.0798095137061085,1.00201621100381,-0.8345996433168649,-0.4174928963184356,0.2910564243793487,-0.1596021503210067,walking,2026-03-04_14-06-35
1772633200802129200,5.529129150390625,0.1365358195970766,1.0187770839296282,-1.0558324107348918,-0.2401721626520156,0.3052952885627746,-0.0864264592528343,walking,2026-03-04_14-06-35
1772633200812078300,5.539078369140625,0.1738338508507236,0.88875939578861,-1.025802014130354,-0.0765750482678413,0.2761498391628265,-0.026055971160531,walking,2026-03-04_14-06-35
1772633200822027300,5.54902734375,0.1671483817374333,0.6417078581117093,-0.7248124039083719,0.0484989807009696,0.217771515250206,0.0201916862279176,walking,2026-03-04_14-06-35
1772633200831976400,5.5589765625,0.1643280818860046,0.3748107793666422,-0.2868283984005451,0.125501736998558,0.1503180712461471,0.0636497437953949,walking,2026-03-04_14-06-35
1772633200841925400,5.56892529296875,0.188857835247647,0.1224579204112291,0.2337760226488113,0.1453963369131088,0.0766443759202957,0.1011103019118309,walking,2026-03-04_14-06-35
1772633200851874300,5.578874267578125,0.1773816612591035,-0.0838398743338882,0.6983078433424234,0.1207429021596908,0.0093733510002493,0.1338567733764648,walking,2026-03-04_14-06-35
1772633200861823200,5.5888232421875,0.1484397540110163,-0.2482305183283984,1.0130307953625917,0.0631123632192611,-0.0463229343295097,0.1626109182834625,walking,2026-03-04_14-06-35
1772633200871772400,5.5987724609375,0.0866382180818356,-0.3778101073130965,1.2080179454118012,-0.0082416338846087,-0.0841907188296318,0.182939812541008,walking,2026-03-04_14-06-35
1772633200881721300,5.608721435546875,-0.0507520446537993,-0.4547516004353761,1.2324305021345614,-0.0715542882680893,-0.0940633192658424,0.1955205798149109,walking,2026-03-04_14-06-35
1772633200891671300,5.61867138671875,-0.2292052258682437,-0.4859028177633881,1.0782581775546074,-0.1185545176267623,-0.0789632648229599,0.2020694464445114,walking,2026-03-04_14-06-35
1772633200901620500,5.628620361328125,-0.3786002347774803,-0.4426872147627174,0.8472440208345651,-0.1390472799539566,-0.0598223321139812,0.2164542376995086,walking,2026-03-04_14-06-35
1772633200911569400,5.6385693359375,-0.4437027484808117,-0.3822023509226739,0.5994663608402013,-0.1266180127859115,-0.0375288985669612,0.2305708825588226,walking,2026-03-04_14-06-35
1772633200921518300,5.648518310546875,-0.4728266246996819,-0.3342455447442829,0.3567091593563556,-0.0939114689826965,-0.0210513882339,0.24152472615242,walking,2026-03-04_14-06-35
1772633200931467300,5.65846728515625,-0.497687948103249,-0.2738030587412416,0.198570853754878,-0.0523439869284629,-0.0077824094332754,0.2496917396783828,walking,2026-03-04_14-06-35
1772633200942038300,5.669038330078125,-0.5151670523010194,-0.2629427881613373,0.0904646993011236,-0.0120064206421375,0.0019692876376211,0.2492976039648056,walking,2026-03-04_14-06-35
1772633200951987200,5.6789873046875,-0.5407346973430365,-0.2868457879267633,0.1064718312501907,0.0088208997622132,0.007816226221621,0.2488650232553482,walking,2026-03-04_14-06-35
1772633200961936100,5.68893603515625,-0.5001341722115874,-0.2830690458670258,0.2437473815649747,0.011301633901894,0.0194872636348009,0.2586737275123596,walking,2026-03-04_14-06-35
1772633200971885600,5.698885498046875,-0.3601953209716826,-0.3035128450892865,0.3631400691866874,-0.0005207620561122,0.0427237972617149,0.275819718837738,walking,2026-03-04_14-06-35
1772633200981834500,5.70883447265625,-0.2473868523121811,-0.3343440366826951,0.4592155941069126,-0.023206366226077,0.0890862345695495,0.293640524148941,walking,2026-03-04_14-06-35
1772633200991783400,5.718783447265625,-0.1472740438330453,-0.3624561785757541,0.5439952335089445,-0.0451690256595611,0.1510761231184005,0.312375545501709,walking,2026-03-04_14-06-35
1772633201001732400,5.728732421875,-0.0984635799673851,-0.3804160520277917,0.6381003351390362,-0.0633810460567474,0.1908245980739593,0.3226593434810638,walking,2026-03-04_14-06-35
1772633201011682300,5.738682373046875,-0.0416243882864713,-0.4230325200915336,0.7268389412999152,-0.0675149708986282,0.1971527934074401,0.3290270268917084,walking,2026-03-04_14-06-35
1772633201021631200,5.74863134765625,0.0075950217062607,-0.497302894308418,0.7331564538836479,-0.0516276210546493,0.1847991794347763,0.3283047676086426,walking,2026-03-04_14-06-35
1772633201031580200,5.758580078125,0.0363701758190058,-0.5074222833931445,0.6206289758563042,-0.019908245652914,0.15691938996315,0.3298365473747253,walking,2026-03-04_14-06-35
1772633201041529300,5.768529296875,0.083113715483807,-0.5301952562153339,0.4879816698640584,0.0177829414606094,0.1236360073089599,0.3300258815288543,walking,2026-03-04_14-06-35
1772633201051478300,5.778478271484375,0.1288184318864718,-0.5832248356133699,0.4186883534073829,0.0340875685214996,0.0917198434472084,0.3268641531467438,walking,2026-03-04_14-06-35
1772633201061427500,5.788427490234375,0.1192183905007317,-0.615179770539701,0.4040010718852281,0.0240940563380718,0.0720840841531753,0.3216600716114044,walking,2026-03-04_14-06-35
1772633201071376400,5.79837646484375,0.0985627386260777,-0.6778678435124457,0.4026981725931167,-0.0125088561326265,0.0601111315190792,0.3155371248722076,walking,2026-03-04_14-06-35
1772633201081325300,5.8083251953125,0.0286650630680844,-0.6705974141180515,0.3077753248393535,-0.051253855228424,0.0566977560520172,0.314685970544815,walking,2026-03-04_14-06-35
1772633201091274200,5.818274169921875,-0.1087464251186698,-0.5932505550652742,0.0888993496805429,-0.085458904504776,0.0856013521552085,0.3137905299663543,walking,2026-03-04_14-06-35
1772633201101224400,5.828224365234375,-0.2582302630888298,-0.4840457917198538,-0.2021247468441724,-0.1098164469003677,0.1172005608677864,0.3197035491466522,walking,2026-03-04_14-06-35
1772633201111173400,5.83817333984375,-0.4367053638741374,-0.4349446378119289,-0.5245546199798584,-0.109571635723114,0.1535897701978683,0.3251035511493683,walking,2026-03-04_14-06-35
1772633201121122300,5.848122314453125,-0.6189969907402992,-0.3830716811031103,-0.8947370088934898,-0.0724801942706108,0.2070588618516922,0.3342459201812744,walking,2026-03-04_14-06-35
1772633201131071200,5.8580712890625,-0.7863781217876822,-0.3468837847821414,-1.2312959451466798,0.0145623562857508,0.2568150162696838,0.3530668914318084,walking,2026-03-04_14-06-35
1772633201141020400,5.8680205078125,-0.8998141660273075,-0.3349029857397079,-1.5070026455521583,0.141405776143074,0.2920925915241241,0.3698293566703796,walking,2026-03-04_14-06-35
1772633201150969300,5.87796923828125,-0.9515936722990124,-0.4604388522915542,-1.6739742459505795,0.28299480676651,0.3024839162826538,0.3817395269870758,walking,2026-03-04_14-06-35
1772633201160918300,5.887918212890625,-0.9794589998241512,-0.6761511027224362,-1.6298551182389258,0.3964449167251587,0.2600371241569519,0.3785946071147918,walking,2026-03-04_14-06-35
1772633201170867500,5.897867431640625,-0.9689638362295924,-0.9551350712329147,-1.3298580261856316,0.4533166587352752,0.1793174296617508,0.3652243912220001,walking,2026-03-04_14-06-35
1772633201180816400,5.90781640625,-0.9272817264065146,-1.2736829883687195,-0.8930331275850534,0.4420482814311981,0.0741968601942062,0.343156099319458,walking,2026-03-04_14-06-35
1772633201190766300,5.917766357421875,-0.8378447627179324,-1.4755920466355978,-0.485328525006771,0.3772208392620086,-0.0188623145222663,0.3184267878532409,walking,2026-03-04_14-06-35
1772633201200715300,5.92771533203125,-0.7675662346161901,-1.5564682488583028,-0.2792395507067441,0.2817451655864715,-0.0945115312933921,0.2758383154869079,walking,2026-03-04_14-06-35
1772633201210664200,5.937664306640625,-0.8007049724996089,-1.5483106613658368,-0.2607739196896553,0.1669064909219741,-0.0954464599490165,0.2236656993627548,walking,2026-03-04_14-06-35
1772633201220613000,5.947613037109375,-0.8706117446795105,-1.468692934771627,-0.4681085101366042,0.0585302263498306,-0.0612048655748367,0.1587239801883697,walking,2026-03-04_14-06-35
1772633201230562300,5.957562255859375,-0.9276768632039428,-1.22285150353685,-0.7697025159925222,-0.0410269275307655,-0.0112851979210972,0.0951102823019027,walking,2026-03-04_14-06-35
1772633201240511500,5.967511474609375,-0.8387751023706048,-0.835241156090796,-1.0746978547245265,-0.1153126060962677,0.0514538176357746,0.0605230145156383,walking,2026-03-04_14-06-35
1772633201250460400,5.97746044921875,-0.6397271326232701,-0.3692679044172167,-1.354691438668966,-0.1521764397621154,0.11794064193964,0.03761712834239,walking,2026-03-04_14-06-35
1772633201260409300,5.987409423828125,-0.4713180467676371,0.0097441260315477,-1.6537041958600285,-0.1465822011232376,0.1907501369714737,0.0251026693731546,walking,2026-03-04_14-06-35
1772633201270358300,5.997358154296875,-0.3307186127271503,0.3454401618450879,-1.8756021491885184,-0.0973309278488159,0.2733191847801208,0.0276719722896814,walking,2026-03-04_14-06-35
1772633201280308200,6.00730810546875,-0.1309943511534482,0.6095215986475349,-2.058454040285945,-0.0124482624232769,0.3410825133323669,0.0535901226103305,walking,2026-03-04_14-06-35
1772633201290257200,6.017257080078125,0.1414696775363758,0.8274960949219763,-2.0420091014415025,0.0803958624601364,0.3569072782993316,0.0937239602208137,walking,2026-03-04_14-06-35
1772633201300206300,6.027206298828125,0.3794752640463411,0.9544185935266316,-1.7704074982672928,0.143641397356987,0.2891063690185547,0.1309269964694976,walking,2026-03-04_14-06-35
1772633201310155300,6.0371552734375,0.5459499843059107,0.9847682852134108,-1.310028705599904,0.1838975548744201,0.1647263467311859,0.164568230509758,walking,2026-03-04_14-06-35
1772633201320104400,6.0471044921875,0.6135293729841709,0.8909262184336781,-0.92248777012825,0.2122815251350402,0.0306519027799367,0.1819280385971069,walking,2026-03-04_14-06-35
1772633201330053400,6.057053466796875,0.5119703020863234,0.8389223288215696,-0.7208978608131408,0.2549795806407928,-0.0311253052204847,0.1783584952354431,walking,2026-03-04_14-06-35
1772633201340002300,6.067002197265625,0.3513465728772804,0.8429596215136349,-0.7576379841893911,0.3125984072685241,0.0027194775175303,0.1697354465723037,walking,2026-03-04_14-06-35
1772633201349951200,6.076951171875,0.1902041900889947,0.9702049223318696,-0.7944687084585428,0.3748506009578705,0.0960653275251388,0.153933584690094,walking,2026-03-04_14-06-35
1772633201359900200,6.086900146484375,0.1481289162298664,1.0670615146271885,-0.6881412541151046,0.4365746974945068,0.197910726070404,0.1448759138584137,walking,2026-03-04_14-06-35
1772633201369850400,6.096850341796875,0.3048410614857449,1.1370860679678618,-0.4130757742226124,0.4755503833293915,0.2921865880489349,0.1536891311407089,walking,2026-03-04_14-06-35
1772633201379799300,6.10679931640625,0.524923234096542,1.2224953835755583,0.0402659594148397,0.4801121056079864,0.3561280071735382,0.1742748320102691,walking,2026-03-04_14-06-35
1772633201389748200,6.116748291015625,0.735382167109102,1.3019596731737255,0.5771884780585765,0.4552414715290069,0.3566806316375732,0.1962021887302398,walking,2026-03-04_14-06-35
1772633201399697400,6.126697509765625,0.8381665420182048,1.3426061563387512,1.0666045646399258,0.4038581848144531,0.2945243120193481,0.2104109525680542,walking,2026-03-04_14-06-35
1772633201409646300,6.136646240234375,0.9331097019076346,1.3460463599205017,1.4850065023213623,0.3168364465236664,0.1725020706653595,0.2338904291391372,walking,2026-03-04_14-06-35
1772633201419595300,6.14659521484375,1.0624950834944844,1.314058691768348,1.833330695170164,0.2204824984073639,0.0306008569896221,0.2557885348796844,walking,2026-03-04_14-06-35
1772633201429544200,6.156544189453125,1.0519354763615876,1.3233704177320005,1.9525205536961556,0.1207521632313728,-0.0924509540200233,0.270985335111618,walking,2026-03-04_14-06-35
1772633201439493400,6.166493408203125,0.9292353446923196,1.3889566963642834,1.884773297637701,0.0360364727675914,-0.1823890954256057,0.2862548232078552,walking,2026-03-04_14-06-35
1772633201449442300,6.1764423828125,0.7621822765555233,1.4423063014969228,1.6379349643200636,-0.0268334187567234,-0.2356349229812622,0.2911595106124878,walking,2026-03-04_14-06-35
1772633201459392300,6.186392333984375,0.5861673188060522,1.4200631977677345,1.2525222730487584,-0.0598992258310318,-0.2498868256807327,0.2818908989429474,walking,2026-03-04_14-06-35
1772633201469341200,6.196341064453125,0.3547297490421682,1.3762947831898926,0.8298299446970224,-0.0781677961349487,-0.2354020178318023,0.2623955011367798,walking,2026-03-04_14-06-35
1772633201479290400,6.206290283203125,0.0976021134329959,1.3754729454129933,0.5216916317641734,-0.1010797694325447,-0.2315148711204528,0.2346290946006775,walking,2026-03-04_14-06-35
1772633201489239300,6.2162392578125,-0.0732792442876845,1.354675072056055,0.4220692280173301,-0.1474389135837555,-0.2363061010837555,0.2013318985700607,walking,2026-03-04_14-06-35
1772633201499188500,6.2261884765625,-0.1975378574453294,1.2845523190379142,0.3944856400430202,-0.2021410465240478,-0.2238526344299316,0.165207177400589,walking,2026-03-04_14-06-35
1772633201509137400,6.236137451171875,-0.320250337139517,1.2114362294226884,0.3137362790703773,-0.2596063613891601,-0.1828333884477615,0.1274074018001556,walking,2026-03-04_14-06-35
1772633201519086300,6.24608642578125,-0.4100696877418086,1.1940279985040425,0.2097854907304048,-0.3016374409198761,-0.1150346398353576,0.0913998633623123,walking,2026-03-04_14-06-35
1772633201529035300,6.25603515625,-0.4115742836184799,1.192002045634389,0.093294954290986,-0.3240522146224975,-0.0066252658143639,0.06525719165802,walking,2026-03-04_14-06-35
1772633201538985200,6.265985107421875,-0.3794705878712237,1.1744999989524485,-0.0326163214445114,-0.3249435722827911,0.1111932471394538,0.054035697132349,walking,2026-03-04_14-06-35
1772633201548934100,6.27593408203125,-0.3214587265485897,1.1724907049566506,-0.0447673624873161,-0.310118168592453,0.2076558470726013,0.0516772456467151,walking,2026-03-04_14-06-35
1772633201558883300,6.28588330078125,-0.1816051059067249,1.0963644737400111,0.0957341641366481,-0.2820985019207001,0.2553253769874573,0.0530349276959896,walking,2026-03-04_14-06-35
1772633201568832500,6.29583251953125,-0.0102698669387027,0.929506855110079,0.3025368396639823,-0.2426826506853103,0.2586648762226105,0.0601080320775508,walking,2026-03-04_14-06-35
1772633201578781400,6.305781494140625,0.0857510417174547,0.8137117535889148,0.5401087474644184,-0.1977468729019165,0.229927510023117,0.067500963807106,walking,2026-03-04_14-06-35
1772633201588730400,6.31573046875,0.1273047393878922,0.6464400012001394,0.8166179964244366,-0.1613918542861938,0.1749555617570877,0.0669769495725631,walking,2026-03-04_14-06-35
1772633201598679300,6.32567919921875,0.2011546962356194,0.4546943172901868,1.0634493154793978,-0.1327133476734161,0.121141605079174,0.0666070356965065,walking,2026-03-04_14-06-35
1772633201608628200,6.335628173828125,0.2426739436471834,0.2817860203191638,1.2409908252090216,-0.1228690221905708,0.0667791813611984,0.0663525536656379,walking,2026-03-04_14-06-35
1772633201618577200,6.3455771484375,0.3181317740829661,0.1154961185745894,1.4390671734452247,-0.1334817260503769,0.0165242608636617,0.0652263015508651,walking,2026-03-04_14-06-35
1772633201628527400,6.35552734375,0.383494071233645,-0.0581881312049925,1.6293746412456034,-0.1718801856040954,-0.0377947837114334,0.0676728338003158,walking,2026-03-04_14-06-35
1772633201638476300,6.365476318359375,0.4205831907106563,-0.1839972617402672,1.7673650618314742,-0.2396283447742462,-0.075726717710495,0.0713932737708091,walking,2026-03-04_14-06-35
1772633201648425200,6.37542529296875,0.4325478788685053,-0.303775003156811,1.8293764045864345,-0.3251749873161316,-0.1067187637090683,0.0671900957822799,walking,2026-03-04_14-06-35
1772633201658374400,6.38537451171875,0.3576989375786855,-0.4170207124561071,1.7801830423504112,-0.4029180109500885,-0.1262916624546051,0.0468629896640777,walking,2026-03-04_14-06-35
1772633201668323300,6.3953232421875,0.217819780636765,-0.5448676324293017,1.484210968029499,-0.4433412849903106,-0.105959728360176,0.0143109466880559,walking,2026-03-04_14-06-35
1772633201678272300,6.405272216796875,0.0322710516707971,-0.5419891543835401,0.9692395844310522,-0.4531553089618683,-0.0660591870546341,-0.0143902068957686,walking,2026-03-04_14-06-35
1772633201688221200,6.41522119140625,-0.0333321780962869,-0.4482946793809533,0.5750052888005972,-0.4434519112110138,-0.0501619800925254,-0.0297651253640651,walking,2026-03-04_14-06-35
1772633201698170000,6.425170166015625,0.0345313978182151,-0.429831678712368,0.3268003433048725,-0.4281701743602752,-0.0512293763458728,-0.0316674225032329,walking,2026-03-04_14-06-35
1772633201708119000,6.435119140625,0.0992366923648864,-0.429391533729434,0.1468774913966655,-0.4051393270492553,-0.0546985194087028,-0.0333324968814849,walking,2026-03-04_14-06-35
1772633201718069200,6.4450693359375,0.0247570593114942,-0.4385211811244487,-0.0400309816151857,-0.3727864623069763,-0.0595545247197151,-0.0452496111392974,walking,2026-03-04_14-06-35
1772633201728018200,6.45501806640625,-0.0983440543740987,-0.4719092175938189,-0.2188707144618034,-0.3260408341884613,-0.069246307015419,-0.0675819441676139,walking,2026-03-04_14-06-35
1772633201737967400,6.46496728515625,-0.1747974717184901,-0.5717797508828342,-0.375375281381607,-0.2629968822002411,-0.0763476267457008,-0.0974399745464325,walking,2026-03-04_14-06-35
1772633201747916300,6.474916259765625,-0.2075039921971037,-0.6789269971765577,-0.4957476276904344,-0.1845517605543136,-0.0765241459012031,-0.1254675835371017,walking,2026-03-04_14-06-35
1772633201757865200,6.484865234375,-0.1909337464725598,-0.7358671741470694,-0.5843062011092901,-0.1078751012682914,-0.0673828497529029,-0.1555913835763931,walking,2026-03-04_14-06-35
1772633201767814100,6.494814208984375,-0.1315771194774657,-0.8329206041887403,-0.602965893393755,-0.0355880595743656,-0.0430830493569374,-0.1812371909618377,walking,2026-03-04_14-06-35
1772633201777763000,6.50476318359375,-0.0666177771044895,-0.9383426341250538,-0.5792787283360957,0.0202608257532119,-0.020301841199398,-0.2105623334646225,walking,2026-03-04_14-06-35
1772633201787712000,6.5147119140625,-0.0342598874004557,-1.0273669253595172,-0.462435725197196,0.0335887521505355,-0.0368342250585556,-0.2423821240663528,walking,2026-03-04_14-06-35
1772633201797662200,6.524662109375,0.0438963518064469,-1.1549081403844057,-0.2047451584756374,0.0109790451824665,-0.0640751644968986,-0.263524979352951,walking,2026-03-04_14-06-35
1772633201807611100,6.534611083984375,0.2011036967007443,-1.2706271079294382,-0.0498936194598674,-0.0309889633208513,-0.0792592987418174,-0.271781712770462,walking,2026-03-04_14-06-35
1772633201817560300,6.544560302734375,0.2965657476314343,-1.28767425045073,-0.0245312146663665,-0.0766137093305587,-0.0875356048345565,-0.2731306254863739,walking,2026-03-04_14-06-35
1772633201827509200,6.55450927734375,0.3500026109224185,-1.2864058379501104,-0.1149170035123825,-0.111305259168148,-0.1075962334871292,-0.2708964347839355,walking,2026-03-04_14-06-35
1772633201837458200,6.564458251953125,0.3985020360775291,-1.2466522119715808,-0.2976128272652626,-0.1233613938093185,-0.1139484047889709,-0.265410840511322,walking,2026-03-04_14-06-35
1772633201847407000,6.574406982421875,0.3725774308240041,-1.1367546440564096,-0.578754412201047,-0.1012468114495277,-0.1001129448413848,-0.2575397491455078,walking,2026-03-04_14-06-35
1772633201857356300,6.584356201171875,0.3145664462842047,-1.0049461269758642,-0.9037059127688408,-0.0517618134617805,-0.0749311596155166,-0.237609714269638,walking,2026-03-04_14-06-35
1772633201867305200,6.59430517578125,0.3321330095697194,-0.8670810863353311,-1.1413064621418714,0.0207324419170618,-0.0491396486759185,-0.2140718847513198,walking,2026-03-04_14-06-35
1772633201877254100,6.604254150390625,0.4260435384757816,-0.7761052226416766,-1.2686731973826884,0.1076969057321548,-0.0196731034666299,-0.1785567700862884,walking,2026-03-04_14-06-35
1772633201887204000,6.6142041015625,0.568116113808751,-0.7174357376605272,-1.328134271132946,0.2030801028013229,0.0170759260654449,-0.1293006837368011,walking,2026-03-04_14-06-35
1772633201897153000,6.624153076171875,0.7366181386448443,-0.6980515304937959,-1.273499010103941,0.2789258658885956,0.0199164524674415,-0.078060396015644,walking,2026-03-04_14-06-35
1772633201907102200,6.634102294921875,0.9318586789332328,-0.7328688691139221,-0.9680079968094824,0.3220927715301513,-0.0200594589114189,-0.0316585451364517,walking,2026-03-04_14-06-35
1772633201917051400,6.644051513671875,1.0862293756294994,-0.8503668290302157,-0.6126327164053916,0.3256795108318329,-0.0778463259339332,-0.003482034895569,walking,2026-03-04_14-06-35
