time,seconds_elapsed,acc_x,acc_y,acc_z,gyr_x,gyr_y,gyr_z,activity,session
1772632939416904700,0.07090478515625,-1.0055291144955902,-1.7308539249055086,-0.7858347356259823,-0.0177585035562515,0.286726713180542,0.4869739413261413,walking,2026-03-04_14-02-19
1772632939426853600,0.080853515625,-1.0607608801130204,-1.8172332545891403,-0.9507511570602656,0.0343270674347877,0.2977295517921448,0.4321788549423218,walking,2026-03-04_14-02-19
1772632939436802600,0.090802490234375,-1.1535125213075428,-1.7367967589579525,-0.9287456614792348,0.0786956697702407,0.3062632381916046,0.3737996816635132,walking,2026-03-04_14-02-19
1772632939446751500,0.10075146484375,-1.152856980008259,-1.6346442522116005,-0.8518366093218326,0.1030023396015167,0.2653794586658478,0.3172306716442108,walking,2026-03-04_14-02-19
1772632939456700700,0.11070068359375,-1.1675197846762837,-1.480572611527145,-0.8874491899728775,0.1328364163637161,0.2655735909938812,0.2581235766410827,walking,2026-03-04_14-02-19
1772632939466649600,0.120649658203125,-1.2471920179367064,-1.1903320665955544,-0.8789467345654964,0.1583942472934723,0.2685073018074035,0.1936984956264495,walking,2026-03-04_14-02-19
1772632939476598500,0.1305986328125,-1.209440525560826,-0.8614987561583518,-0.8727578167974949,0.1951032429933548,0.2646025419235229,0.1459244638681411,walking,2026-03-04_14-02-19
1772632939486547700,0.140547607421875,-1.0845166534274815,-0.563183333581686,-0.8725614174425601,0.2228882759809494,0.2620078027248382,0.1158826723694801,walking,2026-03-04_14-02-19
1772632939496496600,0.15049658203125,-1.118717832910642,-0.3432777231141924,-0.789986594608426,0.226618692278862,0.2296268194913864,0.0743849724531173,walking,2026-03-04_14-02-19
1772632939506445600,0.160445556640625,-1.224927798354253,-0.265024855132401,-0.8370376841187477,0.2301593571901321,0.2804886400699615,0.0517518296837806,walking,2026-03-04_14-02-19
1772632939516394500,0.17039453125,-1.347327047380805,-0.0879436563909053,-0.8180190953940153,0.2105134725570678,0.3536887168884277,0.0357478410005569,walking,2026-03-04_14-02-19
1772632939526343700,0.18034375,-1.4801479563742874,0.0098749128043651,-0.6507955660611391,0.1593352407217025,0.3900440633296966,0.0175904091447591,walking,2026-03-04_14-02-19
1772632939536292600,0.190292724609375,-1.6141702039815484,-0.0877437499046325,-0.4715753094643354,0.0953114330768585,0.3830946385860443,-0.0380384176969528,walking,2026-03-04_14-02-19
1772632939546241500,0.200241455078125,-1.8205455940075217,-0.1303422439202666,-0.4093891946643591,0.0382012799382209,0.3201609253883362,-0.1405799686908722,walking,2026-03-04_14-02-19
1772632939556190500,0.2101904296875,-2.0180957264125348,-0.045660804195702,-0.497438064995408,0.0023728185333311,0.2352669090032577,-0.2684002220630646,walking,2026-03-04_14-02-19
1772632939566139600,0.2201396484375,-2.1328899803280827,0.1923550479799509,-0.6442454137653112,-0.0148852653801441,0.1517621576786041,-0.3969139754772186,walking,2026-03-04_14-02-19
1772632939576088600,0.230088623046875,-2.139045288087428,0.507046728079021,-0.7783809124886989,-0.0206836685538291,0.08279899507761,-0.5066514015197754,walking,2026-03-04_14-02-19
1772632939586037800,0.240037841796875,-2.0054690306819976,0.8094502967521547,-0.8677367737650871,-0.0271604750305414,0.0700653567910194,-0.5902373790740967,walking,2026-03-04_14-02-19
1772632939595986700,0.249986572265625,-1.652474800195545,1.125956040535867,-0.7879168025970459,-0.0334787517786026,0.0002748658880591,-0.6187981367111206,walking,2026-03-04_14-02-19
1772632939605935600,0.259935546875,-1.128976630466059,1.1298442801460624,-0.8401952713668346,-0.0208915863186121,-0.0723940134048461,-0.6184612512588501,walking,2026-03-04_14-02-19
1772632939615884500,0.269884521484375,-0.6953635335188358,1.245135669928789,-0.9153250388920308,0.0261831078678369,-0.1046112328767776,-0.5546769499778748,walking,2026-03-04_14-02-19
1772632939625833500,0.27983349609375,-0.3356432096477598,1.3481518077671526,-0.9651233812838792,0.0927269831299781,-0.1008713543415069,-0.4451462030410766,walking,2026-03-04_14-02-19
1772632939635782700,0.28978271484375,-0.1344289287120103,1.2445263058587908,-0.9101777391314506,0.17340949177742,-0.0704311355948448,-0.308864563703537,walking,2026-03-04_14-02-19
1772632939645731600,0.299731689453125,-0.0876823020409792,1.136880754654109,-0.7098316923975944,0.2514060139656067,-0.0352558381855487,-0.1846851110458374,walking,2026-03-04_14-02-19
1772632939655680800,0.3096806640625,-0.0953840355247259,0.9533815055638551,-0.3809188869833946,0.3178194761276245,-0.0557422265410423,-0.0845884457230568,walking,2026-03-04_14-02-19
1772632939665629700,0.319629638671875,-0.0743739807218313,0.7975400787279009,-0.0183615861207246,0.3746393322944641,-0.1512250751256942,-0.0030539063736796,walking,2026-03-04_14-02-19
1772632939675578600,0.32957861328125,-0.0887535845343023,0.6952376421168446,0.2719435484796762,0.4243745803833008,-0.2750532329082489,0.0479541048407554,walking,2026-03-04_14-02-19
1772632939685527600,0.339527587890625,-0.2093937149338424,0.6067044954001903,0.5362053102850913,0.4528296589851379,-0.3995280563831329,0.0443095676600933,walking,2026-03-04_14-02-19
1772632939695476500,0.3494765625,-0.3224587339039891,0.4022092200323939,0.7263982117950916,0.4503654241561889,-0.5022082924842834,-0.0245448127388954,walking,2026-03-04_14-02-19
1772632939705425400,0.35942529296875,-0.2913943180765956,0.1853477995663881,0.6783224554121494,0.4387862682342529,-0.5455434918403625,-0.1468773782253265,walking,2026-03-04_14-02-19
1772632939715375600,0.369375732421875,-0.2396221183285117,0.1737333496183156,0.5237199227213859,0.4275068342685699,-0.5250368714332581,-0.2871975898742676,walking,2026-03-04_14-02-19
1772632939725324500,0.379324462890625,-0.0841997206222266,0.3169613785967231,0.4024333841770887,0.4135068655014038,-0.4356966316699981,-0.4060747027397156,walking,2026-03-04_14-02-19
1772632939735273500,0.3892734375,0.1733168047066778,0.5679799202084541,0.4196370324343442,0.3905919790267944,-0.3072790801525116,-0.4821944832801819,walking,2026-03-04_14-02-19
1772632939745222700,0.39922265625,0.3979293507561087,0.8393091361820697,0.6433768142372369,0.345633327960968,-0.1679339408874511,-0.5292817950248718,walking,2026-03-04_14-02-19
1772632939755171600,0.409171630859375,0.5426987639576196,1.0143947771921753,0.9482821365982294,0.2787081003189087,-0.0462678521871566,-0.5377313494682312,walking,2026-03-04_14-02-19
1772632939765120500,0.41912060546875,0.7024428242553025,1.0902017133265731,1.244844578027725,0.1838042289018631,0.0227889809757471,-0.5096858739852905,walking,2026-03-04_14-02-19
1772632939775069700,0.429069580078125,0.71296385294348,1.2109803023487329,1.5145160899221897,0.079842060804367,-0.0092913061380386,-0.4680403769016266,walking,2026-03-04_14-02-19
1772632939785018600,0.4390185546875,0.8191896735433488,1.1730591524943708,1.4807804090589285,0.0069689201191067,-0.0945303067564964,-0.4042496681213379,walking,2026-03-04_14-02-19
1772632939794967600,0.448967529296875,0.7121333934687077,1.070071656228602,1.311671796631813,-0.0387306585907936,-0.1750745475292205,-0.3563016653060913,walking,2026-03-04_14-02-19
1772632939804916700,0.458916748046875,0.3980069460369646,0.9340613035440444,1.149061898574233,-0.0792860761284828,-0.2394423484802246,-0.359050840139389,walking,2026-03-04_14-02-19
1772632939814865700,0.46886572265625,0.175343999685347,0.6218599789559841,1.0446803176015615,-0.1348437666893005,-0.2897998988628387,-0.4194969832897186,walking,2026-03-04_14-02-19
1772632939824814600,0.478814697265625,0.0821172883249819,0.3906760186269879,0.961108300423622,-0.2117867469787597,-0.3270082473754883,-0.5107438564300537,walking,2026-03-04_14-02-19
1772632939834763500,0.488763427734375,0.2130488033752888,0.3890747209101915,0.837568429994583,-0.2888520658016205,-0.3619217276573181,-0.5817542672157288,walking,2026-03-04_14-02-19
1772632939844712400,0.49871240234375,0.4954728293370455,0.5140256271809339,0.6594523352473974,-0.3562673330307007,-0.4153159558773041,-0.6110738515853882,walking,2026-03-04_14-02-19
1772632939854661600,0.50866162109375,0.683544793170318,0.6303320392251014,0.3903922332495451,-0.4163894057273865,-0.4532490074634552,-0.6151376366615295,walking,2026-03-04_14-02-19
1772632939864610600,0.518610595703125,0.6998480585217476,0.7975240043759345,0.1892956604093313,-0.4777033925056457,-0.4761053323745727,-0.6156545281410217,walking,2026-03-04_14-02-19
1772632939874559700,0.528559814453125,0.9531227084971964,0.7524804552957415,-0.1214484511077404,-0.5146426558494568,-0.4559159874916076,-0.5694631934165955,walking,2026-03-04_14-02-19
1772632939884508700,0.5385087890625,1.0783736206278205,0.7121203878566622,-0.5276724597394467,-0.5071157217025757,-0.3685424625873565,-0.4972055554389953,walking,2026-03-04_14-02-19
1772632939894458400,0.548458251953125,1.0636385544411835,0.7232593292474746,-0.8216250109314918,-0.4557108581066131,-0.2251017540693283,-0.4089216291904449,walking,2026-03-04_14-02-19
1772632939904407300,0.5584072265625,1.1470342652041463,0.6449129377633332,-0.9349959540456532,-0.3698574602603912,-0.0801576226949691,-0.2978369295597076,walking,2026-03-04_14-02-19
1772632939914356200,0.568356201171875,1.2166199156709014,0.5397250088438391,-0.780516170951724,-0.2716676592826843,0.0318803414702415,-0.1841264218091964,walking,2026-03-04_14-02-19
1772632939924305200,0.57830517578125,1.2251515241075306,0.3780617439866066,-0.3601040624916553,-0.1907416582107544,0.046639047563076,-0.0962745919823646,walking,2026-03-04_14-02-19
1772632939934254000,0.588254150390625,1.2451312860146164,0.068859601214528,0.0507493595063686,-0.1249159798026084,0.0006267323624342,-0.0329824201762676,walking,2026-03-04_14-02-19
1772632939944203300,0.598203369140625,1.2135932613261042,-0.1993891844004392,0.2879804910451173,-0.0671099349856376,-0.0518657714128494,0.0015507915522903,walking,2026-03-04_14-02-19
1772632939954152400,0.60815234375,1.0782696487966923,-0.3563108076885342,0.4809142156958579,-0.0235408842563629,-0.0841257721185684,0.0171369835734367,walking,2026-03-04_14-02-19
1772632939964101400,0.618101318359375,1.0218787032067775,-0.5091124284371733,0.6808236245781183,0.0002515306696295,-0.0793701708316803,0.0249022282660007,walking,2026-03-04_14-02-19
1772632939974050300,0.62805029296875,1.0099052837532012,-0.6399623296186328,0.9128156864196062,-0.0116801504045724,-0.0597900263965129,0.0286953747272491,walking,2026-03-04_14-02-19
1772632939983999200,0.637999267578125,1.0025913074780255,-0.7322393390387296,1.1749953812539575,-0.0566609352827072,-0.0601359717547893,0.0215932559221982,walking,2026-03-04_14-02-19
1772632939993948200,0.6479482421875,0.9366030239161104,-0.8201146063685417,1.2971493502825495,-0.1233193129301071,-0.0523625388741493,0.0022714310325682,walking,2026-03-04_14-02-19
1772632940003897000,0.65789697265625,0.917635069400072,-0.8854331739753484,1.3957885882109402,-0.199372261762619,-0.0540903992950916,-0.0097950855270028,walking,2026-03-04_14-02-19
1772632940013846300,0.66784619140625,0.8821865932695567,-0.8452417411014437,1.4344436052978038,-0.2870233952999115,-0.0967217236757278,-0.0243688188493251,walking,2026-03-04_14-02-19
1772632940023795200,0.677795166015625,0.915306772582978,-0.8624901052832603,1.3220382923454046,-0.3525022566318512,-0.1922080367803573,-0.0434213392436504,walking,2026-03-04_14-02-19
1772632940033744400,0.687744384765625,1.0717845976263285,-0.8770946769580245,0.9330471580654384,-0.3708269596099853,-0.2716171145439148,-0.0497093275189399,walking,2026-03-04_14-02-19
1772632940043693300,0.697693359375,1.064600092949718,-0.7459653743132948,0.400642409107089,-0.3385017514228821,-0.3029033839702606,-0.0448290854692459,walking,2026-03-04_14-02-19
1772632940053643300,0.707643310546875,1.001533395922929,-0.6326769949160516,-0.0951484732031822,-0.2710310816764831,-0.2719317674636841,-0.0167885050177574,walking,2026-03-04_14-02-19
1772632940063592200,0.71759228515625,0.993469697258994,-0.6591157967694103,-0.3637830432653426,-0.198416531085968,-0.2067551612854004,0.0239338912069797,walking,2026-03-04_14-02-19
1772632940073541000,0.727541015625,0.9933155296105892,-0.7973742206417024,-0.3508750463753938,-0.1444174349308014,-0.1599429994821548,0.0531743504106998,walking,2026-03-04_14-02-19
1772632940083490000,0.737489990234375,1.0507496275778858,-0.96171824901551,-0.1804875000536441,-0.1166222766041755,-0.1465499550104141,0.0699908807873725,walking,2026-03-04_14-02-19
1772632940093439200,0.747439208984375,1.0655715683303773,-1.115288223788142,-0.0544184034079313,-0.108211264014244,-0.1398783922195434,0.0775102972984314,walking,2026-03-04_14-02-19
1772632940103388400,0.757388427734375,1.0327804748408496,-1.1691891791932283,-0.0546072039783,-0.1095207408070564,-0.1405836045742035,0.0788235068321228,walking,2026-03-04_14-02-19
1772632940113337300,0.76733740234375,1.0161651478655636,-1.173557457405329,-0.1584890187352895,-0.1044685170054435,-0.1066388636827468,0.0874063223600387,walking,2026-03-04_14-02-19
1772632940123286300,0.777286376953125,0.892562002941966,-1.0812328094512225,-0.197789347988367,-0.0883366912603378,-0.0770149230957031,0.0878446772694587,walking,2026-03-04_14-02-19
1772632940133235200,0.787235107421875,0.8299577357951551,-0.9982996746987104,-0.1758072332829237,-0.0594213977456092,-0.0708643570542335,0.0837773978710174,walking,2026-03-04_14-02-19
1772632940143184100,0.79718408203125,0.7486054404933005,-0.9492781618982552,-0.2104419088125228,-0.0215989220887422,-0.0945209488272667,0.070911668241024,walking,2026-03-04_14-02-19
1772632940153133000,0.807133056640625,0.6976065632052719,-0.9167080176830292,-0.4191811053603887,0.0375124886631965,-0.0725572407245636,0.056501317769289,walking,2026-03-04_14-02-19
1772632940163082200,0.817082275390625,0.7147111350022256,-0.8248401735857128,-0.4473492152243852,0.1003548353910446,-0.036950509995222,0.0471115410327911,walking,2026-03-04_14-02-19
1772632940173031400,0.827031494140625,0.7933464264303446,-0.8329923542506993,-0.2433639352053403,0.1249004378914833,-0.0250677559524774,0.0503151267766952,walking,2026-03-04_14-02-19
1772632940182980400,0.83698046875,0.8962545738495886,-0.8870233657762407,-0.0052729719668626,0.1164409071207046,-0.0380077883601188,0.0527378059923648,walking,2026-03-04_14-02-19
1772632940192929300,0.84692919921875,1.0091684208460152,-0.8478194826349615,0.1160083058804273,0.0904782265424728,-0.0775486007332801,0.0546790547668933,walking,2026-03-04_14-02-19
1772632940202878200,0.856878173828125,1.1461965722709893,-0.7699369092702865,-0.0391039298981428,0.0817848742008209,-0.1075562983751297,0.0648251622915268,walking,2026-03-04_14-02-19
1772632940212827100,0.8668271484375,1.1734569927055387,-0.6119479490116239,-0.4206523469567299,0.1049169450998306,-0.0834645107388496,0.100676454603672,walking,2026-03-04_14-02-19
1772632940222776000,0.876776123046875,1.0615947736538949,-0.4154107930414378,-0.6843664117515087,0.1350844204425811,-0.0128127066418528,0.157112568616867,walking,2026-03-04_14-02-19
1772632940232725200,0.886725341796875,1.0092062686383725,-0.3714600076340139,-0.6737146693557501,0.1404050588607788,0.0835486724972724,0.2253260612487793,walking,2026-03-04_14-02-19
1772632940242674200,0.896674072265625,0.926873291736096,-0.4288739395961165,-0.4990671275019645,0.1214020699262619,0.1080428287386894,0.2736099660396576,walking,2026-03-04_14-02-19
1772632940252623400,0.906623291015625,0.8879632769748568,-0.5332508443936705,-0.4377905287623405,0.1031030192971229,0.1419125646352768,0.3012965023517608,walking,2026-03-04_14-02-19
1772632940262572300,0.916572265625,0.9527277178302408,-0.6242527193114161,-0.416168479540944,0.0876364484429359,0.1513143330812454,0.3347223699092865,walking,2026-03-04_14-02-19
1772632940272521200,0.926521240234375,0.9373395945623516,-0.6042617784231901,-0.5084820215791463,0.0860847756266594,0.1483085751533508,0.3624234497547149,walking,2026-03-04_14-02-19
1772632940282470100,0.93647021484375,0.6975682770214975,-0.5933084227323532,-0.7980290312886238,0.1253384500741958,0.2121330946683883,0.3624500930309295,walking,2026-03-04_14-02-19
1772632940292419000,0.946419189453125,0.5302289027566089,-0.5885910388216375,-0.8911761015415192,0.1651258766651153,0.2602987885475158,0.3478647470474243,walking,2026-03-04_14-02-19
1772632940302368300,0.9563681640625,0.4954311456197872,-0.5026755272574722,-0.7260539284020662,0.1893782168626785,0.2489774227142334,0.3477025628089905,walking,2026-03-04_14-02-19
1772632940312317200,0.966317138671875,0.4130592980118468,-0.5017416074082255,-0.5053074831962585,0.1771155148744583,0.2268377691507339,0.3504328727722168,walking,2026-03-04_14-02-19
1772632940322266400,0.976266357421875,0.234646521873027,-0.40432402022928,-0.2578781982481479,0.1178276911377906,0.1887574940919876,0.3560806512832641,walking,2026-03-04_14-02-19
1772632940332215300,0.98621533203125,-0.0465046346087008,-0.2394017535760998,-0.053706455746293,0.0138835329562425,0.1105156540870666,0.3348188102245331,walking,2026-03-04_14-02-19
1772632940342164200,0.996164306640625,-0.3116646604280919,-0.1482844355851411,-0.0418470911264419,-0.1034098044037818,0.0331801287829875,0.2860129475593567,walking,2026-03-04_14-02-19
1772632940352113200,1.006113037109375,-0.4552879723343997,-0.0868655057653784,-0.2602227155476808,-0.2044746130704879,-0.0390356853604316,0.2388039082288742,walking,2026-03-04_14-02-19
1772632940362062300,1.016062255859375,-0.6342255395323038,0.0949957668595015,-0.6453577589213848,-0.2795943915843963,-0.065802052617073,0.1949381828308105,walking,2026-03-04_14-02-19
1772632940372011300,1.02601123046875,-0.6888922916781157,0.2704118088677525,-1.0974456931054593,-0.3020492792129516,-0.0454192422330379,0.1692686676979065,walking,2026-03-04_14-02-19
1772632940381961500,1.03596142578125,-0.6436480323940516,0.4699082530349492,-1.572634516891837,-0.2565893828868866,0.0207350105047225,0.1635817587375641,walking,2026-03-04_14-02-19
1772632940391910400,1.045910400390625,-0.5738389119023457,0.6768475605539978,-1.792632189556956,-0.1671579629182815,0.1037972569465637,0.1798566579818725,walking,2026-03-04_14-02-19
1772632940401859300,1.055859375,-0.5154284431835636,0.7994527804814279,-1.7627713043004274,-0.0566642172634601,0.1811881810426712,0.2039105892181396,walking,2026-03-04_14-02-19
1772632940411808300,1.065808349609375,-0.5380580620123073,0.8672456292472779,-1.5223790783822535,0.0500972792506217,0.2362117916345596,0.2310069799423217,walking,2026-03-04_14-02-19
1772632940421757200,1.075757080078125,-0.618200141274184,0.9274237652257084,-1.0523194341778754,0.1333817839622497,0.2312487214803695,0.2554489374160766,walking,2026-03-04_14-02-19
1772632940431706000,1.0857060546875,-0.7133754294190555,0.9337897931262852,-0.578756165766716,0.1899091005325317,0.1983262747526168,0.2682458758354187,walking,2026-03-04_14-02-19
1772632940441655000,1.095655029296875,-0.9452183651134372,0.9319896118365228,-0.200018129953742,0.2196733802556991,0.1828634291887283,0.2632578015327453,walking,2026-03-04_14-02-19
1772632940451604200,1.105604248046875,-1.2428592494294046,0.913485256244242,0.1128922196865081,0.2232696413993835,0.1967543214559555,0.2357197105884552,walking,2026-03-04_14-02-19
1772632940461553400,1.115553466796875,-1.3520745341688394,0.8483496439889073,0.2105313406616449,0.2211311310529709,0.2495400458574295,0.2015098333358764,walking,2026-03-04_14-02-19
1772632940471502300,1.12550244140625,-1.599149306590855,0.8988333382964133,0.4400573046505451,0.2028408497571945,0.2991489768028259,0.1247936338186264,walking,2026-03-04_14-02-19
1772632940481451300,1.135451171875,-1.5943310926541685,0.865521435803175,0.6723936498850583,0.1830871105194091,0.2795105576515198,0.0416856929659843,walking,2026-03-04_14-02-19
1772632940491400200,1.145400146484375,-1.3754701689340174,0.8761889602899551,0.7684861259400844,0.1810826659202575,0.1969067305326461,-0.0338096469640731,walking,2026-03-04_14-02-19
1772632940501349000,1.15534912109375,-1.3142413548588752,1.0297253250539302,0.7306026777476072,0.2062013298273086,0.1249057874083519,-0.0727884694933891,walking,2026-03-04_14-02-19
1772632940511298300,1.16529833984375,-1.419562554769218,1.1776119934931395,0.6681447602689266,0.2334435582160949,0.086327239871025,-0.0901464894413948,walking,2026-03-04_14-02-19
1772632940521247200,1.175247314453125,-1.5397718194708228,1.1495213327795266,0.7880752080291509,0.2248207777738571,0.0661982744932174,-0.1143495664000511,walking,2026-03-04_14-02-19
1772632940531196200,1.185196044921875,-1.5412524134173988,1.001511914743483,0.9841986686319112,0.1770492196083068,0.0566686913371086,-0.1465005576610565,walking,2026-03-04_14-02-19
1772632940541145300,1.195145263671875,-1.4552712892711162,0.850465028707683,1.1731710884362458,0.0939090549945831,0.065234750509262,-0.1840415447950363,walking,2026-03-04_14-02-19
1772632940551094300,1.20509423828125,-1.365704415592551,0.7331766198888421,1.300918347427249,-0.0116349719464778,0.0691298246383667,-0.2073234468698501,walking,2026-03-04_14-02-19
1772632940561043200,1.215043212890625,-1.2746828130610286,0.6598214608207345,1.2961872272521258,-0.117569126188755,0.0629161372780799,-0.2159979045391082,walking,2026-03-04_14-02-19
1772632940570992000,1.2249921875,-1.2244521436665206,0.5924482987716794,1.2529144872367382,-0.219331294298172,0.0373038239777088,-0.2220871150493621,walking,2026-03-04_14-02-19
1772632940580941300,1.23494140625,-1.1644590819314122,0.484496750357747,1.1431973904550077,-0.310371458530426,-0.0586956776678562,-0.2413287162780761,walking,2026-03-04_14-02-19
1772632940590890200,1.24489013671875,-1.055671009628102,0.3347437035247683,0.7720067012816667,-0.3523216843605041,-0.1600012481212616,-0.2656199038028717,walking,2026-03-04_14-02-19
1772632940600839200,1.254839111328125,-1.0081583670206369,0.2787508904069662,0.2554004099577665,-0.3474837839603424,-0.2152562439441681,-0.2860551476478576,walking,2026-03-04_14-02-19
1772632940610788400,1.264788330078125,-0.9427925992712378,0.2886154279477894,-0.1443833364933729,-0.3160262405872345,-0.2431022524833679,-0.2947266399860382,walking,2026-03-04_14-02-19
1772632940620737300,1.2747373046875,-0.7738111203551292,0.269560452735424,-0.4392728762745857,-0.268498957157135,-0.239205777645111,-0.2870889604091644,walking,2026-03-04_14-02-19
1772632940630686200,1.284686279296875,-0.6047882865153252,0.2563185477159917,-0.6884089651405811,-0.1994398981332779,-0.1841084510087967,-0.2504315674304962,walking,2026-03-04_14-02-19
1772632940640635100,1.29463525390625,-0.5252447942011058,0.2350505726292729,-0.8053472453474998,-0.117493100464344,-0.0805184096097946,-0.1978080421686172,walking,2026-03-04_14-02-19
1772632940650584300,1.304584228515625,-0.4541144350429996,0.1398489079341292,-0.6317144334942102,-0.0425175428390502,0.0330051183700561,-0.1409975886344909,walking,2026-03-04_14-02-19
1772632940660533200,1.314533203125,-0.3599605989003553,-0.0468298479750752,-0.2109644713819027,0.0032438193447887,0.1104178801178932,-0.0982429385185241,walking,2026-03-04_14-02-19
1772632940670482200,1.324482177734375,-0.367812043053098,-0.2804170700535178,0.2866039419949054,0.0190822482109069,0.1197870671749115,-0.0807058438658714,walking,2026-03-04_14-02-19
1772632940680431000,1.33443115234375,-0.4319845458973199,-0.5074323663957416,0.7022299852222204,0.0048122312873601,0.0936324298381805,-0.0958829298615455,walking,2026-03-04_14-02-19
1772632940690380300,1.34438037109375,-0.457394516159594,-0.7258763798780739,0.973434113511443,-0.0227523799985647,0.0854184031486511,-0.1239128783345222,walking,2026-03-04_14-02-19
1772632940700329200,1.3543291015625,-0.4474165083069354,-0.8151366718254983,1.1657470759153366,-0.0634438842535018,0.0714168325066566,-0.1645806729793548,walking,2026-03-04_14-02-19
1772632940710278400,1.3642783203125,-0.3666588178973645,-0.8603340962931513,1.2521458409518005,-0.1104268282651901,0.0254270322620868,-0.210551232099533,walking,2026-03-04_14-02-19
1772632940720228000,1.37422802734375,-0.3772128720723092,-0.7443491712883115,1.276632047432661,-0.1538430154323578,-0.0275083556771278,-0.275002121925354,walking,2026-03-04_14-02-19
1772632940730177300,1.38417724609375,-0.2705342662036418,-0.5871471236236393,1.1889981876432896,-0.182637333869934,-0.1145115718245506,-0.3194032609462738,walking,2026-03-04_14-02-19
1772632940740126200,1.394126220703125,-0.151411846890673,-0.3951236456856131,0.914106310752034,-0.179541677236557,-0.193354994058609,-0.330444723367691,walking,2026-03-04_14-02-19
1772632940750075400,1.404075439453125,-0.2027892021022737,-0.0715616997800767,0.5777244846314191,-0.1583861261606216,-0.220890462398529,-0.3220135867595672,walking,2026-03-04_14-02-19
1772632940760024300,1.4140244140625,-0.2238101436253637,0.1633086939767003,0.3349222749620676,-0.1368621885776519,-0.2047828733921051,-0.2873131334781647,walking,2026-03-04_14-02-19
1772632940769973200,1.42397314453125,-0.1804727408759295,0.2815617100439965,0.1727396624058484,-0.1206354424357414,-0.1767671704292297,-0.2396751195192337,walking,2026-03-04_14-02-19
1772632940779922200,1.433922119140625,-0.1502215411275625,0.3341102279268205,0.07560732190907,-0.105674609541893,-0.1172047704458236,-0.1785342693328857,walking,2026-03-04_14-02-19
1772632940789871000,1.44387109375,-0.1052860555317252,0.3470255313403904,0.1020914242088794,-0.1088714972138404,-0.0443599186837673,-0.1034201011061668,walking,2026-03-04_14-02-19
1772632940799820300,1.4538203125,-0.0287141994394361,0.2479335812084376,0.2757452788501978,-0.133155807852745,0.0117579475045204,-0.0247077103704214,walking,2026-03-04_14-02-19
1772632940809769200,1.463769287109375,0.0754188501322642,0.0771120273835957,0.4792302081316709,-0.1641179025173187,0.0319140590727329,0.0450482480227947,walking,2026-03-04_14-02-19
1772632940819718100,1.47371826171875,0.1636512603366747,-0.0833136585026979,0.6263076060146093,-0.1889747828245163,0.0150519888848066,0.1068655475974083,walking,2026-03-04_14-02-19
1772632940829667300,1.483667236328125,0.213613780314289,-0.2574909524962306,0.648171647298336,-0.1976603716611862,-0.0098781399428844,0.1584283113479614,walking,2026-03-04_14-02-19
1772632940839616300,1.4936162109375,0.2105876008935272,-0.3969841788604855,0.6236404326319694,-0.192181184887886,-0.0367819257080554,0.1929109096527099,walking,2026-03-04_14-02-19
1772632940849565200,1.503565185546875,0.2497849446961656,-0.5878595096766949,0.4944944127589464,-0.1697865277528762,-0.0620611496269702,0.2098288983106613,walking,2026-03-04_14-02-19
1772632940859514000,1.51351416015625,0.2660809035239741,-0.7168338262446224,0.3238677969843149,-0.1346237361431121,-0.0498729273676872,0.2176101207733154,walking,2026-03-04_14-02-19
1772632940869463300,1.52346337890625,0.2233079662568867,-0.7452214240781962,0.2235012968719005,-0.1023300215601921,-0.0348512232303619,0.230537474155426,walking,2026-03-04_14-02-19
1772632940879412200,1.533412109375,0.285713788222149,-0.782028621341288,0.1149848080515861,-0.070470355451107,-0.0010405289940536,0.2472535967826843,walking,2026-03-04_14-02-19
1772632940889361200,1.543361083984375,0.3258755566101521,-0.798192697417736,0.0217518130809068,-0.0373144708573818,0.0330658927559852,0.2732445299625397,walking,2026-03-04_14-02-19
1772632940899309800,1.553309814453125,0.1894108842868357,-0.8704303967632353,-0.0427957701534032,-0.0233264863491058,0.1003229692578315,0.2724658250808716,walking,2026-03-04_14-02-19
1772632940909258800,1.5632587890625,0.1033132210887968,-0.8629625451005994,0.0206517428845167,-0.0275345742702484,0.1346698999404907,0.2616749703884125,walking,2026-03-04_14-02-19
1772632940919208000,1.5732080078125,0.0727126599134877,-0.944348742672056,0.0435094713807105,-0.0552658028900623,0.1695541143417358,0.2363096922636032,walking,2026-03-04_14-02-19
1772632940929157000,1.5831572265625,-0.0261032497560605,-0.8619809867173432,0.1007224739432334,-0.0971298813819885,0.1546465903520584,0.2091713994741439,walking,2026-03-04_14-02-19
1772632940939106000,1.59310595703125,-0.0425415396640077,-0.7978544053740799,-0.013206103053689,-0.1334085315465927,0.1305034309625625,0.1906424611806869,walking,2026-03-04_14-02-19
1772632940949055000,1.603054931640625,-0.0374544821906834,-0.690594054094702,-0.2379015781462192,-0.1474100798368454,0.0746921673417091,0.1842206418514251,walking,2026-03-04_14-02-19
1772632940959004000,1.61300390625,-0.0462015965415164,-0.5974344166211784,-0.5956938565641642,-0.1322415173053741,0.0098849423229694,0.1942200064659118,walking,2026-03-04_14-02-19
1772632940968952800,1.622952880859375,-0.0355369215989485,-0.4807787527479231,-1.0115414335876702,-0.0848895758390426,-0.0460058525204658,0.2214903086423874,walking,2026-03-04_14-02-19
1772632940978901800,1.63290185546875,-0.0441578157542273,-0.4204309592910111,-1.4738818817168473,-0.004637879319489,-0.0473606064915657,0.2756840288639068,walking,2026-03-04_14-02-19
1772632940988851000,1.642850830078125,-0.1281487524639815,-0.4094283576309681,-1.7713403952032327,0.0889119729399681,0.0066989846527576,0.3431428074836731,walking,2026-03-04_14-02-19
1772632940998800100,1.652800048828125,-0.2248901208817958,-0.464668014293909,-1.8357769192785025,0.17375148832798,0.1301700472831726,0.4153706431388855,walking,2026-03-04_14-02-19
1772632941008749000,1.6627490234375,-0.3077222064126282,-0.6353435837768018,-1.7297037319570778,0.2393355816602707,0.2974884212017059,0.4845493137836456,walking,2026-03-04_14-02-19
1772632941018698000,1.672697998046875,-0.3378647946873679,-0.8486480424135923,-1.338837451454997,0.2678311467170715,0.4006116092205047,0.5455425977706909,walking,2026-03-04_14-02-19
1772632941028647000,1.68264697265625,-0.2874495990388095,-1.0704631397642197,-0.8170575568854809,0.2667984068393707,0.4091705083847046,0.5911977291107178,walking,2026-03-04_14-02-19
1772632941038595800,1.692595947265625,-0.2528959528561681,-1.273437050783634,-0.425821858549118,0.2469173669815063,0.3517764508724212,0.6043910384178162,walking,2026-03-04_14-02-19
1772632941048544800,1.702544677734375,-0.3269876095052808,-1.354824855790287,-0.2245019983470439,0.2292452305555343,0.2789313495159149,0.5989890098571777,walking,2026-03-04_14-02-19
1772632941058494000,1.712493896484375,-0.4350812698036432,-1.3682986698694526,-0.1442933201223611,0.1962824761867523,0.1970849484205246,0.5656049251556396,walking,2026-03-04_14-02-19
1772632941068443000,1.72244287109375,-0.6231429314386099,-1.3262677466087045,-0.2103811185359954,0.165443480014801,0.1299018114805221,0.4883099794387817,walking,2026-03-04_14-02-19
1772632941078393000,1.73239306640625,-0.8582786981333047,-1.1451552465245127,-0.3412468018084764,0.1418702453374862,0.0784910842776298,0.3624039888381958,walking,2026-03-04_14-02-19
1772632941088342000,1.742342041015625,-0.7223667643219233,-1.0387776694290338,-0.5352835192650556,0.1281843781471252,0.0653590857982635,0.2618244290351867,walking,2026-03-04_14-02-19
1772632941098291000,1.752291015625,-0.5544513802673667,-0.6657981971427798,-0.6170341662347316,0.103422574698925,0.0438316836953163,0.1951463520526886,walking,2026-03-04_14-02-19
1772632941108240000,1.762239990234375,-0.4203623510342091,-0.2262915121123194,-0.6265449219018221,0.0593757554888725,0.0365802906453609,0.1584339588880539,walking,2026-03-04_14-02-19
1772632941118188800,1.772188720703125,-0.4149892066285014,0.0710747930459678,-0.6611614772528409,-0.0297115091234445,0.0918451473116874,0.1190961450338363,walking,2026-03-04_14-02-19
1772632941128137700,1.7821376953125,-0.4701598897084593,0.4127636395335197,-0.72697922655344,-0.1328888982534408,0.1799188405275344,0.0768480077385902,walking,2026-03-04_14-02-19
1772632941138087000,1.7920869140625,-0.3169586751829832,0.7377581024602056,-0.7847972092717885,-0.2143017202615738,0.2421989887952804,0.0622059442102909,walking,2026-03-04_14-02-19
1772632941148036000,1.8020361328125,0.0083328709941357,0.9549848491072654,-0.8912047431141138,-0.254329115152359,0.2453090697526931,0.0883418917655944,walking,2026-03-04_14-02-19
1772632941157985000,1.811985107421875,0.1978373518485575,1.181315524186194,-0.9484200837641954,-0.2484565824270248,0.1586463451385498,0.1402969807386398,walking,2026-03-04_14-02-19
1772632941167934000,1.821933837890625,0.2305816105216741,1.3328959325768053,-1.028134840992093,-0.2018252462148666,0.0129720401018857,0.2011028826236724,walking,2026-03-04_14-02-19
1772632941177883000,1.8318828125,0.1621964949510991,1.3091589370280503,-1.1992851883798836,-0.1097219437360763,-0.0903474241495132,0.2517564594745636,walking,2026-03-04_14-02-19
1772632941187831800,1.841831787109375,-0.0418530824758112,1.155784046436101,-1.3303987089335918,-0.01448355615139,-0.0883097127079963,0.2675628662109375,walking,2026-03-04_14-02-19
1772632941197780700,1.85178076171875,-0.3953669529221951,0.9936115168824792,-1.2834452345788478,0.0694978982210159,0.016464902088046,0.2487130016088485,walking,2026-03-04_14-02-19
1772632941207730200,1.861730224609375,-0.6088325204048305,0.8434044426716863,-1.0314683693289757,0.1355539113283157,0.1846933960914611,0.2057652771472931,walking,2026-03-04_14-02-19
1772632941217679000,1.87167919921875,-0.6237973767593502,0.7542423504017293,-0.6162532449901104,0.1856383830308914,0.3529444336891174,0.1630841493606567,walking,2026-03-04_14-02-19
1772632941227628000,1.8816279296875,-0.4552141764458268,0.7156887478627264,-0.007152209842205,0.2153250873088836,0.4657639563083648,0.1223683506250381,walking,2026-03-04_14-02-19
1772632941237577000,1.891576904296875,-0.1664310637809336,0.8288723517112433,0.689748104789853,0.22291961312294,0.4747427999973297,0.1067925840616226,walking,2026-03-04_14-02-19
1772632941247526000,1.90152587890625,0.0525458875343203,0.9165867293909192,1.2263000365555283,0.2110562324523925,0.4025732278823852,0.112353004515171,walking,2026-03-04_14-02-19
1772632941257474800,1.911474853515625,0.1014576563499867,0.9870233706638216,1.5876298414498566,0.1803451925516128,0.2749518752098083,0.0991125628352165,walking,2026-03-04_14-02-19
1772632941267423700,1.921423828125,0.0713313981555402,1.065662607614696,1.8478426201254128,0.1197955533862114,0.1115051060914993,0.0685907453298568,walking,2026-03-04_14-02-19
1772632941277373000,1.931373046875,0.1040663044784218,1.1241678419448435,1.860522653478384,0.0657102093100547,-0.0438871495425701,0.048294261097908,walking,2026-03-04_14-02-19
1772632941287322000,1.941322021484375,0.1547160030025988,1.1985431378409266,1.644161291489005,0.0157899279147386,-0.15857695043087,0.0483767017722129,walking,2026-03-04_14-02-19
1772632941297271000,1.95127099609375,0.1566288508865982,1.3219066287897527,1.3898346482425927,-0.0237321816384792,-0.2289744168519973,0.058541189879179,walking,2026-03-04_14-02-19
1772632941307220000,1.961219970703125,0.1353343531191349,1.3568721437089144,1.1143722779870031,-0.0637318193912506,-0.2615218758583069,0.0822855532169342,walking,2026-03-04_14-02-19
1772632941317169000,1.9711689453125,-0.0315017112661153,1.2830546278260648,0.9115607179224492,-0.1167234033346176,-0.2582504451274872,0.092078261077404,walking,2026-03-04_14-02-19
1772632941327117800,1.981117919921875,-0.3118259154044091,1.1609370452851056,0.7769786444753408,-0.1850292682647705,-0.2363713979721069,0.0691845044493675,walking,2026-03-04_14-02-19
1772632941337067000,1.99106689453125,-0.5515612848490477,1.0222551353037357,0.6476333026379346,-0.2660029530525207,-0.2167638689279556,0.0194017682224512,walking,2026-03-04_14-02-19
1772632941347016000,2.001015869140625,-0.6993386476948857,0.9427088665105402,0.4451362153500318,-0.3359650075435638,-0.2048610001802444,-0.044853638857603,walking,2026-03-04_14-02-19
1772632941356964900,2.01096484375,-0.7118961506467312,0.936289939378947,0.163307232671976,-0.3757313191890716,-0.1965884119272232,-0.1059031412005424,walking,2026-03-04_14-02-19
1772632941366914000,2.0209140625,-0.5966841097105294,0.9686533089756963,-0.2150140390336513,-0.3627574741840362,-0.195853590965271,-0.1486057490110397,walking,2026-03-04_14-02-19
1772632941376863000,2.030863037109375,-0.3817302764315158,1.046890540996939,-0.5750310077637434,-0.2964972257614136,-0.1686238348484039,-0.1678747832775116,walking,2026-03-04_14-02-19
1772632941386812000,2.04081201171875,-0.2103827259711921,1.119246752155572,-0.7390595404475927,-0.2054399847984314,-0.1205092445015907,-0.1555949002504348,walking,2026-03-04_14-02-19
1772632941396760800,2.0507607421875,-0.0651115007273852,1.1331732784382995,-0.5987158347338438,-0.1298610717058181,-0.0653325393795967,-0.1150512173771858,walking,2026-03-04_14-02-19
1772632941406710000,2.0607099609375,0.17000227333121,0.9981285559155046,-0.373700626167655,-0.0716848820447921,-0.0066258781589567,-0.0450287461280822,walking,2026-03-04_14-02-19
1772632941416659000,2.070658935546875,0.2619664174098521,0.851354671023786,0.0059019175201654,-0.0467688776552677,0.0592399500310421,0.0256627332419157,walking,2026-03-04_14-02-19
1772632941426609200,2.080609130859375,0.2668688024986535,0.643018502318859,0.4593570484042167,-0.0561828389763832,0.0957000851631164,0.0812257528305053,walking,2026-03-04_14-02-19
1772632941436558000,2.09055810546875,0.2617961023442447,0.3042809068523347,0.864282833918929,-0.0855436623096466,0.1033710539340972,0.1167874708771705,walking,2026-03-04_14-02-19
1772632941446507000,2.100507080078125,0.1551942880388349,0.0268909295350313,1.167747309821844,-0.125315859913826,0.0873250365257263,0.1211587488651275,walking,2026-03-04_14-02-19
1772632941456456000,2.1104560546875,0.0324864114545285,-0.2235081650041043,1.3225368895173073,-0.1634547114372253,0.0616071596741676,0.0992457270622253,walking,2026-03-04_14-02-19
1772632941466404900,2.12040478515625,0.0087627868440002,-0.4473047915607691,1.3545032226204872,-0.1956599652767181,0.0286503173410892,0.0613717548549175,walking,2026-03-04_14-02-19
1772632941476353800,2.130353759765625,0.0339700010757893,-0.5884777877055108,1.3552221845448016,-0.2194180190563202,-0.004929213784635,0.0114446720108389,walking,2026-03-04_14-02-19
1772632941486303000,2.140302978515625,0.0652558045689016,-0.6521430351473391,1.342606448599696,-0.2420809268951416,-0.0576666072010993,-0.034276682883501,walking,2026-03-04_14-02-19
1772632941496252000,2.150251953125,0.0892482361834496,-0.6918348479360341,1.2548276273816823,-0.2599216997623443,-0.1008801236748695,-0.0748851001262664,walking,2026-03-04_14-02-19
1772632941506201000,2.160201171875,0.0621861147999763,-0.6716510148242115,1.09304248971045,-0.2760969996452331,-0.1300649642944336,-0.1179169192910194,walking,2026-03-04_14-02-19
1772632941516150000,2.17014990234375,0.1046111519448459,-0.6588197364322841,0.9278636179476976,-0.2848420143127441,-0.1519361734390258,-0.1580201238393783,walking,2026-03-04_14-02-19
1772632941526099000,2.180098876953125,0.1547512204464524,-0.6240643571324647,0.7298223410248756,-0.2938637137413025,-0.1659681797027588,-0.1887189745903015,walking,2026-03-04_14-02-19
1772632941536047900,2.1900478515625,0.1488447728816419,-0.5717077085599302,0.5284574726372957,-0.3020934164524078,-0.1732929348945617,-0.2188315987586975,walking,2026-03-04_14-02-19
1772632941545996800,2.199996826171875,0.1553939753293991,-0.5396200871646404,0.3053179948151111,-0.3137688934803009,-0.1675063669681549,-0.2371767908334732,walking,2026-03-04_14-02-19
1772632941555946000,2.209946044921875,0.1718529426991939,-0.488449725767225,0.0763286219209432,-0.3157082200050354,-0.1498951613903045,-0.2460272759199142,walking,2026-03-04_14-02-19
1772632941565895000,2.21989501953125,0.1991965844377875,-0.4007550757013261,-0.2372416529327631,-0.2938429117202759,-0.1040219962596893,-0.2407712787389755,walking,2026-03-04_14-02-19
1772632941575844000,2.229843994140625,0.242346282595396,-0.3444251395836472,-0.4801525836735963,-0.2405471950769424,-0.0332181304693222,-0.2176135033369064,walking,2026-03-04_14-02-19
1772632941585793000,2.23979296875,0.3013426614433527,-0.3339493382766842,-0.5967255376994609,-0.1673772931098938,0.0310931932181119,-0.1756817251443863,walking,2026-03-04_14-02-19
1772632941595742000,2.249741943359375,0.3951180196624249,-0.3889464183554053,-0.5894184295564889,-0.0796471610665321,0.0775379240512847,-0.1306428760290146,walking,2026-03-04_14-02-19
1772632941605691000,2.25969091796875,0.4689855121668428,-0.5164654215484857,-0.4277636402666568,0.0115807931870222,0.0771233960986137,-0.0948514193296432,walking,2026-03-04_14-02-19
1772632941615639800,2.269639892578125,0.5071993613574654,-0.6990992859810591,-0.1491664791166782,0.0847956165671348,0.0290762390941381,-0.0723541006445884,walking,2026-03-04_14-02-19
1772632941625589000,2.279589111328125,0.4777142506107688,-0.8696640885658562,0.1107078613847494,0.1296827793121338,-0.0435489900410175,-0.0682385116815567,walking,2026-03-04_14-02-19
1772632941635538000,2.289537841796875,0.3585590980719775,-1.0351412126228212,0.3032002720087766,0.1362083107233047,-0.0928670018911361,-0.0879837200045585,walking,2026-03-04_14-02-19
1772632941645486800,2.29948681640625,0.2592264710519463,-1.095261188673228,0.3878665141642093,0.1125864684581756,-0.1607631146907806,-0.1038591489195823,walking,2026-03-04_14-02-19
1772632941655436000,2.30943603515625,0.1769706510391086,-1.1550973793461918,0.2861696422308683,0.0835510864853859,-0.2046104669570922,-0.1239319294691085,walking,2026-03-04_14-02-19
1772632941665385000,2.319385009765625,0.0414190749727189,-1.2458622306376694,0.0406698640406131,0.0591821409761905,-0.2115364372730255,-0.1660443246364593,walking,2026-03-04_14-02-19
1772632941675334000,2.329333984375,-0.0672338997088372,-1.2648999624542892,-0.2670183670371771,0.0545261390507221,-0.1926330476999282,-0.2125234156847,walking,2026-03-04_14-02-19
1772632941685283000,2.339282958984375,-0.0271651798991486,-1.2334974007137118,-0.5771832173615694,0.0740065276622772,-0.137959137558937,-0.2451817244291305,walking,2026-03-04_14-02-19
1772632941695232000,2.34923193359375,0.0909512772416695,-1.106133880343288,-0.748842683315277,0.1183481588959693,-0.0774377286434173,-0.2554308772087097,walking,2026-03-04_14-02-19
1772632941705181000,2.359180908203125,0.2731321737423539,-0.9850377498045564,-0.7334785254448651,0.1750423312187194,-0.0532375201582908,-0.2437714338302612,walking,2026-03-04_14-02-19
1772632941715129900,2.3691298828125,0.4855865914210677,-0.8698841610573231,-0.567732082927227,0.2271500080823898,-0.057828813791275,-0.2136987596750259,walking,2026-03-04_14-02-19
1772632941725078800,2.379078857421875,0.6430123648390174,-0.8169339305058121,-0.3150356712311506,0.2591841518878937,-0.0765850618481636,-0.1801314949989318,walking,2026-03-04_14-02-19
1772632941735028000,2.389028076171875,0.7363677440803498,-0.8114837022759019,-0.0590934094816446,0.2661003768444061,-0.089810587465763,-0.1420312523841858,walking,2026-03-04_14-02-19
1772632941744977000,2.398976806640625,0.8254759872712194,-0.870294787684828,0.1241483577162027,0.2469097375869751,-0.1149044558405876,-0.1113233193755149,walking,2026-03-04_14-02-19
1772632941754926000,2.408926025390625,0.8468675887376069,-0.9721768069267273,0.1792091506808996,0.2211945205926895,-0.1353833675384521,-0.0890198796987533,walking,2026-03-04_14-02-19
1772632941764875000,2.418875,0.8574017691683024,-0.9924481721915304,0.154657477748394,0.1899795085191726,-0.1569012850522995,-0.0735208541154861,walking,2026-03-04_14-02-19
1772632941774824000,2.428823974609375,0.8520797704279423,-1.0016416786029934,0.0952414121836423,0.1537397354841232,-0.193926140666008,-0.0634402558207511,walking,2026-03-04_14-02-19
1772632941784774000,2.43877392578125,0.7387343270812183,-0.9778063372462988,-0.1397071613758802,0.1290879398584365,-0.2277681231498718,-0.0577863752841949,walking,2026-03-04_14-02-19
1772632941794723000,2.44872314453125,0.5181406612843275,-0.8961606119558214,-0.4588841701954603,0.1137004718184471,-0.2486417144536972,-0.0692906975746154,walking,2026-03-04_14-02-19
1772632941804672000,2.458672119140625,0.279745162141323,-0.788527481841296,-0.75351827391088,0.0990378856658935,-0.2562369108200073,-0.0953875333070755,walking,2026-03-04_14-02-19
1772632941814621000,2.468620849609375,0.1687892077470198,-0.6869556975923479,-1.119154836088419,0.0961901694536209,-0.22625532746315,-0.1185032427310943,walking,2026-03-04_14-02-19
1772632941824569900,2.47856982421875,0.1274708166697993,-0.5382739332526922,-1.4458715927630663,0.0985873937606811,-0.1725267916917801,-0.1280327439308166,walking,2026-03-04_14-02-19
1772632941834518800,2.488518798828125,0.1165097525965422,-0.3475226672075688,-1.559241951355338,0.0891504809260368,-0.1308267563581466,-0.1197380721569061,walking,2026-03-04_14-02-19
1772632941844468000,2.498468017578125,0.144533083694987,-0.1943497289285063,-1.5369593923985958,0.0623388513922691,-0.1168741285800933,-0.0975855067372322,walking,2026-03-04_14-02-19
1772632941854417000,2.5084169921875,0.0568567364707589,-0.0385670465424656,-1.4749492186874151,0.0199029799550771,-0.1209058910608291,-0.0727778896689415,walking,2026-03-04_14-02-19
1772632941864366000,2.518365966796875,-0.1023415630450472,0.0631532062664628,-1.4485048638761042,-0.0304503440856933,-0.1182519420981407,-0.0580935552716255,walking,2026-03-04_14-02-19
1772632941874315000,2.52831494140625,-0.2021257332248613,0.1700526152789592,-1.5138491504460572,-0.0668725296854972,-0.0967567712068557,-0.058550551533699,walking,2026-03-04_14-02-19
1772632941884264000,2.538263916015625,-0.2771038903849199,0.3382553649075329,-1.5752783093988894,-0.0848612785339355,-0.0885962098836898,-0.0634091943502426,walking,2026-03-04_14-02-19
1772632941894212900,2.548212890625,-0.3698382516510784,0.5603120159290731,-1.670526735845208,-0.0696112215518951,-0.065443217754364,-0.0663692951202392,walking,2026-03-04_14-02-19
1772632941904162000,2.558162109375,-0.4628492744341492,0.8513982179045677,-1.7430109572976826,-0.026898730546236,-0.022786283865571,-0.0756483227014541,walking,2026-03-04_14-02-19
1772632941914111200,2.568111328125,-0.6185014623083174,1.0874908469326794,-1.768283345720172,0.0522264465689659,0.0526115335524082,-0.0931117385625839,walking,2026-03-04_14-02-19
1772632941924060200,2.57806005859375,-0.673960022418946,1.3348616796918211,-1.664413221400976,0.1608279198408126,0.1543511748313903,-0.1071435809135437,walking,2026-03-04_14-02-19
1772632941934009000,2.588009033203125,-0.5307713756028563,1.5485587909080087,-1.3329074768841265,0.2768091261386871,0.2286349833011627,-0.0989026948809623,walking,2026-03-04_14-02-19
1772632941943958000,2.5979580078125,-0.2193091424116864,1.6611046813748775,-0.9110153589993716,0.3929212689399719,0.2564336955547333,-0.0616271421313285,walking,2026-03-04_14-02-19
1772632941953907000,2.607906982421875,0.0195989458959549,1.715946278630942,-0.4342284523665904,0.4972822964191437,0.2583602368831634,0.0010042819194495,walking,2026-03-04_14-02-19
1772632941963856000,2.61785595703125,0.0704230146063491,1.7093289063178,0.1091629700303077,0.5660436153411865,0.2357608079910278,0.0622992478311061,walking,2026-03-04_14-02-19
1772632941973805000,2.62780517578125,-0.0329013123983517,1.5725358788229524,0.6208113466858863,0.594702422618866,0.1958956867456436,0.0970955789089202,walking,2026-03-04_14-02-19
1772632941983754200,2.637754150390625,-0.2406207374444231,1.3748761485636234,1.0465320829480886,0.5776249170303345,0.1708642989397049,0.0911534056067466,walking,2026-03-04_14-02-19
1772632941993703200,2.647703125,-0.4463947275111452,1.1785421139501036,1.394758076119423,0.5197855830192566,0.1639129072427749,0.05628277733922,walking,2026-03-04_14-02-19
1772632942003652000,2.657652099609375,-0.638516514724493,1.035773957568407,1.5447715274542568,0.429522305727005,0.1846210956573486,0.0186489690095186,walking,2026-03-04_14-02-19
1772632942013601000,2.66760107421875,-0.9434059088639914,0.967846376506984,1.7229209399491547,0.3019542396068573,0.2048632502555847,-0.0605814047157764,walking,2026-03-04_14-02-19
1772632942023550000,2.677550048828125,-1.0742869358360767,0.8404206045553088,1.8324077351063488,0.1617005169391632,0.2155414521694183,-0.1578674018383026,walking,2026-03-04_14-02-19
1772632942033499000,2.687498779296875,-1.0379723443955182,0.7922532243661582,1.9102479306340217,0.0046640317887067,0.2003276050090789,-0.2611716985702514,walking,2026-03-04_14-02-19
1772632942043448000,2.697447998046875,-0.9069951635725796,0.7643702150538564,1.904099929398298,-0.1491268128156662,0.1309035122394561,-0.3409782350063324,walking,2026-03-04_14-02-19
1772632942053397200,2.707397216796875,-0.5932260051459074,0.7960806736998259,1.6147814677476882,-0.2616376280784607,0.0109669920057058,-0.3835664391517639,walking,2026-03-04_14-02-19
1772632942063346200,2.71734619140625,-0.3268266467899084,0.9749529936417936,1.0309691876351832,-0.3078875839710235,-0.080440305173397,-0.363607794046402,walking,2026-03-04_14-02-19
1772632942073295000,2.727295166015625,-0.2527282681390643,1.1589167915038765,0.4097504291921853,-0.3022637665271759,-0.1180643811821937,-0.3020440340042114,walking,2026-03-04_14-02-19
1772632942083244000,2.737244140625,-0.2873696656703949,1.139468433059752,-0.0120990185946226,-0.2764635682106018,-0.1222756505012512,-0.2266483455896377,walking,2026-03-04_14-02-19
1772632942093193000,2.74719287109375,-0.3820212222021072,0.963333282996714,-0.2340466562837362,-0.2501464784145355,-0.0992848500609397,-0.1696833372116089,walking,2026-03-04_14-02-19
1772632942103143000,2.757142822265625,-0.4761983661551028,0.7625504522807895,-0.3254191180795431,-0.2318291664123535,-0.0397149547934532,-0.1307165920734405,walking,2026-03-04_14-02-19
1772632942113091800,2.767091796875,-0.5621105897836387,0.53355011960119,-0.333496626073122,-0.2231672257184982,0.0346282534301281,-0.1025169119238853,walking,2026-03-04_14-02-19
1772632942123041300,2.777041259765625,-0.6178417562905698,0.2980196545004844,-0.2503425420463085,-0.2191997766494751,0.1122081652283668,-0.0825444757938385,walking,2026-03-04_14-02-19
1772632942132990200,2.786990234375,-0.6188193691510707,0.1045094451360404,-0.0968149451106786,-0.2082800269126892,0.191178873181343,-0.0639388263225555,walking,2026-03-04_14-02-19
1772632942142939100,2.796939208984375,-0.5511603758979589,-0.0319480667941272,0.138674311196804,-0.1833006590604782,0.250905305147171,-0.0461181886494159,walking,2026-03-04_14-02-19
1772632942152888000,2.80688818359375,-0.4563317092336714,-0.1846307373382151,0.4779781622439623,-0.1549715548753738,0.258788526058197,-0.0268464908003807,walking,2026-03-04_14-02-19
1772632942162837000,2.8168369140625,-0.3590293459322303,-0.329023426181823,0.8324667229413986,-0.1339778304100036,0.229644775390625,-0.0027468437328934,walking,2026-03-04_14-02-19
1772632942172786000,2.826785888671875,-0.2854774952482432,-0.4310666273348033,1.180142096492648,-0.1214798763394355,0.1538999527692794,0.0156041998416185,walking,2026-03-04_14-02-19
1772632942182734800,2.83673486328125,-0.2289421727515757,-0.4809194763928651,1.3852262776643036,-0.1158501803874969,0.009590501897037,0.0130505245178937,walking,2026-03-04_14-02-19
1772632942192684300,2.846684326171875,-0.1771185350771993,-0.5098215996198355,1.3291776427060364,-0.0908795893192291,-0.148027092218399,-0.0084987096488475,walking,2026-03-04_14-02-19
1772632942202633200,2.85663330078125,-0.1938878105051815,-0.4852209729790687,1.0700661032706498,-0.0573202818632125,-0.2578195631504059,-0.0245744884014129,walking,2026-03-04_14-02-19
1772632942212582100,2.86658203125,-0.4127620320983231,-0.340134164391458,0.8970990618497132,-0.0419671609997749,-0.3071650266647339,-0.0381358377635479,walking,2026-03-04_14-02-19
1772632942222531000,2.876531005859375,-0.5747344359699637,-0.3084751436717808,0.7919739690333605,-0.0719272121787071,-0.3006113767623901,-0.059945248067379,walking,2026-03-04_14-02-19
1772632942232480000,2.88647998046875,-0.60040853706114,-0.3381066040866077,0.7127098781824112,-0.1349754184484481,-0.2483159303665161,-0.0847597867250442,walking,2026-03-04_14-02-19
1772632942242429000,2.896428955078125,-0.5940642826009541,-0.301199307449907,0.5948661735683679,-0.2089279741048813,-0.1634682267904281,-0.1051098257303237,walking,2026-03-04_14-02-19
1772632942252378000,2.906378173828125,-0.547660404952988,-0.2036225841864943,0.4359592216819524,-0.2746419906616211,-0.0758600682020187,-0.115337960422039,walking,2026-03-04_14-02-19
1772632942262327000,2.9163271484375,-0.4277420129567384,-0.1062159567929804,0.3172457484960556,-0.3155017495155334,-0.0097941178828477,-0.1035124063491821,walking,2026-03-04_14-02-19
1772632942272276200,2.926276123046875,-0.3130194360379129,-0.0217712484337389,0.2625567114531993,-0.3281408548355102,0.029938381165266,-0.0720847100019455,walking,2026-03-04_14-02-19
1772632942282225200,2.93622509765625,-0.1263408262591809,0.0278555367834866,0.2200093631029128,-0.3095097839832306,0.0280538275837898,-0.0184727162122726,walking,2026-03-04_14-02-19
1772632942292174000,2.946174072265625,0.036725145002827,0.0306426832839846,0.1058358714342117,-0.2546063363552093,-0.0006132351700216,0.0468050874769687,walking,2026-03-04_14-02-19
1772632942302123000,2.956123046875,0.1344434686940163,0.042372868566215,0.0200409175097942,-0.1699312776327133,-0.0199272390455007,0.1143613010644912,walking,2026-03-04_14-02-19
1772632942312072000,2.966072021484375,0.1453342074774205,0.0126570908688008,0.0661801528722047,-0.0930870920419693,-0.0150738945230841,0.1856855601072311,walking,2026-03-04_14-02-19
1772632942322021000,2.976021240234375,0.05605725665614,-0.1195497778795659,0.2830336822926998,-0.050998106598854,-0.0078892540186643,0.242476150393486,walking,2026-03-04_14-02-19
1772632942331970000,2.985969970703125,-0.0259464517591521,-0.3387617069944739,0.4668611404240131,-0.0360630974173545,0.0063368203118443,0.2685359716415405,walking,2026-03-04_14-02-19
1772632942341919000,2.9959189453125,-0.0716000955617055,-0.5372321691147983,0.5553291129499673,-0.0312879271805286,0.0328105464577674,0.2776398062705993,walking,2026-03-04_14-02-19
1772632942351868200,3.0058681640625,-0.0722960054039955,-0.6455385223157704,0.6604886925578117,-0.0407184474170208,0.042931355535984,0.2805945873260498,walking,2026-03-04_14-02-19
1772632942361817000,3.015817138671875,-0.0101643607376143,-0.7465598330751061,0.757233495041728,-0.0607482083141803,0.047733262181282,0.2886955738067627,walking,2026-03-04_14-02-19
1772632942371766000,3.02576611328125,0.0759582177059724,-0.8339908637687563,0.711169663003087,-0.0777945592999458,0.0318616181612014,0.2937699556350708,walking,2026-03-04_14-02-19
1772632942381715000,3.03571484375,0.1143755535794422,-0.8699941973030567,0.5506377402633428,-0.0824143588542938,0.0087477164342999,0.2975821495056152,walking,2026-03-04_14-02-19
1772632942391664000,3.0456640625,0.0873876664759591,-0.873480139722675,0.3226373784065246,-0.0773660689592361,-0.0296457447111606,0.2943970263004303,walking,2026-03-04_14-02-19
1772632942401613000,3.055613037109375,0.0367308806238695,-0.844873784571886,0.0138262807786464,-0.0595269873738288,-0.0579286217689514,0.2866927087306976,walking,2026-03-04_14-02-19
1772632942411563300,3.065563232421875,-0.047595023661293,-0.7960456023864447,-0.3124906629234552,-0.0314554087817668,-0.0740018635988235,0.2777208089828491,walking,2026-03-04_14-02-19
1772632942421512200,3.07551220703125,-0.150417538623698,-0.7432035083845258,-0.6726081694185734,-2.9363669455e-05,-0.0539079643785953,0.2638100385665893,walking,2026-03-04_14-02-19
1772632942431461000,3.085461181640625,-0.2345772194964811,-0.7032607895746826,-0.9487824873358012,0.0252163372933864,0.0022141586523503,0.2495570629835128,walking,2026-03-04_14-02-19
1772632942441410000,3.09541015625,-0.2641021873295307,-0.6555342850208282,-1.0897370184242725,0.0330137312412261,0.0696585327386856,0.2482572495937347,walking,2026-03-04_14-02-19
1772632942451359000,3.10535888671875,-0.2276394195899367,-0.6263312791511416,-1.179511981895566,0.035318698734045,0.134818896651268,0.2716025114059448,walking,2026-03-04_14-02-19
1772632942461308000,3.115307861328125,-0.1632812945131212,-0.6070961250662803,-1.329074182331562,0.0520176291465759,0.1926890164613723,0.3156276643276214,walking,2026-03-04_14-02-19
1772632942471257000,3.125257080078125,-0.1050790251849219,-0.6000049977615475,-1.466711551696062,0.0906076282262802,0.223812848329544,0.3764055073261261,walking,2026-03-04_14-02-19
1772632942481206300,3.135206298828125,-0.1055397745644673,-0.6252307705633342,-1.538361660411954,0.1475142985582351,0.2275768369436264,0.4420766830444336,walking,2026-03-04_14-02-19
1772632942491155200,3.1451552734375,-0.1378538981920108,-0.7182426701292395,-1.4987655630826948,0.1941148191690445,0.2050877660512924,0.5081425309181213,walking,2026-03-04_14-02-19
1772632942501104000,3.155104248046875,-0.2510152902087196,-0.8782834483511746,-1.4877747979909182,0.2332872748374939,0.148404836654663,0.5538627505302429,walking,2026-03-04_14-02-19
1772632942511053000,3.165052978515625,-0.4904798433553427,-1.0388942815460265,-1.5847171688735484,0.2669627070426941,0.1148740500211715,0.5737466812133789,walking,2026-03-04_14-02-19
1772632942521002000,3.175001953125,-0.7744988103583454,-1.1519894764587282,-1.6067448762863874,0.2802349328994751,0.0829327255487442,0.5581255555152893,walking,2026-03-04_14-02-19
1772632942530951000,3.184950927734375,-0.9178246006228028,-1.2482796670429408,-1.5919593950867652,0.2789193391799927,0.0492581240832805,0.5136638283729553,walking,2026-03-04_14-02-19
1772632942540900000,3.194900146484375,-0.998935123058036,-1.2709629157550633,-1.5777081668943165,0.2553973495960235,0.0125952903181314,0.4396242797374725,walking,2026-03-04_14-02-19
1772632942550849000,3.20484912109375,-1.1572606948599218,-1.237234833676368,-1.5892472135186195,0.2117012590169906,-0.0133979599922895,0.3330571055412292,walking,2026-03-04_14-02-19
1772632942560798200,3.214798095703125,-1.335738754787296,-1.0256247578673063,-1.6197756227731703,0.1604391187429428,-0.0315764956176281,0.1980719715356826,walking,2026-03-04_14-02-19
1772632942570747100,3.2247470703125,-1.4306896595917642,-0.6452241956695914,-1.6891425889879463,0.1100063174962997,-0.0361310318112373,0.0607482157647609,walking,2026-03-04_14-02-19
1772632942580696000,3.234696044921875,-1.306535895048082,-0.2009441587574779,-1.7941519464701412,0.0800757482647895,0.0058528603985905,-0.0437189824879169,walking,2026-03-04_14-02-19
1772632942590645000,3.24464501953125,-1.0333265644162892,0.279326498337835,-1.8450386686205864,0.0712934434413909,0.0610663183033466,-0.1091813370585441,walking,2026-03-04_14-02-19
1772632942600594000,3.254593994140625,-0.688239453792572,0.7150076337307691,-1.7626976545423267,0.0796543136239051,0.0939024537801742,-0.1326863318681717,walking,2026-03-04_14-02-19
1772632942610543000,3.264543212890625,-0.3270990705231204,1.0267058311022816,-1.6429010622948408,0.1087514758110046,0.1047199517488479,-0.1233868449926376,walking,2026-03-04_14-02-19
1772632942620492000,3.274491943359375,-0.0457137034267187,1.269180416252464,-1.4923177021175622,0.1586664915084839,0.1086578518152237,-0.0837819725275039,walking,2026-03-04_14-02-19
1772632942630441000,3.28444091796875,0.1245021395899355,1.4896072741150854,-1.3331085524141788,0.2173788100481033,0.1227555647492408,-0.0178471654653549,walking,2026-03-04_14-02-19
1772632942640390100,3.29439013671875,0.1840937078520655,1.5987641066655516,-1.1538333507597445,0.2836832106113434,0.1831099987030029,0.0682518854737281,walking,2026-03-04_14-02-19
1772632942650339000,3.304339111328125,0.1741249062191694,1.598730350526422,-0.8608551975578069,0.3443550765514374,0.2652094066143036,0.1565151661634445,walking,2026-03-04_14-02-19
1772632942660288000,3.3142880859375,0.0980596844747662,1.4625529707118867,-0.4505646701395511,0.3907973170280456,0.3609634935855865,0.2158660739660263,walking,2026-03-04_14-02-19
1772632942670237200,3.3242373046875,0.0343855961393564,1.2318750602088868,-0.0296849441677331,0.4367051422595978,0.43507981300354,0.2346168607473373,walking,2026-03-04_14-02-19
1772632942680186000,3.33418603515625,0.0748770348731428,1.078193003363907,0.4019973308473825,0.4929283559322357,0.4782942831516266,0.2361774295568466,walking,2026-03-04_14-02-19
1772632942690135000,3.344135009765625,0.1434312964655459,0.936697497266531,0.8337047403037547,0.538962721824646,0.5025668740272522,0.2180703431367874,walking,2026-03-04_14-02-19
1772632942700084000,3.354083984375,0.2459265522349625,0.9241545342966914,1.3347522279679775,0.5546606779098511,0.4638096988201141,0.1921660304069519,walking,2026-03-04_14-02-19
1772632942710034200,3.3640341796875,0.3677664138130843,0.9508791673541068,1.8181319569945331,0.5460285544395447,0.3639020323753357,0.1738261729478836,walking,2026-03-04_14-02-19
1772632942719983000,3.373983154296875,0.4582501831408589,0.9948267378911376,2.211540907716751,0.5026699900627136,0.1918283104896545,0.1615926772356033,walking,2026-03-04_14-02-19
1772632942729932000,3.38393212890625,0.4143327885463833,1.0781734218806027,2.4069565123111007,0.4277485907077789,0.0048911711201071,0.1363818645477295,walking,2026-03-04_14-02-19
1772632942739881000,3.393880859375,0.2662728093668818,1.12953156093508,2.4622657270789143,0.3149964511394501,-0.152050495147705,0.1065116748213768,walking,2026-03-04_14-02-19
1772632942749830000,3.403829833984375,0.1095065958362072,1.1520555274322628,2.2989812907606364,0.1829108446836471,-0.2121647000312805,0.0687629655003547,walking,2026-03-04_14-02-19
1772632942759779000,3.413779052734375,-0.1148592819757759,1.1247209457829594,2.040247936987877,0.0369822792708873,-0.1991029232740402,0.0197818204760551,walking,2026-03-04_14-02-19
1772632942769728000,3.42372802734375,-0.2944510752987116,1.059427804878354,1.7985937283098696,-0.1157667860388755,-0.1666781455278396,-0.0475644655525684,walking,2026-03-04_14-02-19
1772632942779677200,3.43367724609375,-0.3203657071474939,1.0101260138317942,1.5171668966919185,-0.2490933835506439,-0.1597077399492263,-0.1247823983430862,walking,2026-03-04_14-02-19
1772632942789626000,3.443626220703125,-0.2902663369599729,1.05485655144006,1.1038321792721748,-0.3448223173618316,-0.1840799152851104,-0.1884873360395431,walking,2026-03-04_14-02-19
1772632942799575000,3.453574951171875,-0.2584427002631128,1.1782906234070658,0.615127455830574,-0.3929222226142883,-0.2175081074237823,-0.2317799776792526,walking,2026-03-04_14-02-19
1772632942809524000,3.46352392578125,-0.2644697785329074,1.28156687348634,0.1752145280867814,-0.4070697426795959,-0.2361190766096115,-0.2589910924434662,walking,2026-03-04_14-02-19
1772632942819473200,3.47347314453125,-0.2543845109134912,1.2929288099780678,-0.239666249731183,-0.3956292569637298,-0.2234202772378921,-0.2764441072940826,walking,2026-03-04_14-02-19
1772632942829422000,3.483422119140625,-0.2901834809821099,1.275481416092813,-0.5891407816588878,-0.3611224293708801,-0.1586015969514846,-0.2892243564128876,walking,2026-03-04_14-02-19
1772632942839371000,3.49337109375,-0.2808196595050394,1.2556954962573943,-0.8093138108909129,-0.3165987133979797,-0.0590490885078907,-0.2964606285095215,walking,2026-03-04_14-02-19
1772632942849320200,3.5033203125,-0.1498718509070575,1.1462293054968118,-0.8998901538729667,-0.2606598138809204,0.0573827177286148,-0.2885598242282867,walking,2026-03-04_14-02-19
1772632942859269000,3.51326904296875,0.0439911904830485,1.040672689395398,-0.8737818991482257,-0.195815771818161,0.1777843534946441,-0.2553389370441437,walking,2026-03-04_14-02-19
1772632942869218000,3.523218017578125,0.1831556232843548,0.9934256389215588,-0.5803109939932822,-0.1342357546091079,0.2771860361099243,-0.2001049816608429,walking,2026-03-04_14-02-19
1772632942879167000,3.5331669921875,0.3540850213978439,0.8652864580035209,-0.0861515122771263,-0.0881127268075943,0.3073469400405884,-0.1355287879705429,walking,2026-03-04_14-02-19
1772632942889116200,3.5431162109375,0.5315680789384991,0.6115051736801862,0.4464233325511217,-0.0622321218252182,0.2806878983974457,-0.0631259679794311,walking,2026-03-04_14-02-19
1772632942899065000,3.553065185546875,0.5493569797378033,0.3057463032297789,0.9077958124309776,-0.0562764108180999,0.2326622903347015,-0.010217965580523,walking,2026-03-04_14-02-19
1772632942909014000,3.563013916015625,0.4968075850721448,-0.0089091365121304,1.241614510065317,-0.073227435350418,0.1729765832424163,0.0108050275593996,walking,2026-03-04_14-02-19
1772632942918963000,3.572962890625,0.4194619681283831,-0.2838528897210955,1.4753104532152412,-0.1032702773809433,0.0908857733011245,-0.0006299263332039,walking,2026-03-04_14-02-19
1772632942928912000,3.582911865234375,0.3245127438243478,-0.4645004026420414,1.4812000957757234,-0.1338782608509063,0.0129262581467628,-0.0342368893325328,walking,2026-03-04_14-02-19
1772632942938860800,3.59286083984375,0.2354812921967357,-0.5428394876025617,1.3633096294105052,-0.151803433895111,-0.0495919212698936,-0.0820315480232238,walking,2026-03-04_14-02-19
1772632942948810000,3.60281005859375,0.1172353634573519,-0.5657980461247265,1.1713771907567978,-0.160721018910408,-0.0920988991856575,-0.1397624760866165,walking,2026-03-04_14-02-19
1772632942958759200,3.61275927734375,-0.0238650789078325,-0.5565563166573644,0.9979109676420688,-0.1695526391267776,-0.09798514097929,-0.210924431681633,walking,2026-03-04_14-02-19
1772632942968708000,3.6227080078125,-0.0960549205236136,-0.5092974296152591,0.9143313516795636,-0.19180229306221,-0.0824482664465904,-0.2872237265110016,walking,2026-03-04_14-02-19
1772632942978657000,3.632656982421875,-0.0187243550185114,-0.4394789202407002,0.9117711458027362,-0.2309992164373397,-0.0664194300770759,-0.3487783074378967,walking,2026-03-04_14-02-19
1772632942988606000,3.64260595703125,0.1518500191122293,-0.3069306907087564,0.8818518083572388,-0.2708592712879181,-0.0684580728411674,-0.3849773108959198,walking,2026-03-04_14-02-19
1772632942998556000,3.652555908203125,0.3787270760275423,-0.0807610514104366,0.7280243516921997,-0.2821111381053924,-0.0828296244144439,-0.3828434646129608,walking,2026-03-04_14-02-19
1772632943008504800,3.6625048828125,0.5829852547038347,0.160396021400392,0.490951625585556,-0.2595698833465576,-0.1038030833005905,-0.3344112038612366,walking,2026-03-04_14-02-19
1772632943018454000,3.6724541015625,0.6882885536313057,0.285382145114988,0.3431786466538906,-0.2241946756839752,-0.1344304829835891,-0.2677052021026611,walking,2026-03-04_14-02-19
1772632943028403000,3.68240283203125,0.7177548135470598,0.258213713812828,0.2200397582411765,-0.1817601323127746,-0.1567789316177368,-0.205905482172966,walking,2026-03-04_14-02-19
1772632943038352100,3.69235205078125,0.694123543395102,0.166805157790333,0.0867868875712156,-0.1374983787536621,-0.1551335602998733,-0.1459083408117294,walking,2026-03-04_14-02-19
1772632943048301000,3.702301025390625,0.6355117068853229,0.0174773506321012,0.0101461309611797,-0.0904911831021308,-0.1272673159837722,-0.0952763184905052,walking,2026-03-04_14-02-19
1772632943058250000,3.71225,0.5752190776817501,-0.1887315967857837,0.0770236184477806,-0.0634575933218002,-0.1097144484519958,-0.0594920106232166,walking,2026-03-04_14-02-19
1772632943068199000,3.722198974609375,0.53212359392941,-0.4807784604869782,0.2168541139423847,-0.057217538356781,-0.113735020160675,-0.0503906570374965,walking,2026-03-04_14-02-19
1772632943078147800,3.73214794921875,0.549718360396102,-0.7508110607787967,0.3054144409269094,-0.0616783089935779,-0.1294416189193725,-0.0559640042483806,walking,2026-03-04_14-02-19
1772632943088097000,3.742096923828125,0.5572253019601107,-0.9317891208283604,0.2832265745162963,-0.0650773048400878,-0.1615625321865081,-0.0710931569337844,walking,2026-03-04_14-02-19
1772632943098046000,3.7520458984375,0.5379345452304929,-1.0033378149963914,0.1241162090122699,-0.0484978929162025,-0.1921586394309997,-0.0937830582261085,walking,2026-03-04_14-02-19
1772632943107995100,3.7619951171875,0.5764703929170966,-1.0214186844795945,-0.0628396102726459,-0.0160944163799285,-0.2234007120132446,-0.1080543994903564,walking,2026-03-04_14-02-19
1772632943117944000,3.771944091796875,0.6394256654586643,-1.0192373949177562,-0.1684779133081436,0.0228469520807266,-0.2575631737709045,-0.1103139221668243,walking,2026-03-04_14-02-19
1772632943127893000,3.78189306640625,0.6932760597202926,-1.0313986650936304,-0.2444610827922821,0.0522043071687221,-0.2664429545402527,-0.1050536483526229,walking,2026-03-04_14-02-19
1772632943137842000,3.791842041015625,0.7043059147134423,-1.0574613271109758,-0.2974175969541072,0.0707184746861457,-0.2479109019041061,-0.1055723652243614,walking,2026-03-04_14-02-19
1772632943147790800,3.801790771484375,0.6423969363544136,-1.0475063348077236,-0.3171335202932357,0.0727448761463165,-0.2238026410341262,-0.1066970229148864,walking,2026-03-04_14-02-19
1772632943157739800,3.81173974609375,0.5837203640453517,-1.0346535752363502,-0.3395639632880687,0.0674965679645538,-0.1972518414258957,-0.1196109429001808,walking,2026-03-04_14-02-19
1772632943167689000,3.82168896484375,0.6296260098475962,-1.06331487544477,-0.3766144677877426,0.0624040700495243,-0.1666039228439331,-0.1335299611091613,walking,2026-03-04_14-02-19
1772632943177638100,3.83163818359375,0.737285224251449,-1.0231471157073977,-0.4305389501988887,0.0691641345620155,-0.1276039183139801,-0.1354638934135437,walking,2026-03-04_14-02-19
1772632943187587000,3.841587158203125,0.8700381825752556,-0.9315579424209892,-0.4568745839387178,0.0875873491168022,-0.0920363292098045,-0.1203510016202926,walking,2026-03-04_14-02-19
1772632943197536000,3.851535888671875,0.9931098509706556,-0.8277183593705296,-0.3621341070145368,0.1083532646298408,-0.0833730325102806,-0.092532530426979,walking,2026-03-04_14-02-19
1772632943207485000,3.86148486328125,1.1177150856088849,-0.7577918595768511,-0.2647890005499124,0.1298042237758636,-0.1050242707133293,-0.0553566701710224,walking,2026-03-04_14-02-19
1772632943217433900,3.871433837890625,1.1978702070154248,-0.7562006448626518,-0.2095978592038154,0.1486558765172958,-0.1491965800523758,-0.0168648697435855,walking,2026-03-04_14-02-19
1772632943227382800,3.8813828125,1.1953957797259092,-0.7643903810590505,-0.2489583942115306,0.1624457240104675,-0.1790436953306198,0.0204739794135093,walking,2026-03-04_14-02-19
1772632943237332000,3.89133203125,1.1166375195052474,-0.8058882203564047,-0.2833008087962865,0.1602178812026977,-0.1938090920448303,0.044631440192461,walking,2026-03-04_14-02-19
1772632943247281200,3.90128125,0.964761854495108,-0.8188480935640633,-0.3173573921769857,0.1385229676961898,-0.2050958275794983,0.0479366891086101,walking,2026-03-04_14-02-19
1772632943257230000,3.91122998046875,0.7836268503181636,-0.7763629967950284,-0.4285971684813499,0.1124605908989906,-0.2015075236558914,0.0459975898265838,walking,2026-03-04_14-02-19
1772632943267179000,3.921178955078125,0.6285730667285621,-0.6377518139623105,-0.5691320128530264,0.0846302881836891,-0.1848987191915512,0.0459256842732429,walking,2026-03-04_14-02-19
1772632943277129000,3.93112890625,0.5102730697143822,-0.4849159986831247,-0.7497153744965791,0.0638900697231292,-0.1421527713537216,0.0601876974105834,walking,2026-03-04_14-02-19
1772632943287078000,3.941077880859375,0.4441892533561214,-0.3685452892310917,-0.8365349952936172,0.0489225722849369,-0.1041409373283386,0.0796964168548584,walking,2026-03-04_14-02-19
1772632943297026800,3.95102685546875,0.3394559728689491,-0.2708275500617921,-0.771284232226014,0.0243606232106685,-0.1170127540826797,0.0935001894831657,walking,2026-03-04_14-02-19
1772632943306976000,3.96097607421875,0.2219786538818851,-0.2088398804433643,-0.6954542074769735,-0.0122229559347033,-0.180817574262619,0.0981990694999694,walking,2026-03-04_14-02-19
1772632943316925000,3.970925048828125,0.0519876691296696,-0.1465738322749734,-0.7598615054577589,-0.0546198599040508,-0.2613202333450317,0.0856854021549224,walking,2026-03-04_14-02-19
1772632943326874000,3.9808740234375,-0.139660326559469,-0.0352437473386526,-0.9659206691414116,-0.0995822772383689,-0.3320633769035339,0.0628352090716362,walking,2026-03-04_14-02-19
1772632943336823000,3.990822998046875,-0.3178292474724352,0.1215961890153586,-1.3051602227807044,-0.129913717508316,-0.3504025340080261,0.0315285064280033,walking,2026-03-04_14-02-19
1772632943346772000,4.00077197265625,-0.4600099958876147,0.3383388054072856,-1.6581851406663657,-0.1415836960077285,-0.3006845116615295,0.0022726184688508,walking,2026-03-04_14-02-19
1772632943356721000,4.010720947265625,-0.4969114838380366,0.5535366765752434,-1.8809651375263927,-0.1292457580566406,-0.1948167979717254,-0.0165906623005867,walking,2026-03-04_14-02-19
1772632943366669800,4.020669921875,-0.4837251083981245,0.7849728580996393,-1.9917782128512855,-0.0880801975727081,-0.0703734084963798,-0.0182972140610218,walking,2026-03-04_14-02-19
1772632943376618800,4.03061865234375,-0.460893135397695,1.0478957725167273,-1.9433266088932752,-0.0145120378583669,0.0352051593363285,-0.0090104369446635,walking,2026-03-04_14-02-19
1772632943386568200,4.040568115234375,-0.3976153529034927,1.2812599994942546,-1.7679741336405277,0.0806714668869972,0.1085081323981285,0.004311759956181,walking,2026-03-04_14-02-19
1772632943396517000,4.05051708984375,-0.3304829408077523,1.485479380530119,-1.4621896903574465,0.1929750591516494,0.1635469645261764,0.0311084687709808,walking,2026-03-04_14-02-19
1772632943406466000,4.060466064453125,-0.3305926482599228,1.6373519037351012,-1.0450094034254551,0.2906984090805053,0.2039590924978256,0.063503697514534,walking,2026-03-04_14-02-19
1772632943416415000,4.0704150390625,-0.3416273620912805,1.645839015442878,-0.5712322000026703,0.3624621629714966,0.2262481451034546,0.0845706760883331,walking,2026-03-04_14-02-19
1772632943426364000,4.080364013671875,-0.3358133055176586,1.5287224560596049,-0.111411625739932,0.4117711186408996,0.2335489392280578,0.0912653282284736,walking,2026-03-04_14-02-19
1772632943436312800,4.090312744140625,-0.3734795672954991,1.4398909109182656,0.3378407927572727,0.4331856966018677,0.2342940121889114,0.0964136719703674,walking,2026-03-04_14-02-19
1772632943446261800,4.10026171875,-0.4513907822327688,1.3152953939564525,0.7974526927053928,0.4164482653141022,0.2148891538381576,0.0893104895949363,walking,2026-03-04_14-02-19
1772632943456211200,4.110211181640625,-0.5287430115804076,1.1562521023392676,1.1460860976338385,0.3627363443374634,0.1525106430053711,0.0691375955939292,walking,2026-03-04_14-02-19
1772632943466160000,4.12016015625,-0.6704298755314201,1.0221531362339853,1.2886363734811543,0.2940329313278198,0.0853084325790405,0.0277954787015914,walking,2026-03-04_14-02-19
1772632943476109000,4.130109130859375,-0.9609110242858528,0.95592768291533,1.3303437638759612,0.2113913744688034,0.0371675193309783,-0.0325506366789341,walking,2026-03-04_14-02-19
1772632943486058000,4.14005810546875,-1.246920799779892,0.9211837017923592,1.3008879522889851,0.0999109297990799,0.0083987191319465,-0.1142979711294174,walking,2026-03-04_14-02-19
1772632943496007000,4.1500068359375,-1.4383743688754738,0.850870833029598,1.1464537619024515,-0.014137640595436,0.0029730659443885,-0.2171784490346908,walking,2026-03-04_14-02-19
1772632943505955800,4.159955810546875,-1.4708027665324508,0.8489791740640997,0.9169558549642562,-0.1165761277079582,0.0288842916488647,-0.3144924640655517,walking,2026-03-04_14-02-19
1772632943515905000,4.169905029296875,-1.2754416686043142,0.925732012746483,0.6211164671123027,-0.1854635626077652,0.0705129578709602,-0.3702900409698486,walking,2026-03-04_14-02-19
1772632943525854000,4.17985400390625,-0.9153320531547068,1.0538844915375112,0.3693956224501132,-0.2226492762565612,0.101725734770298,-0.3697640895843506,walking,2026-03-04_14-02-19
1772632943535803100,4.18980322265625,-0.5426209860136733,1.1480389852672814,0.2131587665557861,-0.225602701306343,0.1059395149350166,-0.310888260602951,walking,2026-03-04_14-02-19
1772632943545752000,4.199751953125,-0.2444501960720866,1.171730534239113,0.150451842752099,-0.2012153416872024,0.0773334354162216,-0.2182768434286117,walking,2026-03-04_14-02-19
1772632943555701000,4.209700927734375,-0.0976714888747781,1.0585023605965078,0.1302455055475234,-0.1673162132501602,0.0024818312376737,-0.1221839562058448,walking,2026-03-04_14-02-19
1772632943565651000,4.21965087890625,-0.1394901576243341,0.8269102578580378,0.0715799660891294,-0.1301464736461639,-0.0541409663856029,-0.0547503270208835,walking,2026-03-04_14-02-19
1772632943575599900,4.229599853515625,-0.2624747687907889,0.5706919556461274,-0.023780688560009,-0.0864575058221817,-0.0696501061320304,-0.0181680750101804,walking,2026-03-04_14-02-19
1772632943585548800,4.239548828125,-0.410786896100454,0.3147000095359981,0.0109743984788656,-0.0599683746695518,-0.0599426180124282,-0.0053971530869603,walking,2026-03-04_14-02-19
1772632943595498000,4.249498046875,-0.4819595600303262,0.0651518327377736,0.1761877570331096,-0.0640430226922035,-0.0457070842385292,-0.0144798513501882,walking,2026-03-04_14-02-19
1772632943605447200,4.259447265625,-0.4446412714399397,-0.170711371448636,0.3314075448393822,-0.0833083316683769,-0.0236593037843704,-0.0339262522757053,walking,2026-03-04_14-02-19
1772632943615396000,4.26939599609375,-0.3502258252190425,-0.3028637335307896,0.4762146597027778,-0.107128269970417,0.0051962686702609,-0.0552799180150032,walking,2026-03-04_14-02-19
1772632943625345000,4.279344970703125,-0.2381158054187893,-0.3620272856391966,0.5733996071696281,-0.1269014477729797,-0.0103283626958727,-0.083760030567646,walking,2026-03-04_14-02-19
1772632943635294000,4.2892939453125,-0.0309805004036054,-0.3592395546168088,0.4745137010037898,-0.114938385784626,-0.027668572962284,-0.090617336332798,walking,2026-03-04_14-02-19
1772632943645243000,4.299242919921875,0.1128530567198991,-0.2770259663105011,0.3137859634310007,-0.0716391131281852,-0.0223933830857276,-0.0729736313223838,walking,2026-03-04_14-02-19
1772632943655191800,4.30919189453125,0.1490128594575449,-0.1640754405654966,0.2981891658484935,-0.0239072293043136,-0.0202043447643518,-0.0471888892352581,walking,2026-03-04_14-02-19
1772632943665141000,4.31914111328125,0.1434700575733557,-0.1742057894356548,0.4349322167217731,0.0061718435026705,-0.0257261432707309,-0.0293028317391872,walking,2026-03-04_14-02-19
1772632943675090200,4.329090087890625,0.0783287827622145,-0.2298005431465804,0.6101058282762766,0.0111170941963791,-0.0372610986232757,-0.0264520160853862,walking,2026-03-04_14-02-19
1772632943685039000,4.3390390625,-0.0047260056085884,-0.2136664238169789,0.7998416336685419,-0.0107605075463652,-0.0454945266246795,-0.0374053306877613,walking,2026-03-04_14-02-19
1772632943694988000,4.348988037109375,-0.1036264517564326,-0.1629179410934448,0.9662433252245188,-0.0598035529255867,-0.0726125910878181,-0.0484673678874969,walking,2026-03-04_14-02-19
1772632943704937000,4.35893701171875,-0.2180756916265934,-0.0934549671582877,1.015436102938652,-0.1286361515522003,-0.0898815914988517,-0.0665214732289314,walking,2026-03-04_14-02-19
1772632943714886000,4.368885986328125,-0.3138723265402018,-0.0204736098386347,0.904087605562806,-0.1961815059185028,-0.0805454552173614,-0.0916683077812194,walking,2026-03-04_14-02-19
1772632943724834800,4.378834716796875,-0.3389390728553756,0.1085549211345612,0.7273568276941775,-0.2507387697696686,-0.0597485639154911,-0.1051651984453201,walking,2026-03-04_14-02-19
1772632943734784000,4.388783935546875,-0.2399659998627379,0.2459248717345297,0.4979641346961259,-0.2762612700462341,-0.0579592213034629,-0.104769267141819,walking,2026-03-04_14-02-19
1772632943744733200,4.398733154296875,-0.0579201279185712,0.4094103835828602,0.1831447365641594,-0.257364809513092,-0.0502877198159694,-0.0713671073317527,walking,2026-03-04_14-02-19
1772632943754682000,4.40868212890625,0.1193487754147499,0.5703267755955458,-0.0722170949488878,-0.1963117271661758,-0.0357122682034969,-0.0012800442054867,walking,2026-03-04_14-02-19
1772632943764631000,4.418631103515625,0.2902013819649815,0.6529204492606222,-0.1947322985053062,-0.1249656379222869,-0.0157183203846216,0.0908791795372963,walking,2026-03-04_14-02-19
1772632943774580000,4.428580078125,0.3961749083042145,0.588230388815701,-0.1220487550884485,-0.0626894608139991,0.0214665886014699,0.1894662827253341,walking,2026-03-04_14-02-19
1772632943784529000,4.43852880859375,0.4000113811945542,0.4173021597459912,0.0954839887678623,-0.030768547207117,0.0596941336989402,0.2782456874847412,walking,2026-03-04_14-02-19
1772632943794477800,4.448477783203125,0.3111940472416579,0.1680848223373293,0.4276677786767482,-0.0370621792972087,0.0807518288493156,0.3370285630226135,walking,2026-03-04_14-02-19
1772632943804427000,4.458427001953125,0.2416366730213165,-0.1045890862435102,0.7615928592950105,-0.071269690990448,0.0868771001696586,0.3651776313781738,walking,2026-03-04_14-02-19
1772632943814376000,4.4683759765625,0.1731081669246778,-0.3455605733543634,0.9276789090305566,-0.1174207180738449,0.1051930785179138,0.3701939582824707,walking,2026-03-04_14-02-19
1772632943824325000,4.4783251953125,0.0859582181947305,-0.4932413439579308,0.991869933912158,-0.1554487943649292,0.1179410964250564,0.3664087951183319,walking,2026-03-04_14-02-19
1772632943834274000,4.488274169921875,0.0501795237291604,-0.5775226784490048,0.9973445659309624,-0.1824432462453842,0.1002856194972992,0.3497408032417297,walking,2026-03-04_14-02-19
1772632943844224000,4.49822412109375,0.1560918944656849,-0.6310460327133536,0.8464595924586057,-0.175322487950325,0.0616021491587162,0.3356311023235321,walking,2026-03-04_14-02-19
1772632943854173000,4.5081728515625,0.2493240857187658,-0.6446801519207656,0.6349217051029205,-0.1338412016630172,0.0286800451576709,0.3342600762844085,walking,2026-03-04_14-02-19
1772632943864121900,4.518121826171875,0.2882153227142989,-0.6085777419261634,0.4725491229325532,-0.0838488638401031,-0.0016293921507894,0.3414825797080993,walking,2026-03-04_14-02-19
1772632943874070800,4.52807080078125,0.2933570329843089,-0.5967839898884296,0.3728215052455663,-0.0527375563979148,-0.0408162102103233,0.3542790412902832,walking,2026-03-04_14-02-19
1772632943884020000,4.53802001953125,0.2197924324166029,-0.6546025571286678,0.2603980721145868,-0.0441978611052036,-0.0515117309987545,0.3579355776309967,walking,2026-03-04_14-02-19
1772632943893968600,4.54796875,0.0603602510796859,-0.6836218769945204,0.1067693528920412,-0.0525263287127018,-0.0192661173641681,0.3485399782657623,walking,2026-03-04_14-02-19
1772632943903917600,4.55791748046875,-0.1128760722693055,-0.7041684059388935,-0.0322901582300663,-0.084652841091156,0.0280449409037828,0.3315122425556183,walking,2026-03-04_14-02-19
1772632943913866500,4.567866455078125,-0.2584901561340317,-0.7701673570252955,-0.21542671148777,-0.1245901957154274,0.077602244913578,0.3020477294921875,walking,2026-03-04_14-02-19
1772632943923815400,4.5778154296875,-0.313336575695686,-0.8159415584675968,-0.4509130451858043,-0.1529986560344696,0.1222386881709098,0.2667201161384582,walking,2026-03-04_14-02-19
1772632943933764600,4.5877646484375,-0.2841585216041654,-0.7521392406426369,-0.7178934183001517,-0.1468558609485626,0.1393501907587051,0.2446406930685043,walking,2026-03-04_14-02-19
1772632943943713800,4.5977138671875,-0.1494154489090666,-0.6613445787347852,-1.0145692569762468,-0.1041158363223075,0.1304083615541458,0.2507670521736145,walking,2026-03-04_14-02-19
1772632943953662700,4.607662841796875,-0.0063301894022151,-0.5361057954333722,-1.27309042930305,-0.0234298929572105,0.1246245801448822,0.2937743365764618,walking,2026-03-04_14-02-19
1772632943963611600,4.617611572265625,0.0302388151908293,-0.4086472902558744,-1.4473387427061797,0.0637620016932487,0.1136297285556793,0.3637289106845855,walking,2026-03-04_14-02-19
1772632943973560600,4.627560546875,-0.0096060327351093,-0.4224434681572019,-1.505744754445553,0.1481979489326477,0.1114838495850563,0.4384807646274566,walking,2026-03-04_14-02-19
1772632943983509500,4.637509521484375,-0.1231493732741102,-0.5062026784703135,-1.492977042809129,0.2175924628973007,0.1129605695605278,0.5092025995254517,walking,2026-03-04_14-02-19
1772632943993458400,4.64745849609375,-0.325808994179964,-0.6459975181296468,-1.3964637109935285,0.2575191855430603,0.1085673347115516,0.5614632964134216,walking,2026-03-04_14-02-19
1772632944003407600,4.65740771484375,-0.5662540462639183,-0.8453736969180404,-1.283129592758417,0.2665854096412658,0.1037491485476493,0.5858402848243713,walking,2026-03-04_14-02-19
1772632944013356800,4.667356689453125,-0.7919644705526531,-1.0279945557385683,-1.1910463523447512,0.2527112364768982,0.0976302400231361,0.5860913991928101,walking,2026-03-04_14-02-19
1772632944023305700,4.6773056640625,-1.011403048030287,-1.1958821019381285,-1.1023550924569367,0.2168032824993133,0.0967830941081047,0.5611636638641357,walking,2026-03-04_14-02-19
1772632944033254700,4.687254638671875,-1.1215106054343282,-1.2713714965559542,-1.081314057993889,0.1732873916625976,0.0987728908658027,0.5265650749206543,walking,2026-03-04_14-02-19
1772632944043203600,4.69720361328125,-1.218725509648025,-1.3415562088944015,-1.126010108810663,0.1365259140729904,0.0985867381095886,0.4640985131263733,walking,2026-03-04_14-02-19
1772632944053152500,4.707152587890625,-1.3040353104040026,-1.3314534786835313,-1.294599665799737,0.1284219175577163,0.0322338156402111,0.359737753868103,walking,2026-03-04_14-02-19
1772632944063101400,4.717101318359375,-1.3173644553154706,-1.2276591960795222,-1.50060271538198,0.1515506654977798,-0.0268750470131635,0.2459688186645507,walking,2026-03-04_14-02-19
1772632944073050600,4.727050537109375,-1.277186904836446,-0.903421835130453,-1.6879045716255905,0.2013521641492843,-0.0744760856032371,0.1571849733591079,walking,2026-03-04_14-02-19
1772632944082999800,4.736999755859375,-1.2396361957296729,-0.4336728643104434,-1.7642314399808643,0.2475777119398117,-0.0882816463708877,0.0844074413180351,walking,2026-03-04_14-02-19
1772632944092948700,4.74694873046875,-1.1522663937039672,0.0325613763868808,-1.6831541622281074,0.282246321439743,-0.0888005122542381,0.039701409637928,walking,2026-03-04_14-02-19
1772632944102898700,4.756898681640625,-1.0275856826767324,0.4098642648302018,-1.4955349105983973,0.2904075682163238,-0.067624919116497,0.0150727601721882,walking,2026-03-04_14-02-19
1772632944112847600,4.76684765625,-0.8551593970689922,0.6917384018242358,-1.2705664637833831,0.2834029793739319,-0.0250297337770462,0.0108901970088481,walking,2026-03-04_14-02-19
1772632944122796500,4.776796630859375,-0.6421058444533496,0.8942556551173328,-1.076981581747532,0.2729285061359405,0.040179893374443,0.0336495712399482,walking,2026-03-04_14-02-19
1772632944132745500,4.786745361328125,-0.4340399805897846,1.0084927135415374,-0.8543728498011827,0.26548632979393,0.1095102801918983,0.0840441361069679,walking,2026-03-04_14-02-19
1772632944142694700,4.796694580078125,-0.2257061499724164,0.9847590789936482,-0.5533008219927549,0.2539218366146087,0.1439526826143264,0.1592297106981277,walking,2026-03-04_14-02-19
1772632944152643600,4.8066435546875,-0.1528387744212523,0.8103411081120372,-0.2396422843337058,0.2420252412557602,0.1207709908485412,0.2378414571285247,walking,2026-03-04_14-02-19
1772632944162592800,4.8165927734375,-0.2488575276529416,0.5538057027749717,-0.0563654458224773,0.2374656498432159,0.0515655502676963,0.2745371460914612,walking,2026-03-04_14-02-19
1772632944172541700,4.826541748046875,-0.4405421655580401,0.3095215839847922,-0.1039648168653249,0.261519581079483,0.0017151702195405,0.2701344192028045,walking,2026-03-04_14-02-19
1772632944182490600,4.83649072265625,-0.6511516129571944,0.117805856821686,-0.2187467958211898,0.311205118894577,0.0070729171857237,0.2292277216911316,walking,2026-03-04_14-02-19
1772632944192439600,4.846439453125,-0.7319356799170375,0.0457069814249873,-0.1946568951815366,0.3653801679611206,0.0366975329816341,0.1773955225944519,walking,2026-03-04_14-02-19
1772632944202388500,4.856388427734375,-0.6839112883951515,-0.0117924368634819,0.0116997901439666,0.4103545844554901,0.0681571885943412,0.1267403364181518,walking,2026-03-04_14-02-19
1772632944212337400,4.86633740234375,-0.5484629900401458,-0.045424072830379,0.320379954868555,0.4308522939682007,0.0873021408915519,0.0631450712680816,walking,2026-03-04_14-02-19
1772632944222286600,4.87628662109375,-0.4254159811619669,0.0548076949864625,0.6075771865814924,0.4373296499252319,0.0885868519544601,-0.004965535365045,walking,2026-03-04_14-02-19
1772632944232235800,4.88623583984375,-0.2649360443377867,0.1948468647956848,0.8362561783522366,0.4294176697731018,0.0858039036393165,-0.0697205364704132,walking,2026-03-04_14-02-19
1772632944242184700,4.896184814453125,-0.0023780177103355,0.3804886788725852,1.0118021303504705,0.4131985008716583,0.0773936435580253,-0.1224892064929008,walking,2026-03-04_14-02-19
1772632944252133600,4.906133544921875,0.1985670908952131,0.6116320149302482,1.1745932301938533,0.3903753757476806,0.0581889525055885,-0.1598701626062393,walking,2026-03-04_14-02-19
1772632944262082600,4.91608251953125,0.318199651687406,0.9068854195877908,1.3620850560516118,0.3566110134124756,0.0280843116343021,-0.1825581640005111,walking,2026-03-04_14-02-19
1772632944272031500,4.926031494140625,0.4399164348751306,1.1249039011344313,1.472567291986942,0.3121376037597656,-0.0062360595911741,-0.1902761757373809,walking,2026-03-04_14-02-19
1772632944281980400,4.93598046875,0.4865552172575145,1.2393155854731797,1.439351835605502,0.2676399052143097,-0.0304204914718866,-0.1974496692419052,walking,2026-03-04_14-02-19
1772632944291929600,4.9459296875,0.4998680320886894,1.3883561001226306,1.4282991111934185,0.2123706340789795,-0.0463856384158134,-0.2030090689659118,walking,2026-03-04_14-02-19
1772632944301878800,4.955878662109375,0.5797621644714847,1.5127499570325016,1.4167583110034463,0.1511498838663101,-0.0702070817351341,-0.1982963383197784,walking,2026-03-04_14-02-19
1772632944311827700,4.96582763671875,0.6372619846187532,1.5884078400850294,1.3862714028030634,0.0848066210746765,-0.0858445093035698,-0.1771419942378997,walking,2026-03-04_14-02-19
1772632944321776600,4.975776611328125,0.5755208736399189,1.5971829749539497,1.3365987326174973,0.0071288724429905,-0.0920739099383354,-0.1609875261783599,walking,2026-03-04_14-02-19
1772632944331725600,4.9857255859375,0.483604660356231,1.5587988837629556,1.2998141855776308,-0.0772972777485847,-0.1203224062919616,-0.1631542444229126,walking,2026-03-04_14-02-19
1772632944341674500,4.995674560546875,0.4145345216635614,1.5199845844611524,1.1822376074671743,-0.1605836451053619,-0.1632253974676132,-0.1750220954418182,walking,2026-03-04_14-02-19
1772632944351623400,5.00562353515625,0.3074866075584664,1.4860805612936616,0.942730932211876,-0.2387582063674926,-0.2063663154840469,-0.1929885149002075,walking,2026-03-04_14-02-19
1772632944361572600,5.015572509765625,0.1373966194111854,1.499880538587272,0.6412549997776746,-0.3127900660037994,-0.2354325801134109,-0.2175071835517883,walking,2026-03-04_14-02-19
1772632944371521800,5.025521728515625,0.0086729166034609,1.51730396707505,0.2647714648932218,-0.3692196309566498,-0.2362768501043319,-0.2479203790426254,walking,2026-03-04_14-02-19
1772632944381471700,5.0354716796875,-0.0039483722995966,1.544711613960564,-0.1310188280075788,-0.4026159346103668,-0.2180946469306945,-0.2689998149871826,walking,2026-03-04_14-02-19
1772632944391420700,5.045420654296875,0.0803498767936602,1.5682117320135236,-0.5133797304928303,-0.4016255140304565,-0.1498424261808395,-0.2736357152462005,walking,2026-03-04_14-02-19
1772632944401369600,5.05536962890625,0.234493998192437,1.610350791823864,-0.8218880457818508,-0.3583478033542633,-0.027624100446701,-0.2333844453096389,walking,2026-03-04_14-02-19
1772632944411318500,5.065318603515625,0.4972613567216321,1.608796840380132,-0.9095324269652366,-0.2857046127319336,0.1134129390120506,-0.149692952632904,walking,2026-03-04_14-02-19
1772632944421267500,5.075267333984375,0.7712451423246413,1.5279355434656143,-0.6687865653038024,-0.209607720375061,0.2099770307540893,-0.0319559387862682,walking,2026-03-04_14-02-19
1772632944431216600,5.085216552734375,0.9581671324051916,1.2972928504064678,-0.2126169147640466,-0.1465515792369842,0.2430227398872375,0.0829822123050689,walking,2026-03-04_14-02-19
1772632944441165600,5.09516552734375,0.9878620865102856,0.966339771336317,0.2968459345459938,-0.1049583181738853,0.233217254281044,0.1752242445945739,walking,2026-03-04_14-02-19
1772632944451114800,5.10511474609375,0.8834693265564739,0.5745177975445985,0.8098591698139905,-0.1010824665427208,0.1802468001842498,0.2340407967567443,walking,2026-03-04_14-02-19
1772632944461063700,5.115063720703125,0.7219246465776116,0.1563537602722644,1.1750427275270223,-0.1287026554346084,0.1116938441991806,0.2506884932518005,walking,2026-03-04_14-02-19
1772632944471012600,5.1250126953125,0.5644137156268582,-0.1789046147763729,1.3497995749741791,-0.1710376888513565,0.0347171276807785,0.2238844782114029,walking,2026-03-04_14-02-19
1772632944480961500,5.13496142578125,0.4404342482041567,-0.3915782281637192,1.3454378726333378,-0.208483338356018,-0.0300086066126823,0.1680664867162704,walking,2026-03-04_14-02-19
1772632944490910500,5.144910400390625,0.3252514333624393,-0.4909492874979972,1.204165361636877,-0.23795185983181,-0.0625622570514679,0.0974644720554351,walking,2026-03-04_14-02-19
1772632944500859400,5.154859375,0.1711586402921006,-0.4661436398044228,1.0442162072211505,-0.2657499313354492,-0.0935172438621521,0.0200208164751529,walking,2026-03-04_14-02-19
1772632944510808800,5.164808837890625,0.1724065579939633,-0.3975529186591506,0.7766600800454616,-0.2753073871135711,-0.1191926077008247,-0.0383339412510395,walking,2026-03-04_14-02-19
1772632944520757800,5.1747578125,0.2666157775856554,-0.256999661847949,0.4780412906080484,-0.264857679605484,-0.1134817227721214,-0.0719608813524246,walking,2026-03-04_14-02-19
1772632944530706700,5.184706787109375,0.3274708629775792,-0.1199712181620299,0.2823275798499584,-0.2485090941190719,-0.0880684331059455,-0.0755180791020393,walking,2026-03-04_14-02-19
1772632944540655600,5.194655517578125,0.3303414865104481,-0.0854397107459604,0.2156283715397119,-0.2497064620256424,-0.0604565106332302,-0.0692186430096626,walking,2026-03-04_14-02-19
1772632944550604500,5.2046044921875,0.3341081090349704,-0.1100413603000342,0.1528635800689458,-0.2643598020076751,-0.0277551282197237,-0.0654492303729057,walking,2026-03-04_14-02-19
1772632944560553500,5.214553466796875,0.2740168476223945,-0.1584552625961601,0.0395487510561943,-0.2701098322868347,0.0181239452213048,-0.0609540864825248,walking,2026-03-04_14-02-19
1772632944570502400,5.22450244140625,0.1878255147915333,-0.1882232088722288,-0.0142623341083526,-0.2709283828735351,0.0477109737694263,-0.0561358593404293,walking,2026-03-04_14-02-19
1772632944580451600,5.23445166015625,0.1079517676096409,-0.2304462937042116,-0.0457002594232559,-0.2583659887313843,0.0451484806835651,-0.052348043769598,walking,2026-03-04_14-02-19
1772632944590400800,5.24440087890625,0.0045850993005558,-0.2858525391057133,-0.1263274553209543,-0.2263331860303878,0.0445813499391078,-0.0542595051229,walking,2026-03-04_14-02-19
1772632944600349700,5.254349609375,-0.0869534763097763,-0.3452586677983403,-0.1727332326650619,-0.1797025650739669,0.0406550504267215,-0.0660328045487403,walking,2026-03-04_14-02-19
1772632944610298600,5.264298583984375,-0.1828039603024721,-0.4170668896853923,-0.1888631142109632,-0.1331376135349273,0.0158179141581058,-0.0851877853274345,walking,2026-03-04_14-02-19
1772632944620247600,5.27424755859375,-0.1482027486510574,-0.4941391695804893,-0.1849076545834541,-0.0768208056688308,-0.0116685703396797,-0.1088331937789917,walking,2026-03-04_14-02-19
1772632944630196500,5.284196533203125,-0.0349899552406743,-0.5328269198931753,-0.1410831259042024,-0.023703621700406,-0.037351943552494,-0.1138273850083351,walking,2026-03-04_14-02-19
1772632944640145700,5.294145751953125,0.0611999167742207,-0.5818043012909591,-0.0137865332901477,0.0073392488993704,-0.077931061387062,-0.102675125002861,walking,2026-03-04_14-02-19
1772632944650094600,5.304094482421875,0.1030829925294965,-0.6807322930328548,0.0860235019832849,0.0148635860532522,-0.1003970429301261,-0.0898191630840301,walking,2026-03-04_14-02-19
1772632944660043800,5.314043701171875,0.0622421923687681,-0.7674934616409241,0.0900005889207124,0.0049667470157146,-0.1048083007335662,-0.086589016020298,walking,2026-03-04_14-02-19
1772632944674346800,5.3283466796875,0.0183081389004364,-0.8470736327037215,0.0824737005472183,-0.0143316267058253,-0.1054723560810089,-0.0896001383662223,walking,2026-03-04_14-02-19
1772632944684295700,5.338295654296875,0.0386759502770379,-0.945005891406536,-0.0081564184486865,-0.0127456486225128,-0.1069125384092331,-0.0912733972072601,walking,2026-03-04_14-02-19
1772632944694244600,5.34824462890625,0.0847108119495212,-1.0153544160045682,-0.1862871262431144,0.0078882565721869,-0.1024469509720802,-0.0927591770887374,walking,2026-03-04_14-02-19
1772632944704193500,5.358193603515625,0.1028007780546322,-1.0722802721887823,-0.3295440890550613,0.0482207350432872,-0.0796758532524108,-0.0980441942811012,walking,2026-03-04_14-02-19
1772632944714142500,5.368142578125,0.0925489947618916,-1.140662026758492,-0.3937865518629551,0.0941890254616737,-0.0659067779779434,-0.1154266446828842,walking,2026-03-04_14-02-19
1772632944724091600,5.378091552734375,0.0894668473701924,-1.2138739779636265,-0.3521352755695581,0.1302855312824249,-0.0660993978381156,-0.1485815644264221,walking,2026-03-04_14-02-19
1772632944734040600,5.38804052734375,0.1680726569755002,-1.2607510260812935,-0.240712543913722,0.1581054478883743,-0.0817084535956382,-0.1854658126831054,walking,2026-03-04_14-02-19
1772632944743989800,5.39798974609375,0.3381475206188857,-1.2385685664981605,-0.1550450157612562,0.1780700534582138,-0.0930698812007904,-0.206322506070137,walking,2026-03-04_14-02-19
1772632944753938700,5.407938720703125,0.5597457968810573,-1.162215686918795,-0.1387269181668758,0.1898095309734344,-0.0936898663640022,-0.2087893933057785,walking,2026-03-04_14-02-19
1772632944763887600,5.4178876953125,0.7581125428985804,-1.08188075196594,-0.1501999138176441,0.1936942338943481,-0.0759581997990608,-0.1848521083593368,walking,2026-03-04_14-02-19
1772632944773836500,5.42783642578125,0.8894235587857663,-1.0489632556177677,-0.12068448099792,0.1797717660665512,-0.0659351199865341,-0.1566686779260635,walking,2026-03-04_14-02-19
1772632944783785500,5.437785400390625,0.9361147289425136,-1.0381338185675442,-0.0893470934480428,0.1533124595880508,-0.0888391062617302,-0.1331178098917007,walking,2026-03-04_14-02-19
1772632944793734700,5.447734619140625,0.8902858747035265,-1.0546563526928423,-0.1159767416983842,0.1166178360581398,-0.1342279016971588,-0.1258769482374191,walking,2026-03-04_14-02-19
1772632944803683600,5.45768359375,0.7653077881649136,-1.0718446572504936,-0.2284919447660446,0.0752912685275077,-0.1620029509067535,-0.1290058642625808,walking,2026-03-04_14-02-19
1772632944813632500,5.467632568359375,0.5268296522397548,-1.0732999706253408,-0.4494955796033144,0.0375851653516292,-0.1432308703660965,-0.1449243873357772,walking,2026-03-04_14-02-19
1772632944823581700,5.477581787109375,0.2501816889287904,-1.0166780658237635,-0.6555225945830345,0.0094542168080806,-0.0960021764039993,-0.176192507147789,walking,2026-03-04_14-02-19
1772632944833530600,5.487530517578125,0.007345613522455,-0.8894367105282842,-0.7701742251574992,-0.0122968843206763,-0.0609890632331371,-0.2107273191213607,walking,2026-03-04_14-02-19
1772632944843479600,5.4974794921875,-0.1541430619528517,-0.7051765600681305,-0.728805272936821,-0.0399627722799778,-0.0729482173919677,-0.2526170611381531,walking,2026-03-04_14-02-19
1772632944853428500,5.507428466796875,-0.3490914143616333,-0.420254872071743,-0.641403468337655,-0.0802124589681625,-0.1199298352003097,-0.3002165555953979,walking,2026-03-04_14-02-19
1772632944863377700,5.517377685546875,-0.5945767256351188,-0.1400185654126107,-0.6061451079517602,-0.1425300687551498,-0.1905392557382583,-0.3630600273609161,walking,2026-03-04_14-02-19
1772632944873326600,5.52732666015625,-0.6964249522052705,0.2048820827282965,-0.7296434773266315,-0.1955104619264602,-0.3076618909835815,-0.4062466621398926,walking,2026-03-04_14-02-19
1772632944883275500,5.537275634765625,-0.66939497952573,0.5725609643884003,-1.2047726798802614,-0.2049134671688079,-0.3776268661022186,-0.424714058637619,walking,2026-03-04_14-02-19
1772632944893224700,5.547224609375,-0.5972046995185315,0.929508608675748,-1.7883587500214575,-0.1724149137735366,-0.4059045910835266,-0.4290696680545807,walking,2026-03-04_14-02-19
1772632944903174100,5.557174072265625,-0.5407295097112655,1.2775897865489123,-2.2918413558781148,-0.0998226329684257,-0.3705214560031891,-0.4128099381923675,walking,2026-03-04_14-02-19
1772632944913123000,5.567123046875,-0.457588248633407,1.55475311550349,-2.6629583952933547,0.0086822751909494,-0.2608005404472351,-0.3673948049545288,walking,2026-03-04_14-02-19
1772632944923072000,5.577072021484375,-0.327593466443941,1.775914571250975,-2.825579399266839,0.1353388428688049,-0.1104163229465484,-0.2901773154735565,walking,2026-03-04_14-02-19
1772632944933021200,5.587021240234375,-0.1477732529263012,1.9380887082397935,-2.6746669532656666,0.2654686272144317,0.0471506677567958,-0.1777855455875396,walking,2026-03-04_14-02-19
1772632944942970400,5.596970458984375,0.0920104491720907,1.980507023382932,-2.195554818555713,0.3746077716350555,0.1696899384260177,-0.0448987893760204,walking,2026-03-04_14-02-19
1772632944952920300,5.60692041015625,0.2378032871372066,1.813208090726286,-1.4707558586508034,0.4451594352722168,0.2392003089189529,0.069520466029644,walking,2026-03-04_14-02-19
1772632944962869200,5.616869140625,0.2131910065912641,1.5386786174066365,-0.7124556111603975,0.4761168658733368,0.2638961672782898,0.1414735317230224,walking,2026-03-04_14-02-19
1772632944972818200,5.626818115234375,0.0520375726860016,1.2502205719776451,-0.0313707052975893,0.4854419231414795,0.2663159072399139,0.1697179675102234,walking,2026-03-04_14-02-19
1772632944982767000,5.63676708984375,-0.1199336626306176,1.019926984617114,0.4611164592921734,0.4860258102416992,0.2459892481565475,0.1706655770540237,walking,2026-03-04_14-02-19
1772632944992716000,5.646716064453125,-0.242346282595396,0.8472007662147283,0.7805921587973833,0.4844202101230621,0.2130606025457382,0.1434259712696075,walking,2026-03-04_14-02-19
1772632945002665200,5.656665283203125,-0.4692098955072462,0.7640697708025574,1.0602776997059582,0.470094233751297,0.1894899606704712,0.0769260078668594,walking,2026-03-04_14-02-19
1772632945012614100,5.6666142578125,-0.6141542268842458,0.7084244559481739,1.3478735753476618,0.432850182056427,0.1236885860562324,-0.0121868234127759,walking,2026-03-04_14-02-19
1772632945023184400,5.677184326171875,-0.663632908867672,0.6070429335743188,1.53413498262763,0.3677087426185608,0.0390197671949863,-0.11685810983181,walking,2026-03-04_14-02-19
1772632945033133300,5.68713330078125,-0.7144380171492696,0.6224693430259823,1.586678239813447,0.2837606072425842,-0.0163610130548477,-0.2150277942419052,walking,2026-03-04_14-02-19
1772632945043082200,5.697082275390625,-0.752399206753075,0.6769423992305994,1.560797364103794,0.1877805590629577,-0.0474108085036277,-0.2886207997798919,walking,2026-03-04_14-02-19
1772632945053032200,5.7070322265625,-0.7336224639602005,0.7766422521278261,1.414596164533496,0.094212032854557,-0.0361122898757457,-0.3356750905513763,walking,2026-03-04_14-02-19
1772632945062981000,5.716981201171875,-0.6935908978231251,0.8982458937972784,1.2138380298674103,0.007478202227503,0.0005879343952983,-0.3708197474479675,walking,2026-03-04_14-02-19
1772632945072930000,5.726929931640625,-0.6575305003393441,1.0171312164187432,1.0742238074719903,-0.0753588750958442,0.0115110166370868,-0.3895756304264068,walking,2026-03-04_14-02-19
1772632945082879200,5.736879150390625,-0.5777109675627201,1.0953501821309328,0.929489173322916,-0.1435142308473587,0.0011678317096084,-0.3884578943252563,walking,2026-03-04_14-02-19
1772632945092828200,5.746828125,-0.5524746733669191,1.2124874920412898,0.6905997531831264,-0.1831244081258773,-0.0088454093784093,-0.370373398065567,walking,2026-03-04_14-02-19
1772632945102777300,5.75677734375,-0.6054579659378155,1.3152923252165316,0.4196364479124546,-0.1983976364135742,-0.0202322863042354,-0.3455559313297272,walking,2026-03-04_14-02-19
1772632945112726300,5.766726318359375,-0.5693551175517961,1.341366385410726,0.2286427514135837,-0.1957722753286361,-0.0392163023352623,-0.3087817728519439,walking,2026-03-04_14-02-19
1772632945122675200,5.77667529296875,-0.429211683650501,1.2953355788588523,0.0987304233431816,-0.1866022199392318,-0.0570552200078964,-0.2537611424922943,walking,2026-03-04_14-02-19
1772632945132624100,5.7866240234375,-0.3256583336628973,1.1625523715272543,-0.0353600671947002,-0.1727822422981262,-0.061530664563179,-0.1819898635149002,walking,2026-03-04_14-02-19
1772632945142573000,5.796572998046875,-0.3227546115780249,1.0179489625424143,-0.0983645126402378,-0.1564919650554657,-0.0397763662040233,-0.1079412028193473,walking,2026-03-04_14-02-19
1772632945152522000,5.80652197265625,-0.3415099462566897,0.776549313147366,-0.0915051482647657,-0.1499421447515487,-0.0146575765684247,-0.0463157631456851,walking,2026-03-04_14-02-19
1772632945162471200,5.81647119140625,-0.3563826308157294,0.4799132219597697,0.0070569327741861,-0.1501842141151428,0.0069598350673913,-0.0029187567997723,walking,2026-03-04_14-02-19
1772632945172420400,5.82642041015625,-0.3700955874130129,0.1731108338057994,0.1507078633397817,-0.1501426547765731,0.0204316899180412,0.0235090982168912,walking,2026-03-04_14-02-19
1772632945182369300,5.836369384765625,-0.364758062309958,-0.0821741330787539,0.3047626990199089,-0.1456309854984283,0.0155687574297189,0.0413008779287338,walking,2026-03-04_14-02-19
1772632945192318200,5.846318115234375,-0.2603578497020528,-0.2782517087131738,0.4290437432050705,-0.1364146769046783,-0.0007655809167772,0.057653184980154,walking,2026-03-04_14-02-19
1772632945202267100,5.85626708984375,-0.1790232361873611,-0.4420870569124817,0.5022884276360273,-0.1152587905526161,-0.0299687385559082,0.0729850009083747,walking,2026-03-04_14-02-19
1772632945212216000,5.866216064453125,-0.1347173902645707,-0.5296127801522612,0.5596107357919216,-0.0875443816184997,-0.0549162253737449,0.0814245343208313,walking,2026-03-04_14-02-19
1772632945222165000,5.8761650390625,-0.0954079278569668,-0.5977694937944412,0.6014619185715914,-0.0577566623687744,-0.0640751048922538,0.082291655242443,walking,2026-03-04_14-02-19
1772632945232114200,5.8861142578125,-0.0867018396362662,-0.6512304503470658,0.7273474753439426,-0.0446059443056583,-0.082006499171257,0.0848944038152694,walking,2026-03-04_14-02-19
1772632945242063400,5.8960634765625,-0.0959560267264023,-0.676077599094808,0.8923965832471847,-0.0590938068926334,-0.10713741928339,0.090929128229618,walking,2026-03-04_14-02-19
1772632945252012300,5.90601220703125,-0.10496124402415,-0.689860040731728,0.9968822091162204,-0.0915657579898834,-0.138098731637001,0.0846003517508506,walking,2026-03-04_14-02-19
1772632945261961200,5.915961181640625,-0.169956534493342,-0.7381009245485067,1.0012965184271334,-0.1400323659181594,-0.1560273915529251,0.0665726140141487,walking,2026-03-04_14-02-19
1772632945271910100,5.92591015625,-0.3998973994260653,-0.656601329730451,0.8816109853386879,-0.1981862634420395,-0.1589552611112594,0.016098378226161,walking,2026-03-04_14-02-19
1772632945281859000,5.935859130859375,-0.5572119675545022,-0.6322841962061823,0.6948813760250806,-0.2521783709526062,-0.1497340649366378,-0.0452126488089561,walking,2026-03-04_14-02-19
1772632945291809000,5.94580908203125,-0.5273199565073475,-0.597330663985759,0.4008376394182443,-0.2807389795780182,-0.1226362586021423,-0.0902039855718612,walking,2026-03-04_14-02-19
1772632945301758200,5.95575830078125,-0.4726181695807725,-0.362340735502541,0.0726028793960809,-0.2767104208469391,-0.0721973180770874,-0.0938487872481346,walking,2026-03-04_14-02-19
1772632945311707100,5.96570703125,-0.2990618570297956,-0.1654743475779891,-0.1720563563168048,-0.2472506612539291,-0.0055945515632629,-0.0624191462993621,walking,2026-03-04_14-02-19
1772632945321656300,5.97565625,-0.1069406543383374,-0.0726584089756011,-0.3109603846162557,-0.1977654099464416,0.0747412964701652,-0.0001853348221629,walking,2026-03-04_14-02-19
1772632945331605200,5.985605224609375,0.006975793829374,-0.0723662941612303,-0.2882914566904306,-0.1378270834684372,0.1382384747266769,0.061030276119709,walking,2026-03-04_14-02-19
1772632945341554200,5.99555419921875,0.0923158435931429,-0.1263021747492253,-0.1051981580525636,-0.0859551057219505,0.1578388065099716,0.1155012398958206,walking,2026-03-04_14-02-19
1772632945351503000,6.005503173828125,0.1179712034512311,-0.2472830083452165,0.1249970835000276,-0.0459552407264709,0.1551595479249954,0.1594540774822235,walking,2026-03-04_14-02-19
1772632945361452000,6.0154521484375,0.0460792488034814,-0.3953590618766844,0.3654004153341054,-0.0234848167747259,0.1471322476863861,0.1870369613170623,walking,2026-03-04_14-02-19
1772632945371401000,6.02540087890625,-0.0317083397541195,-0.5250836122900248,0.5645154589682817,-0.0163141898810863,0.129379466176033,0.1954044699668884,walking,2026-03-04_14-02-19
1772632945381350400,6.035350341796875,-0.1102406822644174,-0.6367850147567689,0.7048474742442369,-0.0244815703481435,0.1191619709134101,0.186260238289833,walking,2026-03-04_14-02-19
1772632945391299300,6.04529931640625,-0.1531151802098378,-0.7086338609151541,0.7932312756180763,-0.049523901194334,0.0984587222337722,0.1756320595741272,walking,2026-03-04_14-02-19
1772632945401248300,6.055248291015625,-0.1349248590027913,-0.7524779710777103,0.7848059771001339,-0.0717165544629097,0.0954805091023445,0.1717430502176284,walking,2026-03-04_14-02-19
1772632945411197200,6.065197265625,-0.0796824989261105,-0.76094111738801,0.6506447594135999,-0.0866145566105842,0.0930824726819992,0.1742767989635467,walking,2026-03-04_14-02-19
1772632945421146000,6.07514599609375,-0.0446710259733721,-0.7246604282170533,0.5406044220268726,-0.0988778844475746,0.0902427434921264,0.1842287629842758,walking,2026-03-04_14-02-19
1772632945431095000,6.085094970703125,-0.0239956464849412,-0.7467594473004341,0.4003916492164134,-0.1031014621257782,0.0787987560033798,0.1889952272176742,walking,2026-03-04_14-02-19
1772632945441044000,6.0950439453125,-0.0078496175218373,-0.7418497556880116,0.2062877117425203,-0.0931990295648574,0.0538001917302608,0.1945263445377349,walking,2026-03-04_14-02-19
1772632945450993400,6.104993408203125,-0.0735652581548318,-0.6898823986940086,-0.0345019890606403,-0.0781157240271568,0.0225868206471204,0.194868266582489,walking,2026-03-04_14-02-19
1772632945460942300,6.1149423828125,-0.1591687811603769,-0.641149785837531,-0.2969680996209383,-0.0622179880738258,0.0116849038749933,0.1925193667411804,walking,2026-03-04_14-02-19
1772632945470891300,6.124891357421875,-0.2260931765286251,-0.6042166241072118,-0.5147112713575362,-0.0507346354424953,0.0162392295897007,0.1913722604513168,walking,2026-03-04_14-02-19
1772632945480840200,6.134840087890625,-0.2715264555787667,-0.5550155169561505,-0.6995943760216236,-0.0457952693104743,0.0281701907515525,0.1945544779300689,walking,2026-03-04_14-02-19
1772632945490789000,6.1447890625,-0.3087343425972387,-0.4762561607569456,-0.8972089519649743,-0.0376341827213764,0.0389395281672477,0.2045071572065353,walking,2026-03-04_14-02-19
1772632945500738000,6.154738037109375,-0.3131681603262201,-0.38581367328763,-1.1404559827923777,-0.0079021211713552,0.0685280486941337,0.2337209731340408,walking,2026-03-04_14-02-19
1772632945510687200,6.164687255859375,-0.3284692994304001,-0.2962900542289018,-1.4515636669248342,0.0575981065630912,0.1425119042396545,0.2832022607326507,walking,2026-03-04_14-02-19
1772632945520636200,6.17463623046875,-0.3792254540037363,-0.277768309110403,-1.649316190034151,0.1382679194211959,0.247078001499176,0.3376846611499786,walking,2026-03-04_14-02-19
1772632945530586400,6.18458642578125,-0.3755074929265305,-0.3769083361677825,-1.5741028358787297,0.222133994102478,0.3432689905166626,0.3918047249317169,walking,2026-03-04_14-02-19
1772632945540535300,6.194535400390625,-0.3361477616364136,-0.539364504968375,-1.2241454888701435,0.285753458738327,0.38264861702919,0.433298647403717,walking,2026-03-04_14-02-19
1772632945550484200,6.204484130859375,-0.2350426815837621,-0.7616562799200415,-0.7114777060389519,0.3214088082313537,0.3460004329681396,0.4583986103534698,walking,2026-03-04_14-02-19
1772632945560433200,6.21443310546875,-0.2037386117815971,-0.927161607158184,-0.282930806440115,0.3220972418785095,0.2764967083930969,0.4674850404262543,walking,2026-03-04_14-02-19
1772632945570382000,6.224382080078125,-0.2797511534906923,-1.04707524991408,0.0389385102033615,0.2856256663799286,0.2145627290010452,0.4364979267120361,walking,2026-03-04_14-02-19
1772632945580331000,6.2343310546875,-0.3419579822851344,-1.0734963699802755,0.2169201649159192,0.2210488319396972,0.1387579888105392,0.375089943408966,walking,2026-03-04_14-02-19
1772632945590280200,6.2442802734375,-0.2845552658367902,-0.9756687406957149,0.2255442008763551,0.1573022454977035,0.0535994991660118,0.3130881786346435,walking,2026-03-04_14-02-19
1772632945600229400,6.2542294921875,-0.1680176388526335,-0.8095989114426075,0.020966215661168,0.0793435424566268,-0.0327934473752975,0.2533673048019409,walking,2026-03-04_14-02-19
1772632945610178300,6.26417822265625,-0.1733899795407429,-0.5712611338362097,-0.2765472428828477,0.0208271816372871,-0.053089115768671,0.2080244719982147,walking,2026-03-04_14-02-19
1772632945620127200,6.274127197265625,-0.233352061615698,-0.280725259219855,-0.7368518012702464,-0.0242374986410141,-0.0332831889390945,0.1653190851211547,walking,2026-03-04_14-02-19
1772632945630076200,6.284076171875,-0.2845969130214303,0.0569425150580704,-1.0762772328704595,-0.0471619814634323,-0.009530859068036,0.1264121532440185,walking,2026-03-04_14-02-19
1772632945640025000,6.294025146484375,-0.2958428219180554,0.3639060851231217,-1.3193453999996183,-0.0502717569470405,0.0328490883111953,0.0938973575830459,walking,2026-03-04_14-02-19
1772632945649974000,6.30397412109375,-0.2165222516395151,0.6485491023086011,-1.4373334815204142,-0.0503546483814716,0.0789777934551239,0.0813168585300445,walking,2026-03-04_14-02-19
1772632945659923200,6.313923095703125,-0.0409144499188289,0.8476818277299404,-1.492301335504651,-0.0382234193384647,0.1363422721624374,0.1012655273079872,walking,2026-03-04_14-02-19
1772632945669872400,6.323872314453125,0.1041490143258124,1.0349277160026134,-1.4666747268170115,-0.0166210867464542,0.1700223237276077,0.1445523202419281,walking,2026-03-04_14-02-19
1772632945679821300,6.3338212890625,0.2178036697521805,1.188890635615587,-1.3430161984443665,0.0156891830265522,0.1661756485700607,0.1978530883789062,walking,2026-03-04_14-02-19
1772632945689770200,6.343770263671875,0.3093422453625127,1.221199352415651,-1.2662111911833285,0.0684002935886383,0.1251903474330902,0.2620666623115539,walking,2026-03-04_14-02-19
1772632945699719200,6.35371923828125,0.3041145373094827,1.3032412374168634,-1.211143383955955,0.1334027349948883,0.0898142382502555,0.3366197347640991,walking,2026-03-04_14-02-19
1772632945709668000,6.363668212890625,0.1399971572984009,1.287261285735667,-1.1305582736343145,0.191072329878807,0.0849856808781623,0.4107319712638855,walking,2026-03-04_14-02-19
1772632945719617000,6.373616943359375,-0.0984168273493647,1.133229538670182,-0.942187911376357,0.2191841304302215,0.1138508915901184,0.4596854150295257,walking,2026-03-04_14-02-19
1772632945729566200,6.383566162109375,-0.3921894919298589,0.8333636717811226,-0.6935556803792715,0.2215973883867263,0.1672616004943847,0.4655567407608032,walking,2026-03-04_14-02-19
1772632945739515400,6.393515380859375,-0.6109073539175093,0.5676628170832991,-0.4454541952580213,0.2217396050691604,0.2360979318618774,0.4407318234443664,walking,2026-03-04_14-02-19
1772632945749464300,6.40346435546875,-0.7013854241568594,0.3658572191908955,-0.233571439987421,0.2264344543218612,0.2916231751441955,0.3998948335647583,walking,2026-03-04_14-02-19
1772632945759413200,6.413413330078125,-0.6223923322670162,0.2148193932443857,-0.0139823481231927,0.2599828243255615,0.3269830346107483,0.3530708849430084,walking,2026-03-04_14-02-19
1772632945769362200,6.423362060546875,-0.4470740880774334,0.1771533871948719,0.2217149979770183,0.3148890435695648,0.3276010155677795,0.3052107691764831,walking,2026-03-04_14-02-19
1772632945779312000,6.43331201171875,-0.2625910521142184,0.2631254512518644,0.5799725558191537,0.3616363108158111,0.2671065032482147,0.2619940340518951,walking,2026-03-04_14-02-19
1772632945789261000,6.443260986328125,-0.1136208992872387,0.3734869834169745,0.9959890596687792,0.3852323889732361,0.1636530309915542,0.214620366692543,walking,2026-03-04_14-02-19
1772632945799210000,6.4532099609375,-0.030496552811563,0.5088046776622533,1.32650403958261,0.3765304982662201,0.0314244143664836,0.1629678308963775,walking,2026-03-04_14-02-19
1772632945809159200,6.4631591796875,0.0196308023389428,0.7078650684997438,1.5427964279890058,0.3408084809780121,-0.0904766619205474,0.1080913916230201,walking,2026-03-04_14-02-19
1772632945819108400,6.4731083984375,0.0870024300180375,0.9094657914698124,1.6366817493885757,0.278533399105072,-0.1969016343355178,0.0657583177089691,walking,2026-03-04_14-02-19
1772632945829057300,6.483057373046875,0.1585423563577234,1.0864932141974568,1.56572839076519,0.2070011347532272,-0.2651808857917785,0.0400616116821765,walking,2026-03-04_14-02-19
1772632945839006200,6.493006103515625,0.2134098917726427,1.2639181118100882,1.2979969070225954,0.1388100981712341,-0.2849319577217102,0.0331203453242778,walking,2026-03-04_14-02-19
1772632945848955100,6.502955078125,0.2432661008540541,1.400658824595809,1.027857193094492,0.0698530077934265,-0.2726886868476867,0.040351428091526,walking,2026-03-04_14-02-19
1772632945858904000,6.512904052734375,0.2467075100122019,1.4535308753445744,0.8631167127490044,-0.0042390674352645,-0.2542721331119537,0.056824941188097,walking,2026-03-04_14-02-19
1772632945868853000,6.52285302734375,0.1738445914404466,1.3762684797048568,0.7017039155215025,-0.0849310234189033,-0.2316543161869049,0.0657021626830101,walking,2026-03-04_14-02-19
1772632945878802200,6.53280224609375,-0.0146569959817454,1.26979869428128,0.5206248793154955,-0.1600665152072906,-0.2128441333770752,0.0484206452965736,walking,2026-03-04_14-02-19
1772632945888751400,6.54275146484375,-0.283490888008289,1.1303069292217491,0.3079980276793241,-0.2325250506401062,-0.2171742171049118,-0.004027409479022,walking,2026-03-04_14-02-19
1772632945898700300,6.5527001953125,-0.5623957268679515,0.9984285617753864,0.0749848060965538,-0.2901020646095276,-0.2244920581579208,-0.0858309343457222,walking,2026-03-04_14-02-19
1772632945908648200,6.562648193359375,-0.7590507735967635,0.9165802996501328,-0.2320101820200681,-0.3247244954109192,-0.2054156363010406,-0.1808481216430664,walking,2026-03-04_14-02-19
1772632945918597000,6.57259716796875,-0.7756941576227545,0.9126412066355348,-0.551307017827034,-0.3308513760566711,-0.1439312398433685,-0.2616881132125854,walking,2026-03-04_14-02-19
1772632945928546300,6.58254638671875,-0.5871966983864083,0.9131009331017732,-0.807797561109066,-0.3058852553367615,-0.0556359402835369,-0.3054459393024444,walking,2026-03-04_14-02-19
1772632945938495500,6.59249560546875,-0.2165160410944372,0.9182762899130582,-0.9542214635193348,-0.2480302155017852,0.0425721183419227,-0.2992655336856842,walking,2026-03-04_14-02-19
1772632945948444400,6.6024443359375,0.1387100766299292,0.9535808275282384,-0.8838999730587005,-0.1794032901525497,0.139111578464508,-0.2456889152526855,walking,2026-03-04_14-02-19
1772632945958393300,6.612393310546875,0.4355603220248594,0.9317679319098592,-0.5954588787645101,-0.108963742852211,0.2250480651855468,-0.1518614888191223,walking,2026-03-04_14-02-19
1772632945968342300,6.62234228515625,0.5961336362209171,0.8041276404246688,-0.166337978670001,-0.0589961484074592,0.2670114934444427,-0.0543108060956001,walking,2026-03-04_14-02-19
1772632945978291200,6.632291259765625,0.628077099905163,0.6044897419601678,0.390399832034111,-0.0367563553154468,0.2690602540969848,0.0360526442527771,walking,2026-03-04_14-02-19
1772632945988240100,6.642240234375,0.623465952847898,0.3351125368371606,0.9227870453357696,-0.0415120013058185,0.2400711625814438,0.0931257605552673,walking,2026-03-04_14-02-19
