time,seconds_elapsed,acc_x,acc_y,acc_z,gyr_x,gyr_y,gyr_z,activity,session
1772632973928821000,0.064821044921875,0.0421568511953577,-0.1888122608065605,0.1024058969855308,0.0061885030008852,-0.0134278405457735,0.025545947253704,walking,2026-03-04_14-02-53
1772632973938770200,0.074770263671875,0.0766967611135914,-0.1762441633954644,0.1611655444681644,-0.0073180743493139,-0.0352981016039848,0.0270018354058265,walking,2026-03-04_14-02-53
1772632973948719400,0.08471923828125,0.0512349510662257,-0.1155126313179731,0.1722597699344158,-0.0220581386238336,-0.0454162508249282,0.0309731401503086,walking,2026-03-04_14-02-53
1772632973958668300,0.094668212890625,0.0188635990924201,-0.0967296049147844,0.1043038395613431,-0.025647860020399,-0.0393741279840469,0.0328599624335765,walking,2026-03-04_14-02-53
1772632973968617200,0.1046171875,-0.0028692535596899,-0.0634545273005962,0.0333311917155981,-0.0235405005514621,-0.0291846059262752,0.030621575191617,walking,2026-03-04_14-02-53
1772632973978567200,0.114567138671875,-0.0265929147028364,-0.024108897601068,0.0563800588697195,-0.0310252271592617,-0.0406487360596656,0.0289393011480569,walking,2026-03-04_14-02-53
1772632973988516000,0.12451611328125,-0.0391501436600461,-0.0286322202444076,0.0687625705808401,-0.0357350260019302,-0.0653958991169929,0.0204478129744529,walking,2026-03-04_14-02-53
1772632973998465300,0.13446533203125,-0.0247473233687691,-0.0475455950289964,-0.0838531722068786,-0.0211570113897323,-0.0563046932220459,0.0072816279716789,walking,2026-03-04_14-02-53
1772632974008414200,0.144414306640625,-0.0142313179155811,0.0962272083505988,-0.3230821995645761,0.0135780656710267,-0.0118109937757253,0.0119014140218496,walking,2026-03-04_14-02-53
1772632974018363100,0.154363037109375,0.0745368066007271,0.1909735304936766,-0.4108037376374006,0.04131830483675,0.0399429537355899,0.0440729036927223,walking,2026-03-04_14-02-53
1772632974028312300,0.164312255859375,0.1535265922886319,0.1574506155982613,-0.242915022394061,0.0397800616919994,0.0603555515408515,0.0766404271125793,walking,2026-03-04_14-02-53
1772632974038261200,0.17426123046875,0.1721178041804582,0.0604369330450892,0.0059416650086641,0.0173375606536865,0.0635091513395309,0.0931481420993805,walking,2026-03-04_14-02-53
1772632974048210200,0.184210205078125,0.1481695222348906,-0.0608817542031407,0.1973129626482725,-0.0062087783589959,0.0624220445752143,0.0930541381239891,walking,2026-03-04_14-02-53
1772632974058159000,0.1941591796875,0.0899635448459535,-0.1417363291159272,0.3208504949897527,-0.0257181674242019,0.0498406365513801,0.0849011987447738,walking,2026-03-04_14-02-53
1772632974068108000,0.20410791015625,0.0627745274134911,-0.172153094689548,0.3742816409260034,-0.0330863334238529,0.0147966351360082,0.068851925432682,walking,2026-03-04_14-02-53
1772632974078057200,0.21405712890625,0.0262307668595574,-0.1799716594859957,0.3761398360133171,-0.0313089936971664,-0.0154313016682863,0.0493374429643154,walking,2026-03-04_14-02-53
1772632974088006100,0.224006103515625,0.0370573726318776,-0.180306882789731,0.3766571378856897,-0.0301441252231597,-0.0293862652033567,0.0369609333574771,walking,2026-03-04_14-02-53
1772632974097955300,0.233955322265625,0.0455490143842995,-0.1416699858814477,0.4320031775325536,-0.0458590313792228,-0.0446112528443336,0.0313979350030422,walking,2026-03-04_14-02-53
1772632974107904300,0.243904296875,0.0618420506026595,-0.1418088098302483,0.4689537287890911,-0.071273848414421,-0.0717315524816513,0.0218427758663892,walking,2026-03-04_14-02-53
1772632974117853200,0.253853271484375,0.0881516548520885,-0.1422168061092495,0.2935574143946171,-0.0776755511760711,-0.0608287788927555,0.0133663285523653,walking,2026-03-04_14-02-53
1772632974127802000,0.263802001953125,0.0738774841754697,-0.0472948351383209,0.1030699138522148,-0.0798976942896843,-0.0521404817700386,0.0113862678408622,walking,2026-03-04_14-02-53
1772632974137752300,0.27375244140625,0.0987578410730697,0.027283143723011,-0.0079851535350084,-0.0775968506932258,-0.0422579199075698,0.0238466020673513,walking,2026-03-04_14-02-53
1772632974147701200,0.283701171875,0.1229428909165784,0.0777750213369727,-0.1288432375341653,-0.0669596567749977,-0.0298486556857824,0.0379198119044303,walking,2026-03-04_14-02-53
1772632974157650200,0.293650146484375,0.0811444795037619,0.1023635191485285,-0.2158341232448816,-0.0578104592859745,-0.0241455398499965,0.0476353801786899,walking,2026-03-04_14-02-53
1772632974167599000,0.30359912109375,0.0312899134126491,0.1024868532672524,-0.2231868240952491,-0.0487530454993248,-0.0152633655816316,0.0487206205725669,walking,2026-03-04_14-02-53
1772632974177548300,0.31354833984375,-0.0036843328022398,0.0894663359135389,-0.2291325807571411,-0.0402912944555282,0.0067933169193565,0.0515212602913379,walking,2026-03-04_14-02-53
1772632974187497200,0.323497314453125,0.026518260297738,0.0849528040118515,-0.2426321137994527,-0.022606037557125,0.0383690856397151,0.0533109046518802,walking,2026-03-04_14-02-53
1772632974197446100,0.333446044921875,0.0885915806393139,0.1015581941150128,-0.1578127269089221,-0.0091032795608043,0.0499836020171642,0.0604472495615482,walking,2026-03-04_14-02-53
1772632974207395000,0.34339501953125,0.1386703108751215,0.0926036110259592,0.0001268412500619,0.003700399538502,0.0421576350927352,0.0720703527331352,walking,2026-03-04_14-02-53
1772632974217344300,0.35334423828125,0.1574274356520734,0.0836130798406899,0.1685410416722297,0.0041979234665632,0.0261996295303106,0.080371968448162,walking,2026-03-04_14-02-53
1772632974227293200,0.363293212890625,0.1409484301412478,0.0281022050209343,0.3527022618025541,-0.0190245732665061,-0.0143059864640235,0.0818297863006591,walking,2026-03-04_14-02-53
1772632974237242000,0.3732421875,0.0838069036460481,-0.0680197893895208,0.4407312583893537,-0.0483675524592399,-0.068459041416645,0.0670927688479423,walking,2026-03-04_14-02-53
1772632974247191300,0.38319140625,-0.0067609820349141,-0.1022583052083849,0.3180535577476024,-0.0723570436239242,-0.0792768001556396,0.0433956943452358,walking,2026-03-04_14-02-53
1772632974257140200,0.39314013671875,-0.0642156661325134,-0.0465247275486588,0.1397135911166667,-0.0890947878360748,-0.0648633018136024,0.0340908430516719,walking,2026-03-04_14-02-53
1772632974267089200,0.403089111328125,-0.0594474470837041,0.0327143749915063,0.022725042027235,-0.0992456972599029,-0.0513080768287181,0.035119891166687,walking,2026-03-04_14-02-53
1772632974277038000,0.4130380859375,-0.0045825785499066,0.0527769198112189,-0.1320160223513841,-0.0910356044769287,-0.0140448734164237,0.0477100573480129,walking,2026-03-04_14-02-53
1772632974286987000,0.422987060546875,0.0174333105609752,0.1125849073030054,-0.2750292395353317,-0.0639920011162757,0.0379834398627281,0.0638229846954345,walking,2026-03-04_14-02-53
1772632974296936200,0.432936279296875,0.011732486837171,0.1332026017874479,-0.2649807237297296,-0.0355110093951225,0.0609742887318134,0.0813254490494728,walking,2026-03-04_14-02-53
1772632974306886100,0.44288623046875,0.0539287384611554,0.0661291533373296,-0.1717792929410934,0.000853659119457,0.0457900092005729,0.0893910974264144,walking,2026-03-04_14-02-53
1772632974316835000,0.4528349609375,0.06404295818042,-0.0096665307506918,-0.0533884758383035,0.0269629340618848,0.0263617355376482,0.0932736694812774,walking,2026-03-04_14-02-53
1772632974326784300,0.4627841796875,0.0175751667170785,-0.0474533867008984,0.0966460182845592,0.0334956683218479,0.0122903920710086,0.0961368381977081,walking,2026-03-04_14-02-53
1772632974336733200,0.472733154296875,-0.0780954123977571,-0.106749186886847,0.2596639126211404,0.0170539338141679,0.0179405957460403,0.088518239557743,walking,2026-03-04_14-02-53
1772632974346682000,0.48268212890625,-0.1904848884602077,-0.1963460173122584,0.4165273759812116,-0.0165506303310394,0.0418866761028766,0.0628712028264999,walking,2026-03-04_14-02-53
1772632974356631300,0.49263134765625,-0.2621225943522527,-0.2603317288801073,0.546954083314538,-0.0648267790675163,0.0577880628407001,0.027249040082097,walking,2026-03-04_14-02-53
1772632974366580200,0.502580322265625,-0.2059340577329508,-0.2545062375970184,0.6456307306438684,-0.1146523877978324,0.0375943779945373,-0.0029860930517315,walking,2026-03-04_14-02-53
1772632974376529200,0.512529052734375,-0.046548364152573,-0.1721937189608812,0.5995709902584553,-0.139544129371643,0.0100299147889018,-0.0099934004247188,walking,2026-03-04_14-02-53
1772632974386478000,0.52247802734375,0.075322111759521,-0.0460483422085642,0.3975549644857645,-0.1368660479784011,-0.0073855612426996,0.0106181353330612,walking,2026-03-04_14-02-53
1772632974396427300,0.53242724609375,0.0758373860715888,0.0907204276278614,0.1612012003034353,-0.1196138560771942,-0.0279987454414367,0.036023624241352,walking,2026-03-04_14-02-53
1772632974406376200,0.542376220703125,0.0220921874837949,0.102138770481944,-0.0147235218793153,-0.0976134836673736,-0.0229517892003059,0.0517735593020916,walking,2026-03-04_14-02-53
1772632974416325000,0.5523251953125,-0.0611704532177187,0.0249218214191496,-0.1272784724354743,-0.0808700993657112,0.016619237139821,0.0554521046578884,walking,2026-03-04_14-02-53
1772632974426274300,0.5622744140625,-0.1238050972364842,-0.0442353014372289,-0.0820955148845911,-0.0829574838280677,0.0566433519124984,0.0574225783348083,walking,2026-03-04_14-02-53
1772632974436223200,0.57222314453125,-0.0700932163964025,-0.0806625594720244,0.0249345347702503,-0.0897935926914215,0.0779932588338851,0.0735867470502853,walking,2026-03-04_14-02-53
1772632974446172200,0.582172119140625,0.0294587159301154,-0.0965692997865378,0.0730401017695665,-0.0901765599846839,0.08847226947546,0.1060988828539848,walking,2026-03-04_14-02-53
1772632974456121000,0.59212109375,0.0470347411637194,-0.1112023669034242,0.1364390994906425,-0.0948411747813224,0.0745671838521957,0.1335849165916443,walking,2026-03-04_14-02-53
1772632974466071000,0.602071044921875,-0.0110375816418789,-0.2099750219531357,0.2307178041219711,-0.1034612953662872,0.0542898774147033,0.152337834239006,walking,2026-03-04_14-02-53
1772632974476020200,0.612020263671875,-0.0935049985787831,-0.3042895285502076,0.263456290641427,-0.1152256280183792,0.0445772893726825,0.1614022552967071,walking,2026-03-04_14-02-53
1772632974485969200,0.62196923828125,-0.2012416438667103,-0.3817351718023419,0.2837088050752878,-0.1222984567284584,0.0346740595996379,0.1655756831169128,walking,2026-03-04_14-02-53
1772632974495918300,0.63191845703125,-0.1946914185056462,-0.4719523260831832,0.2647106746166944,-0.1224066764116287,0.0209803711622953,0.1783020943403244,walking,2026-03-04_14-02-53
1772632974505867300,0.6418671875,-0.1146310079115442,-0.568032234917581,0.215150817155838,-0.1186902374029159,0.0094595365226268,0.1999448090791702,walking,2026-03-04_14-02-53
1772632974515816200,0.651816162109375,-0.1045675867977552,-0.701626466371119,0.2056616887986659,-0.1203461810946464,0.0082215704023838,0.2145650535821914,walking,2026-03-04_14-02-53
1772632974525765000,0.66176513671875,-0.1485848798364401,-0.8978916735321283,0.2318167052745819,-0.1369224935770034,0.0218838527798652,0.2200357168912887,walking,2026-03-04_14-02-53
1772632974535714000,0.671714111328125,-0.1570177406063303,-1.0804656244710087,0.2480243282318115,-0.160702496767044,0.0407463684678077,0.215444341301918,walking,2026-03-04_14-02-53
1772632974545663200,0.681663330078125,-0.1450256895175203,-1.236784751821309,0.2931827358633279,-0.1864880323410034,0.0412675477564334,0.2062242031097412,walking,2026-03-04_14-02-53
1772632974555612200,0.691612060546875,-0.1145021756337955,-1.329903911153972,0.3135778736382723,-0.2052203267812729,0.0199310854077339,0.1934861093759536,walking,2026-03-04_14-02-53
1772632974565561300,0.701561279296875,-0.0815520191250368,-1.3534475760877132,0.2288537638157605,-0.2025585025548935,-0.0156458169221878,0.1676936596632003,walking,2026-03-04_14-02-53
1772632974575510300,0.71151025390625,-0.0729618854342028,-1.2766986829280853,-0.0190390469908714,-0.1691735088825225,-0.041511196643114,0.147281676530838,walking,2026-03-04_14-02-53
1772632974585459200,0.721459228515625,-0.0896128499784506,-1.0972925483703613,-0.2316349189668893,-0.1193044930696487,-0.0443445369601249,0.1340377777814865,walking,2026-03-04_14-02-53
1772632974595408100,0.731408203125,-0.0845435656238347,-0.8696760712645948,-0.336413390302658,-0.0703988671302795,-0.0222457982599735,0.1318325698375702,walking,2026-03-04_14-02-53
1772632974605357000,0.741357177734375,-0.0369026935268193,-0.6913995252586901,-0.3098831107735633,-0.0351314283907413,0.0123774260282516,0.1433962881565094,walking,2026-03-04_14-02-53
1772632974615306200,0.75130615234375,0.0453045563702471,-0.5484522129178047,-0.1466220553308725,-0.01879851706326,0.0546578429639339,0.1655715256929397,walking,2026-03-04_14-02-53
1772632974625256200,0.761256103515625,0.1007070389120839,-0.4166347818784415,0.080499185603857,-0.0227839387953281,0.0881220623850822,0.2005175352096557,walking,2026-03-04_14-02-53
1772632974635205400,0.771205322265625,0.1288781444507651,-0.3385647231176495,0.3358756301641464,-0.0398346558213233,0.1133234426379203,0.2384968101978302,walking,2026-03-04_14-02-53
1772632974645154300,0.781154296875,0.1035896086110733,-0.3458610176056623,0.6098521457761525,-0.0708469003438949,0.1172084584832191,0.273183673620224,walking,2026-03-04_14-02-53
1772632974655103200,0.791103271484375,0.0229084905690513,-0.3757043672055006,0.8193313470363617,-0.1082194820046424,0.0890656784176826,0.2913021743297577,walking,2026-03-04_14-02-53
1772632974665052200,0.80105224609375,-0.1027798448644578,-0.4437671189539134,0.922359175312519,-0.1420791745185852,0.0526679940521717,0.2904843091964721,walking,2026-03-04_14-02-53
1772632974675001000,0.8110009765625,-0.2622818948335014,-0.4959292678676545,0.9004729221969843,-0.1635538637638092,0.0225672777742147,0.2821550965309143,walking,2026-03-04_14-02-53
1772632974684950000,0.820949951171875,-0.3791115818331018,-0.5372491202495991,0.7819085020929575,-0.1686127930879593,0.0185187403112649,0.2734337747097015,walking,2026-03-04_14-02-53
1772632974694899200,0.830899169921875,-0.4223445743599906,-0.5667616304598748,0.6574421644687652,-0.1608073711395263,0.0273711010813713,0.2717824578285217,walking,2026-03-04_14-02-53
1772632974704848400,0.840848388671875,-0.4426263514209538,-0.6114810621522366,0.634555209878087,-0.1547329723834991,0.0170159321278333,0.2638571560382843,walking,2026-03-04_14-02-53
1772632974714797300,0.85079736328125,-0.3863448940875008,-0.6486055086709559,0.6259697523623704,-0.152227908372879,-0.018109118565917,0.2598101794719696,walking,2026-03-04_14-02-53
1772632974724746200,0.860746337890625,-0.3287131546562537,-0.6419963196642696,0.5384580576479434,-0.1445196568965912,-0.03786151856184,0.2690238952636719,walking,2026-03-04_14-02-53
1772632974734695200,0.870695068359375,-0.3503563197309151,-0.6442810696005821,0.4206652064383029,-0.1493563055992126,-0.0345909968018531,0.280678927898407,walking,2026-03-04_14-02-53
1772632974744644000,0.88064404296875,-0.395667031847313,-0.7265054715618491,0.3506850767612457,-0.1705587953329086,-0.0040615829639136,0.2836930751800537,walking,2026-03-04_14-02-53
1772632974754593000,0.890593017578125,-0.3947625938208773,-0.8441399173393845,0.2702098565548658,-0.1866633296012878,0.0524182319641113,0.2891283631324768,walking,2026-03-04_14-02-53
1772632974764542200,0.900542236328125,-0.3703293231036514,-0.9285290961191056,0.1821037030786275,-0.1859072595834732,0.123925432562828,0.2957101166248321,walking,2026-03-04_14-02-53
1772632974774491100,0.9104912109375,-0.2765090662969276,-0.9956979677677154,0.1982709940254688,-0.1690874546766281,0.1675633043050766,0.303129494190216,walking,2026-03-04_14-02-53
1772632974784440300,0.9204404296875,-0.1395051542640663,-1.1013093827962874,0.3215729640454053,-0.1459648162126541,0.1526181846857071,0.3070680499076843,walking,2026-03-04_14-02-53
1772632974794390300,0.930390380859375,-0.0550552400067448,-1.2213581962391733,0.4770744914025068,-0.1223207339644432,0.1022432297468185,0.3024318516254425,walking,2026-03-04_14-02-53
1772632974804339200,0.940339111328125,-0.0584382883074693,-1.2885307211495935,0.5967582709252834,-0.1155158281326294,0.0332021079957485,0.2834603190422058,walking,2026-03-04_14-02-53
1772632974814288100,0.9502880859375,-0.1124700304853729,-1.3193120822519062,0.6587292816698551,-0.1295514404773712,-0.0284709874540567,0.2637328207492828,walking,2026-03-04_14-02-53
1772632974824237000,0.960237060546875,-0.1575609075723215,-1.3169137889385223,0.6001221944004297,-0.1568823903799057,-0.0572946481406688,0.2435748279094696,walking,2026-03-04_14-02-53
1772632974834186000,0.97018603515625,-0.2303270877713337,-1.2487953614801168,0.340109906733036,-0.1768622398376464,-0.033375933766365,0.2278545647859573,walking,2026-03-04_14-02-53
1772632974844135200,0.98013525390625,-0.2745235185028985,-1.1391539602831005,-0.0149468092411756,-0.1843001693487167,0.0277113877236843,0.2307696640491485,walking,2026-03-04_14-02-53
1772632974854084400,0.99008447265625,-0.2180169471766799,-1.0599294707901776,-0.2610778710722923,-0.1740684956312179,0.0910152345895767,0.2626195251941681,walking,2026-03-04_14-02-53
1772632974864033300,1.000033203125,-0.1208418817830272,-1.0078672751195727,-0.4761614682108163,-0.1414647400379181,0.1408416479825973,0.3046745657920837,walking,2026-03-04_14-02-53
1772632974873982200,1.009982177734375,-0.1013704895231872,-1.0260738168090582,-0.6422036788046359,-0.0792801976203918,0.1759776026010513,0.3424561619758606,walking,2026-03-04_14-02-53
1772632974883931100,1.01993115234375,-0.1600348416714929,-1.0771177753478287,-0.6600631606221199,-0.0072403540834784,0.2008669823408126,0.3699517250061035,walking,2026-03-04_14-02-53
1772632974893880000,1.029880126953125,-0.2141390097647905,-1.1869703350774945,-0.5483031598359346,0.0569884367287159,0.2025419026613235,0.3834447860717773,walking,2026-03-04_14-02-53
1772632974903829000,1.0398291015625,-0.2624480999795719,-1.3330284729152917,-0.2951823852479457,0.0985752865672111,0.184849202632904,0.386378526687622,walking,2026-03-04_14-02-53
1772632974913778200,1.049778076171875,-0.2999746427594684,-1.4745982132926585,-0.037771804511547,0.1151990965008735,0.1558986157178878,0.3772103190422058,walking,2026-03-04_14-02-53
1772632974923727400,1.059727294921875,-0.3475737398076802,-1.597780356325209,0.1840484074056148,0.1028566733002662,0.1228109672665596,0.3547316491603851,walking,2026-03-04_14-02-53
1772632974933675800,1.06967578125,-0.3372289444692433,-1.6679504556164144,0.2660860546231269,0.0762499719858169,0.1066563352942466,0.331675261259079,walking,2026-03-04_14-02-53
1772632974943624700,1.079624755859375,-0.2789229225056245,-1.6897630589738488,0.1986415809035301,0.0533158928155899,0.1058699041604995,0.3224378228187561,walking,2026-03-04_14-02-53
1772632974953573600,1.08957373046875,-0.2690123355996794,-1.6187502252481878,0.0632797552555799,0.0415179505944252,0.1093239113688469,0.3206937909126282,walking,2026-03-04_14-02-53
1772632974963523800,1.09952392578125,-0.2701355857422575,-1.5463275247246029,-0.0700011724650859,0.036490436643362,0.0998561084270477,0.323285311460495,walking,2026-03-04_14-02-53
1772632974973472800,1.10947265625,-0.3169992629216984,-1.4887445198059082,-0.2242629288941621,0.0351701751351356,0.0629561841487884,0.3162466585636139,walking,2026-03-04_14-02-53
1772632974983421700,1.119421630859375,-0.4186888283314183,-1.4398704526521264,-0.4389057965278625,0.0398573391139507,0.0245661903172731,0.2900336980819702,walking,2026-03-04_14-02-53
1772632974993371000,1.129370849609375,-0.4753883649464696,-1.392576202035695,-0.707531014239788,0.0539910420775413,0.021400474011898,0.2585827112197876,walking,2026-03-04_14-02-53
1772632975003319800,1.13931982421875,-0.4786000204693525,-1.2922272375799717,-0.960364204058051,0.0730515569448471,0.0518137738108634,0.2366776764392852,walking,2026-03-04_14-02-53
1772632975013268700,1.149268798828125,-0.5008500288633629,-1.0895865040376782,-1.0176397504627703,0.0618335232138633,0.0538469664752483,0.223080113530159,walking,2026-03-04_14-02-53
1772632975023218000,1.159218017578125,-0.5251065182415768,-0.973549848845601,-0.9627601592838764,0.0200431998819112,0.0393697582185268,0.2008528411388397,walking,2026-03-04_14-02-53
1772632975033166800,1.169166748046875,-0.5652403391767293,-0.8164629519931972,-0.967111924752593,-0.027161730453372,0.0039051407948136,0.16907899081707,walking,2026-03-04_14-02-53
1772632975043115800,1.17911572265625,-0.6831864081867038,-0.5534535283364356,-1.133088084372878,-0.0626118630170822,-0.0163854844868183,0.1261360645294189,walking,2026-03-04_14-02-53
1772632975053064700,1.189064697265625,-0.81287691019997,-0.2612549812048673,-1.3913789550751448,-0.079395905137062,0.0068097221665084,0.0757306963205337,walking,2026-03-04_14-02-53
1772632975063014000,1.199013916015625,-0.91477164279297,0.0483146797053515,-1.6110282526940107,-0.0772206410765647,0.0707447677850723,0.0352250784635543,walking,2026-03-04_14-02-53
1772632975072962800,1.208962890625,-0.9174897426452489,0.3321533947706222,-1.7137889544665812,-0.0579172149300575,0.1560495197772979,0.0085166189819574,walking,2026-03-04_14-02-53
1772632975082911700,1.218911865234375,-0.7757558977473527,0.5749564812228083,-1.6501655003398656,-0.0186883173882961,0.2294211983680725,0.0117859151214361,walking,2026-03-04_14-02-53
1772632975092860700,1.228860595703125,-0.5362892987741157,0.7737206655927003,-1.493539937388897,0.0370697602629661,0.2757014632225036,0.0439313501119613,walking,2026-03-04_14-02-53
1772632975102809900,1.238809814453125,-0.3386842213114723,0.9195929254695772,-1.216364333474636,0.0973440185189247,0.2968717515468597,0.0952193066477775,walking,2026-03-04_14-02-53
1772632975112758800,1.2487587890625,-0.1815938903929665,0.92439944896847,-0.8789408893465995,0.1570345610380172,0.3019742965698242,0.1614194065332412,walking,2026-03-04_14-02-53
1772632975122708700,1.258708740234375,-0.0723399541435763,0.7859197835609316,-0.5183458284676075,0.2043125927448272,0.2749525308609009,0.2323186099529266,walking,2026-03-04_14-02-53
1772632975132657700,1.26865771484375,-0.0591733428500592,0.5208526967220009,-0.135837626466155,0.2345681488513946,0.2208675444126129,0.2822734713554382,walking,2026-03-04_14-02-53
1772632975142606800,1.27860693359375,-0.1745437161531299,0.157413060066849,0.1189390986353158,0.2439736276865005,0.1660101562738418,0.289686381816864,walking,2026-03-04_14-02-53
1772632975152555800,1.2885556640625,-0.3432964278146624,-0.1428530581861734,0.268805250453949,0.2495910376310348,0.1294541954994201,0.2714419662952423,walking,2026-03-04_14-02-53
1772632975162505000,1.2985048828125,-0.4948882343821227,-0.3045379503533243,0.3286474324762821,0.259538471698761,0.1040593683719635,0.2472072094678878,walking,2026-03-04_14-02-53
1772632975172454000,1.308453857421875,-0.6536088699162006,-0.3571095568507909,0.3538596151441335,0.2717011868953705,0.0993042215704917,0.2218507677316665,walking,2026-03-04_14-02-53
1772632975182402800,1.31840283203125,-0.8842743593290447,-0.3850871125787496,0.3610790450036525,0.282378077507019,0.1099251732230186,0.1733154505491256,walking,2026-03-04_14-02-53
1772632975192351700,1.328351806640625,-1.1452679131187498,-0.4225838995411992,0.4286322397947311,0.2802473306655884,0.1335793435573578,0.0897060558199882,walking,2026-03-04_14-02-53
1772632975202300700,1.33830078125,-1.2787260971024632,-0.4758981410995125,0.5734510450959205,0.2568251192569732,0.15715391933918,-0.0198260266333818,walking,2026-03-04_14-02-53
1772632975212249900,1.348249755859375,-1.3397209562912582,-0.4758113395988941,0.7880167558401823,0.2108280211687088,0.1614396721124649,-0.1456798315048217,walking,2026-03-04_14-02-53
1772632975222198800,1.35819873046875,-1.3236314067557453,-0.3687991178616881,0.9449404249548912,0.1536012142896652,0.1647736877202987,-0.2720817327499389,walking,2026-03-04_14-02-53
1772632975232147700,1.368147705078125,-1.2334145447358489,-0.1656184322237968,1.0276800829619168,0.1043167114257812,0.1534278988838195,-0.3897846639156341,walking,2026-03-04_14-02-53
1772632975242097000,1.378096923828125,-0.99495511351116,0.1130164305880665,1.0522019452780484,0.0754698812961578,0.0920199453830719,-0.4836733341217041,walking,2026-03-04_14-02-53
1772632975252045800,1.3880458984375,-0.6602686200663447,0.4560752502545714,0.9821265385329724,0.074777640402317,-0.0018754372140392,-0.5388815999031067,walking,2026-03-04_14-02-53
1772632975261994800,1.397994873046875,-0.3283301832206547,0.8350343814723193,0.8189286114543676,0.0947968885302543,-0.0786333382129669,-0.5628258585929871,walking,2026-03-04_14-02-53
1772632975271943700,1.407943603515625,-0.1194854439390823,1.1812253616847097,0.6272878492236137,0.1177419275045394,-0.1204532980918884,-0.5547311305999756,walking,2026-03-04_14-02-53
1772632975281892900,1.417892822265625,0.0544072974920272,1.3928930128999053,0.540226820886135,0.1210490465164184,-0.1270478069782257,-0.5318349003791809,walking,2026-03-04_14-02-53
1772632975291841800,1.427841796875,0.1544862128347158,1.441776432403922,0.5369686958730221,0.0953816324472427,-0.1082057207822799,-0.4917501211166382,walking,2026-03-04_14-02-53
1772632975301792000,1.4377919921875,0.2912993332695215,1.4714800812721252,0.5268564671814442,0.0443213731050491,-0.0993318036198616,-0.4411516785621643,walking,2026-03-04_14-02-53
1772632975311741000,1.447740966796875,0.302371383436583,1.4653950622700154,0.4985229376226663,-0.007986762560904,-0.0662770047783851,-0.3949501812458038,walking,2026-03-04_14-02-53
1772632975321689900,1.45768994140625,0.2759674702335148,1.383720549276471,0.4304179541677236,-0.0620105825364589,-0.0374458879232406,-0.3658676743507385,walking,2026-03-04_14-02-53
1772632975331638800,1.467638671875,0.2249513495497405,1.2053814594283698,0.3626303660988808,-0.1095245108008384,-0.0518481358885765,-0.3567174077033996,walking,2026-03-04_14-02-53
1772632975341587700,1.477587646484375,0.1810098434273153,1.0338773301668465,0.2468243047922849,-0.1390520483255386,-0.1009099557995796,-0.3737320601940155,walking,2026-03-04_14-02-53
1772632975351536600,1.48753662109375,0.1267284008046612,0.9583081483110784,0.0390577526688575,-0.1475581377744674,-0.1600738316774368,-0.4005520939826965,walking,2026-03-04_14-02-53
1772632975361485800,1.49748583984375,0.0981288772534579,0.9698733522899448,-0.1893243019819259,-0.1428004056215286,-0.2181078344583511,-0.4241162538528442,walking,2026-03-04_14-02-53
1772632975371435000,1.50743505859375,0.2163612158589065,1.0218943391673263,-0.3952653922438621,-0.1259582489728927,-0.246919646859169,-0.4237281084060669,walking,2026-03-04_14-02-53
1772632975381384000,1.517384033203125,0.4235343321338295,1.0675278169646858,-0.5931622922599316,-0.0983127877116203,-0.2346459329128265,-0.3834395408630371,walking,2026-03-04_14-02-53
1772632975391332900,1.527332763671875,0.6321092780306935,1.1244649251952767,-0.6558867517203092,-0.0590070597827434,-0.2049175798892974,-0.3147107362747192,walking,2026-03-04_14-02-53
1772632975401281800,1.53728173828125,0.8493130821935831,1.0818538639590145,-0.6173106450885534,-0.0166678577661514,-0.1180862709879875,-0.2199730426073074,walking,2026-03-04_14-02-53
1772632975411230700,1.547230712890625,1.0636216033063828,0.830616857291013,-0.5884107138186693,0.0254712905734777,0.0137254949659109,-0.1138951033353805,walking,2026-03-04_14-02-53
1772632975421179600,1.5571796875,0.9827560686081648,0.6511977171212434,-0.3438590301334858,0.0381319597363472,0.1615123003721237,-0.0447969995439052,walking,2026-03-04_14-02-53
1772632975431128800,1.56712890625,0.730122931406647,0.4261259560622275,0.1667939057439565,0.0123274428769946,0.2556754648685455,-0.0148077085614204,walking,2026-03-04_14-02-53
1772632975441077800,1.577077880859375,0.6324910438898951,0.0725999567866325,0.7140723987072706,-0.0309776868671178,0.2640987634658813,-0.0180988442152738,walking,2026-03-04_14-02-53
1772632975451027000,1.58702685546875,0.5551937230672687,-0.1568156786955893,1.0852852997124194,-0.0662123784422874,0.2011504024267196,-0.049667689949274,walking,2026-03-04_14-02-53
1772632975460975900,1.596975830078125,0.4685934075767174,-0.1763077301509678,1.268933309623599,-0.0827122554183006,0.1022464632987976,-0.0920929089188575,walking,2026-03-04_14-02-53
1772632975470924800,1.6069248046875,0.43580520016402,-0.1393817288137972,1.3125719603419304,-0.0885943323373794,-0.004270726814866,-0.1398633122444152,walking,2026-03-04_14-02-53
1772632975480874800,1.616874755859375,0.4842214770803227,-0.0577533930495381,1.2363695951491591,-0.0859522074460983,-0.0786602720618248,-0.1696172207593917,walking,2026-03-04_14-02-53
1772632975490823700,1.62682373046875,0.5204979284675791,0.0679129680141806,1.0826333238989114,-0.087990865111351,-0.1009930074214935,-0.1790362894535064,walking,2026-03-04_14-02-53
1772632975500772600,1.636772705078125,0.5772008260834962,0.1781504354082047,0.9419722227990628,-0.1077970564365387,-0.0880923941731453,-0.1627728939056396,walking,2026-03-04_14-02-53
1772632975510722000,1.64672216796875,0.6737120390072464,0.2169691186241805,0.8406658114880323,-0.1426100432872772,-0.0636553913354873,-0.1258828490972519,walking,2026-03-04_14-02-53
1772632975520671000,1.6566708984375,0.7386706872604787,0.2201229064799845,0.7621972549289464,-0.1801190674304962,-0.0346045643091201,-0.0790325179696083,walking,2026-03-04_14-02-53
1772632975530620000,1.666619873046875,0.7613844772413373,0.1788635521136224,0.7097498593330382,-0.218591570854187,-0.023580890148878,-0.0351183228194713,walking,2026-03-04_14-02-53
1772632975540568800,1.67656884765625,0.6999981345169246,0.0322957111880183,0.6389730263203383,-0.2527913749217987,-0.03158875182271,-0.0061204936355352,walking,2026-03-04_14-02-53
1772632975550517800,1.686517822265625,0.6321585970651358,-0.1509706059291958,0.524055438286066,-0.2777585983276367,-0.0376510024070739,0.0067453002557158,walking,2026-03-04_14-02-53
1772632975560466700,1.696466796875,0.498223735480383,-0.317727979055047,0.3611930267721414,-0.2845747172832489,-0.036791868507862,0.0029926402494311,walking,2026-03-04_14-02-53
1772632975570415600,1.70641552734375,0.3815786295337602,-0.4356814276538789,0.1753004528045654,-0.2712943255901336,-0.0358549691736698,-0.0176141001284122,walking,2026-03-04_14-02-53
1772632975580364800,1.71636474609375,0.366215384978801,-0.5104292101241648,0.0473994645565748,-0.2357219606637954,-0.0402417257428169,-0.0374133735895156,walking,2026-03-04_14-02-53
1772632975590314000,1.72631396484375,0.4253926733516156,-0.5378663753651082,-0.0777460875034332,-0.1840677261352539,-0.0464866608381271,-0.044538740068674,walking,2026-03-04_14-02-53
1772632975600263000,1.736262939453125,0.527321527409926,-0.5643664058864116,-0.2050210528075695,-0.1212866231799125,-0.044923648238182,-0.036578819155693,walking,2026-03-04_14-02-53
1772632975610211800,1.7462119140625,0.6097123354466631,-0.5822875547632574,-0.2410276012122631,-0.0625249221920967,-0.0284433830529451,-0.0140056880190968,walking,2026-03-04_14-02-53
1772632975620160800,1.756160888671875,0.6383415965490042,-0.619346973221749,-0.139466922879219,-0.0252430662512779,-0.0035990211181342,0.0140725523233413,walking,2026-03-04_14-02-53
1772632975630109700,1.766109619140625,0.588054338129051,-0.6799106013864279,0.02252922719419,-0.0091804666444659,0.0170609913766384,0.0345512218773365,walking,2026-03-04_14-02-53
1772632975640059000,1.776058837890625,0.496310997194238,-0.7942802001491188,0.193298466309905,-0.0108241690322756,0.0274353362619876,0.0390240028500556,walking,2026-03-04_14-02-53
1772632975650008800,1.7860087890625,0.4528381680294871,-0.9268969648726284,0.3182943807661533,-0.012394418939948,0.0296450294554233,0.0264993775635957,walking,2026-03-04_14-02-53
1772632975659957800,1.795957763671875,0.4281108097365125,-0.9836109318718314,0.4016974711179733,-0.0135664772242307,0.0274473913013935,0.0111537110060453,walking,2026-03-04_14-02-53
1772632975669907000,1.805906982421875,0.4428010138681158,-1.0357339178189635,0.4713999528974294,-0.0131191052496433,0.0108121074736118,-0.0060333954170346,walking,2026-03-04_14-02-53
1772632975679855900,1.81585595703125,0.5210879302499816,-1.0340936032660304,0.5168541286051272,-0.009325698018074,-0.0322237759828567,-0.0177558306604623,walking,2026-03-04_14-02-53
1772632975689804800,1.8258046875,0.6258785669475794,-1.012645157045871,0.5149298825442791,-0.0027193706482648,-0.0963965952396392,-0.0210803486406803,walking,2026-03-04_14-02-53
1772632975699753700,1.835753662109375,0.7191473638840019,-0.952228097745031,0.4254968643784523,0.0104994960129261,-0.1588168293237686,-0.0179985389113426,walking,2026-03-04_14-02-53
1772632975709702700,1.84570263671875,0.6703850865416229,-0.9248144595101476,0.2551484810233116,0.0202254019677639,-0.2058437466621399,-0.0220234952867031,walking,2026-03-04_14-02-53
1772632975719651600,1.855651611328125,0.4581277988702058,-0.9375523605301976,0.0153939684867858,0.0235040187835693,-0.213643342256546,-0.0520668849349021,walking,2026-03-04_14-02-53
1772632975729601000,1.86560107421875,0.3719213780680671,-0.9445863508202136,-0.2590788062095642,0.03068483248353,-0.2000064551830291,-0.084607720375061,walking,2026-03-04_14-02-53
1772632975739550000,1.875550048828125,0.52043235241808,-0.9008562224261464,-0.5200432800352573,0.0510271228849887,-0.163705438375473,-0.0933058708906173,walking,2026-03-04_14-02-53
1772632975749499000,1.885498779296875,0.7346149090636521,-0.8123489408031106,-0.7285580201774835,0.0782512500882148,-0.119995504617691,-0.0713013783097267,walking,2026-03-04_14-02-53
1772632975759447800,1.89544775390625,0.8929088436182587,-0.7024382211454212,-0.828146521654725,0.1086957082152366,-0.0675687789916992,-0.0274915788322687,walking,2026-03-04_14-02-53
1772632975769396700,1.905396728515625,1.0352924576617777,-0.6633557724267244,-0.8493570674657821,0.13715361058712,-0.0281531065702438,0.0280151702463626,walking,2026-03-04_14-02-53
1772632975779345700,1.915345703125,1.1092593188874422,-0.6937206616826355,-0.8373568330705166,0.1606892943382263,-0.0141850933432579,0.0705426558852195,walking,2026-03-04_14-02-53
1772632975789294600,1.925294677734375,1.077463008588925,-0.7883161771781743,-0.7696224364936352,0.1658500283956527,-0.0111977038905024,0.0939328223466873,walking,2026-03-04_14-02-53
1772632975799244000,1.935244140625,0.9419291873749344,-0.8693124986492097,-0.6844131735026836,0.1527020037174224,-0.0316529124975204,0.0928800776600837,walking,2026-03-04_14-02-53
1772632975809193000,1.94519287109375,0.8312430263653398,-0.9090256464868784,-0.6692752256035804,0.1298676580190658,-0.0465693771839141,0.0747695788741111,walking,2026-03-04_14-02-53
1772632975819142000,1.955141845703125,0.7067630986072123,-0.819655172163248,-0.7283516839504242,0.1060912162065506,-0.047614935785532,0.0604465678334236,walking,2026-03-04_14-02-53
1772632975829091800,1.965091796875,0.5981431859450415,-0.6107261521317064,-0.7956780842483043,0.0802779123187065,-0.035963051021099,0.0625861063599586,walking,2026-03-04_14-02-53
1772632975839040800,1.975040771484375,0.4643984035722911,-0.3695927524574101,-0.7476426598757505,0.0390503071248531,-0.0352663695812225,0.0710509642958641,walking,2026-03-04_14-02-53
1772632975848989700,1.98498974609375,0.3145735701447352,-0.1540712022930383,-0.6397872653126716,-0.0255206916481256,-0.0357511900365352,0.0772926285862922,walking,2026-03-04_14-02-53
1772632975858938600,1.994938720703125,0.0927240956004709,0.0043618484713137,-0.5267021534025669,-0.1102680638432502,-0.0520526655018329,0.0760332196950912,walking,2026-03-04_14-02-53
1772632975868887800,2.0048876953125,-0.1916105132229626,0.1665589279443025,-0.5199959337621927,-0.2034820318222046,-0.0812366157770156,0.0578588135540485,walking,2026-03-04_14-02-53
1772632975878837000,2.0148369140625,-0.4195294804066419,0.3012389088079333,-0.6829162129431963,-0.2808314263820648,-0.1013224422931671,0.0214728452265262,walking,2026-03-04_14-02-53
1772632975888786000,2.024785888671875,-0.6392621454600245,0.4324076666802167,-1.0117559531211853,-0.3207479417324066,-0.0990187376737594,-0.0244252774864435,walking,2026-03-04_14-02-53
1772632975898734800,2.03473486328125,-0.6593310469552874,0.6659678546212613,-1.4055273074150083,-0.3101269900798797,-0.0886337459087371,-0.0421438217163085,walking,2026-03-04_14-02-53
1772632975908683800,2.044683837890625,-0.5359301100729033,0.9109224200189112,-1.8395511771202089,-0.2428764402866363,-0.0361196994781494,-0.0274778436869382,walking,2026-03-04_14-02-53
1772632975918632700,2.0546328125,-0.3603871537493541,1.1332415213689206,-2.20952839885056,-0.1173203885555267,0.0530631765723228,0.0318350121378898,walking,2026-03-04_14-02-53
1772632975928582100,2.06458203125,-0.2129916298279538,1.334128250850737,-2.3002625627428293,0.0458934381604194,0.1425779014825821,0.114725686609745,walking,2026-03-04_14-02-53
1772632975938531000,2.074531005859375,-0.0877629295291379,1.399697432217747,-2.1073516344457865,0.2157866060733795,0.2255766540765762,0.2066132575273513,walking,2026-03-04_14-02-53
1772632975948480300,2.084480224609375,-0.0420511988637968,1.3186390052959325,-1.6268436614632606,0.3519292771816253,0.2772444188594818,0.2859076857566833,walking,2026-03-04_14-02-53
1772632975958429200,2.09442919921875,-0.1371402700299397,1.1105230552129446,-0.9029355129182338,0.4331833720207214,0.280293732881546,0.3309904932975769,walking,2026-03-04_14-02-53
1772632975968378000,2.104378173828125,-0.3472857897117734,0.811208538596332,-0.2069569893062114,0.4588201344013214,0.2490671575069427,0.3293614983558655,walking,2026-03-04_14-02-53
1772632975978327000,2.1143271484375,-0.5660783243708312,0.5044653332836926,0.2943944497406482,0.4552568197250366,0.2051742672920227,0.2918626070022583,walking,2026-03-04_14-02-53
1772632975988276200,2.124276123046875,-0.7370545573007315,0.3278052825637161,0.4797849194049834,0.4476063847541809,0.1904689669609069,0.2350291311740875,walking,2026-03-04_14-02-53
1772632975998225200,2.13422509765625,-0.962039151532948,0.3364119289979338,0.5525958885937928,0.4281584024429321,0.1722050011157989,0.1274637877941131,walking,2026-03-04_14-02-53
1772632976008174000,2.144174072265625,-1.280335578125715,0.372650532592833,0.7417799053221941,0.3950104117393493,0.1680298596620559,0.0025440074969083,walking,2026-03-04_14-02-53
1772632976018124000,2.1541240234375,-1.2620118397973477,0.3108462567172944,0.8392325638145208,0.3465281128883362,0.1434358358383178,-0.1026535183191299,walking,2026-03-04_14-02-53
1772632976028073000,2.164072998046875,-1.297626758535951,0.4317129624143243,0.9457230997651817,0.2822047173976898,0.104966752231121,-0.1944427043199539,walking,2026-03-04_14-02-53
1772632976038022100,2.174022216796875,-1.3668696599796413,0.6190918294169009,0.9568880523800848,0.2151764333248138,0.082467570900917,-0.2718962132930755,walking,2026-03-04_14-02-53
1772632976047971300,2.183971435546875,-1.3265747667312622,0.8134189081221819,0.8812836530804633,0.1480135023593902,0.0632544234395027,-0.3233459293842315,walking,2026-03-04_14-02-53
1772632976057920300,2.193920166015625,-1.193409866605699,1.027384168755263,0.7430313666880131,0.0970445945858955,0.0455747656524181,-0.333545833826065,walking,2026-03-04_14-02-53
1772632976067869200,2.203869140625,-0.9987281292438508,1.2775319188818337,0.5128472310513258,0.0746715143322944,0.050072081387043,-0.2908107936382293,walking,2026-03-04_14-02-53
1772632976077818000,2.213818115234375,-0.817171977045387,1.4203098660051825,0.3242091577678919,0.0635866373777389,0.0721137300133705,-0.2059890925884246,walking,2026-03-04_14-02-53
1772632976087767000,2.22376708984375,-0.7462850347217171,1.3670333261087535,0.2672773102343082,0.0542908683419227,0.0990925505757331,-0.1169155687093734,walking,2026-03-04_14-02-53
1772632976097716000,2.233716064453125,-0.851493275776878,1.1523358056783677,0.3632505438238382,0.0311024580150842,0.0969380512833595,-0.0592999495565891,walking,2026-03-04_14-02-53
1772632976107665200,2.2436650390625,-0.976077759888023,0.8356574818067252,0.5477829353541136,-0.0119113624095916,0.0525160692632198,-0.0428320430219173,walking,2026-03-04_14-02-53
1772632976117614000,2.253614013671875,-1.1223830043546854,0.533398290040344,0.7125894666731357,-0.0713294148445129,-0.0245235860347747,-0.0570248253643512,walking,2026-03-04_14-02-53
1772632976127563300,2.263563232421875,-1.2471418951846658,0.302759542503953,0.7354296595126391,-0.1281698495149612,-0.0980569124221801,-0.0951308086514473,walking,2026-03-04_14-02-53
1772632976137512200,2.27351220703125,-1.276152739483118,0.0973778396904468,0.514732314145565,-0.1531023532152176,-0.104551300406456,-0.1397571414709091,walking,2026-03-04_14-02-53
1772632976147461000,2.283461181640625,-1.1566974349539727,0.0312036781676113,0.2571487149298191,-0.1487664133310318,-0.0580677650868892,-0.1782938539981842,walking,2026-03-04_14-02-53
1772632976157410000,2.29341015625,-0.915963921317458,0.0058861354291439,0.125585697042942,-0.1215329319238662,0.0037974696606397,-0.1884114742279052,walking,2026-03-04_14-02-53
1772632976167359200,2.303359130859375,-0.5408282208453864,0.0428692737810313,0.1241612171977758,-0.0671723932027816,0.0474732890725135,-0.1602588891983032,walking,2026-03-04_14-02-53
1772632976177308200,2.31330810546875,-0.1369979024171829,0.064642860302329,0.2543956168293952,0.0009209038689732,0.0613733902573585,-0.0996826216578483,walking,2026-03-04_14-02-53
1772632976187257000,2.323257080078125,0.1198215805582702,0.0402265041872859,0.5501514180511236,0.0524390414357185,0.0450316183269023,-0.0354017168283462,walking,2026-03-04_14-02-53
1772632976197207300,2.333207275390625,0.1553966787431389,-0.1293345281824469,0.9273977540016174,0.0682084187865257,0.0031566056422889,0.006329218391329,walking,2026-03-04_14-02-53
1772632976207156200,2.34315625,0.0795905463263392,-0.3780196584105491,1.231727906823158,0.0547641180455684,-0.0323886424303054,0.016602287068963,walking,2026-03-04_14-02-53
1772632976217105200,2.353105224609375,0.0065714873448014,-0.5525812755465507,1.4025491683870552,0.0164404306560754,-0.0603318586945533,0.0062540406361222,walking,2026-03-04_14-02-53
1772632976227054000,2.36305419921875,-0.134910209422931,-0.6284587926991283,1.5478326685905457,-0.0537698157131671,-0.0981436818838119,-0.0149013120681047,walking,2026-03-04_14-02-53
1772632976237003000,2.3730029296875,-0.3183210495773703,-0.7213435587540269,1.5263666867136954,-0.1267276406288147,-0.1129607111215591,-0.0534897185862064,walking,2026-03-04_14-02-53
1772632976246952000,2.382951904296875,-0.4260726915050298,-0.7907055565327405,1.3069435990661382,-0.1843133121728897,-0.0948759466409683,-0.1099356040358543,walking,2026-03-04_14-02-53
1772632976256901000,2.392901123046875,-0.4940124013956636,-0.7194361176975071,1.076349129062891,-0.2270024567842483,-0.0932868421077728,-0.1624592691659927,walking,2026-03-04_14-02-53
1772632976266850300,2.402850341796875,-0.4457565026728436,-0.579423689764738,0.8727548941880464,-0.2444910407066345,-0.1127942651510238,-0.1983092129230499,walking,2026-03-04_14-02-53
1772632976276799200,2.41279931640625,-0.252646362009272,-0.3303457608267665,0.5286421815544367,-0.2217076867818832,-0.1249681040644645,-0.1869295239448547,walking,2026-03-04_14-02-53
1772632976286748200,2.422748046875,-0.0668118383718654,-0.0104053664192557,0.2516980483084917,-0.1758854687213897,-0.1247168108820915,-0.1274911761283874,walking,2026-03-04_14-02-53
1772632976296697000,2.432697021484375,0.0540062058778479,0.1882096187382936,0.1060679266244173,-0.1352528184652328,-0.122613713145256,-0.047248002141714,walking,2026-03-04_14-02-53
1772632976306646000,2.44264599609375,0.1051523096168413,0.2156212111465632,0.1382569625675678,-0.1114251688122749,-0.1216927468776702,0.0358124375343322,walking,2026-03-04_14-02-53
1772632976316595200,2.45259521484375,0.1217632526779547,0.1244865036293864,0.1568932739764452,-0.1026119738817215,-0.0991616025567054,0.1151181757450103,walking,2026-03-04_14-02-53
1772632976326544100,2.462544189453125,0.0725630953749641,-0.029500527511537,0.1661497626215219,-0.1082045212388038,-0.0566752180457115,0.184375986456871,walking,2026-03-04_14-02-53
1772632976336493300,2.472493408203125,-0.0670377560822293,-0.2299509114027023,0.2184527813106775,-0.1225794553756713,-0.0139261549338698,0.2219691723585128,walking,2026-03-04_14-02-53
1772632976346442200,2.482442138671875,-0.2441021132867783,-0.4863071607805788,0.2321399458795785,-0.1301052868366241,0.0384815335273742,0.2273509055376052,walking,2026-03-04_14-02-53
1772632976356391200,2.49239111328125,-0.3239332269033417,-0.6775643305212259,0.2164975555896759,-0.11989526450634,0.0734818577766418,0.2148098200559616,walking,2026-03-04_14-02-53
1772632976366340000,2.502340087890625,-0.3045969870641827,-0.758615304788947,0.281151521807909,-0.1023225262761116,0.063124194741249,0.2015745043754577,walking,2026-03-04_14-02-53
1772632976376289000,2.5122890625,-0.1872287544747814,-0.8160396120145916,0.2823755106449127,-0.0663323029875755,0.040744848549366,0.1956401765346527,walking,2026-03-04_14-02-53
1772632976386239000,2.522239013671875,-0.0593490282105281,-0.8126979003712534,0.2697609437435865,-0.0228877998888492,0.0110128298401832,0.1991397589445114,walking,2026-03-04_14-02-53
1772632976396188200,2.532188232421875,0.0281328558875247,-0.778126207075268,0.3142208477169275,0.0101817362010478,-0.0363898426294326,0.2069260329008102,walking,2026-03-04_14-02-53
1772632976406137300,2.542137451171875,0.1023310781836509,-0.7839987523704767,0.2808656906038522,0.0327491350471973,-0.0730775520205497,0.2204087227582931,walking,2026-03-04_14-02-53
1772632976416086300,2.552086181640625,0.1336530855013057,-0.7636568060874939,0.1370177761614322,0.0553156957030296,-0.0727462545037269,0.2435667663812637,walking,2026-03-04_14-02-53
1772632976426035200,2.56203515625,0.092087478197366,-0.7377351599760353,-0.0530389317482709,0.067773662507534,-0.0446166135370731,0.2618222832679748,walking,2026-03-04_14-02-53
1772632976435984100,2.571984130859375,-0.0032260859070345,-0.7532130073539912,-0.1520622005581855,0.0634249821305275,-0.0169967003166675,0.2712426781654358,walking,2026-03-04_14-02-53
1772632976445933000,2.58193310546875,-0.1116144548356533,-0.8131419908769428,-0.2057984669208526,0.0421862751245498,0.0137003548443317,0.2688634395599365,walking,2026-03-04_14-02-53
1772632976455882000,2.591882080078125,-0.230399970344454,-0.849296715580672,-0.2705617387324571,0.0151852816343307,0.0407862998545169,0.2543449401855469,walking,2026-03-04_14-02-53
1772632976465831200,2.6018310546875,-0.3678550784772261,-0.8910941223464905,-0.3793535373628139,-0.0096986293792724,0.0613655857741832,0.2339013814926147,walking,2026-03-04_14-02-53
1772632976475780400,2.6117802734375,-0.5010245451800525,-0.910611454373598,-0.5398112258225679,-0.0193395372480154,0.0832770019769668,0.2158651202917099,walking,2026-03-04_14-02-53
1772632976485729300,2.621729248046875,-0.5729592429909854,-0.9062247637219728,-0.7338941205084324,-0.0058718877844512,0.0966502577066421,0.1984304934740066,walking,2026-03-04_14-02-53
1772632976495678200,2.63167822265625,-0.5754942048287018,-0.8597165489166975,-0.9134960698992012,0.036318439990282,0.1062629371881485,0.2001514285802841,walking,2026-03-04_14-02-53
1772632976505627100,2.641627197265625,-0.5719734468240291,-0.791205468878895,-1.0753601180255412,0.1011922881007194,0.1236766055226326,0.2180383205413818,walking,2026-03-04_14-02-53
1772632976515576000,2.651576171875,-0.5572387824961915,-0.7106463697813451,-1.1667460238248109,0.1829625219106674,0.1584476381540298,0.2533481121063232,walking,2026-03-04_14-02-53
1772632976525525000,2.66152490234375,-0.5185104809774086,-0.7020575512647629,-1.1328946076273918,0.2563650012016296,0.1840694695711136,0.2940529882907867,walking,2026-03-04_14-02-53
1772632976535474200,2.67147412109375,-0.4979501061707734,-0.8048002789892256,-0.9373404713451862,0.3052204549312591,0.1836888939142227,0.3370433449745178,walking,2026-03-04_14-02-53
1772632976545423000,2.681423095703125,-0.4687769109174609,-0.944731750640273,-0.7110095040053129,0.330711156129837,0.1509634405374527,0.3686420023441314,walking,2026-03-04_14-02-53
1772632976555372300,2.691372314453125,-0.4938790938721969,-1.058984152764082,-0.4939215813070535,0.3319271504878998,0.0923595204949379,0.3904991149902344,walking,2026-03-04_14-02-53
1772632976565322200,2.701322265625,-0.55545343344938,-1.1179568584755062,-0.4138338991135358,0.3171920776367187,0.0402116477489471,0.3937899470329284,walking,2026-03-04_14-02-53
1772632976575271200,2.711271240234375,-0.6511440872378647,-1.2013576107397674,-0.4290554336428642,0.2862173616886139,0.0040983855724334,0.3798645436763763,walking,2026-03-04_14-02-53
1772632976585220000,2.72122021484375,-0.7413169639855622,-1.249306233611703,-0.4818599721133709,0.2425967752933502,-0.0111598279327154,0.3444854617118835,walking,2026-03-04_14-02-53
1772632976595169000,2.7311689453125,-0.7848359338469802,-1.2781010970719158,-0.5103285262286663,0.1833073496818542,-0.0292152613401412,0.2892307341098785,walking,2026-03-04_14-02-53
1772632976605118000,2.741117919921875,-0.7754320726204663,-1.279145053166896,-0.5373866290241479,0.1118148863315582,-0.055912472307682,0.2141092419624328,walking,2026-03-04_14-02-53
1772632976615067100,2.751067138671875,-0.7896111854247748,-1.1057624166823925,-0.5918886190623045,0.038109503686428,-0.1033617481589317,0.1261386424303054,walking,2026-03-04_14-02-53
1772632976625016300,2.761016357421875,-0.8526857004318386,-0.7527613180637359,-0.7409756032019853,-0.0388415977358818,-0.1743137836456298,0.013917364180088,walking,2026-03-04_14-02-53
1772632976634965200,2.77096533203125,-0.845273013022542,-0.3368568962864577,-1.054220883885026,-0.0890893191099166,-0.1872005611658096,-0.0886185988783836,walking,2026-03-04_14-02-53
1772632976644914200,2.7809140625,-0.8071468421153724,0.1800473550707101,-1.5109744717925786,-0.128235712647438,-0.0767416730523109,-0.1622631400823593,walking,2026-03-04_14-02-53
1772632976654863000,2.790863037109375,-0.6272274973385036,0.8238102460160851,-1.7221715828865765,-0.1323068737983703,0.0046101752668619,-0.1631566286087036,walking,2026-03-04_14-02-53
1772632976664812000,2.80081201171875,-0.1088929574498906,1.2199185188248751,-1.7750468485057354,-0.1093764379620552,0.0774933397769928,-0.1155695021152496,walking,2026-03-04_14-02-53
1772632976674761000,2.810760986328125,0.3497701173407956,1.4547788295790551,-1.7257868507742882,-0.0530154332518577,0.0934057235717773,-0.0322205536067485,walking,2026-03-04_14-02-53
1772632976684710100,2.820710205078125,0.6374925785042345,1.6854682843893765,-1.605190632581711,0.0257241670042276,0.0987308397889137,0.0873195827007293,walking,2026-03-04_14-02-53
1772632976694659300,2.830659423828125,0.7161066810138523,1.7636565627023577,-1.465122821199894,0.1109261438250541,0.1151183396577835,0.2139568924903869,walking,2026-03-04_14-02-53
1772632976704608300,2.840608154296875,0.5982898278741166,1.6843042090460658,-1.190199964648485,0.1836355924606323,0.1422873586416244,0.3229228556156158,walking,2026-03-04_14-02-53
1772632976714557200,2.85055712890625,0.3325090398078784,1.3995173994757235,-0.8065583747029305,0.2328180521726608,0.169216975569725,0.3687979280948639,walking,2026-03-04_14-02-53
1772632976724506000,2.860506103515625,0.0555030933720991,1.086946949314326,-0.376276029613614,0.2645659148693084,0.193406730890274,0.3682505488395691,walking,2026-03-04_14-02-53
1772632976734455000,2.870455078125,-0.1449588348263874,0.8833905622318386,-0.0443704721242189,0.2974468767642975,0.2305849939584732,0.341848760843277,walking,2026-03-04_14-02-53
1772632976744404000,2.880404052734375,-0.1395112004123628,0.75766808706671,0.2547533442258834,0.3426194190979004,0.266731709241867,0.3083100914955139,walking,2026-03-04_14-02-53
1772632976754354200,2.890354248046875,0.0421158981304615,0.7265715225353837,0.5475982264369725,0.3936128318309784,0.3112395405769348,0.2859152853488922,walking,2026-03-04_14-02-53
1772632976764303000,2.90030322265625,0.2682970452034846,0.8118313466697931,0.8811118036448955,0.4246125817298889,0.3002182245254516,0.2697353065013885,walking,2026-03-04_14-02-53
1772632976774252300,2.910252197265625,0.4434144330587238,0.95531218136549,1.3561205946892498,0.4261420369148254,0.2412151098251342,0.2665272653102875,walking,2026-03-04_14-02-53
1772632976784201200,2.920201171875,0.552298914941214,1.0874611824467777,1.7296318357646463,0.3912560045719147,0.1410179138183593,0.273799180984497,walking,2026-03-04_14-02-53
1772632976794150100,2.930150146484375,0.6212568254310638,1.1929445871815083,2.036732622343301,0.3230431377887726,0.0101523203775286,0.2931851148605346,walking,2026-03-04_14-02-53
1772632976804099000,2.94009912109375,0.6062967913821339,1.1825903664276003,2.128679084634781,0.2312221825122833,-0.1470012962818145,0.3007642328739166,walking,2026-03-04_14-02-53
1772632976814048000,2.950048095703125,0.3682027228711172,1.1509177555739878,1.9990145938456056,0.1195523887872695,-0.2533266544342041,0.262292742729187,walking,2026-03-04_14-02-53
1772632976823997200,2.9599970703125,0.0837272808048874,1.1416378860533236,1.8034879300922155,-0.0017269472591578,-0.3097165524959564,0.216007113456726,walking,2026-03-04_14-02-53
1772632976833946000,2.969946044921875,0.0060151686362922,1.0389081639409066,1.4158032022356986,-0.1158002540469169,-0.3108025789260864,0.1840963214635849,walking,2026-03-04_14-02-53
1772632976843895300,2.979895263671875,-0.1219340061349794,1.0447422769218682,0.9474591297775506,-0.2030180245637893,-0.261029839515686,0.1466739177703857,walking,2026-03-04_14-02-53
1772632976853844200,2.98984423828125,-0.2679181654211133,1.0703192012488842,0.5323077183246612,-0.259699672460556,-0.1915804743766784,0.1106650531291961,walking,2026-03-04_14-02-53
1772632976863793200,2.999793212890625,-0.2969644098265096,1.0279770200818776,0.2385392915278673,-0.2907978892326355,-0.162959411740303,0.0735020339488983,walking,2026-03-04_14-02-53
1772632976873742000,3.0097421875,-0.2774062343323603,1.0025409655302762,0.0155944594949483,-0.2967274188995361,-0.1790414303541183,0.0397430025041103,walking,2026-03-04_14-02-53
1772632976883691000,3.01969091796875,-0.282445616739057,1.0140826425030829,-0.1931920833259821,-0.2855747640132904,-0.2056432515382766,0.0168775599449872,walking,2026-03-04_14-02-53
1772632976893640000,3.029639892578125,-0.3298096446560695,1.0395055453121662,-0.421370139837265,-0.2578941583633423,-0.2083234637975692,-0.0007429792312905,walking,2026-03-04_14-02-53
1772632976903589400,3.03958935546875,-0.4090870333800092,1.0370499688535928,-0.6330354529649019,-0.2206992506980896,-0.1614104360342025,-0.0180285554379224,walking,2026-03-04_14-02-53
1772632976913538300,3.049538330078125,-0.479537301319465,0.9998591791003942,-0.7727285858154297,-0.1851612329483032,-0.0818884521722793,-0.0366784073412418,walking,2026-03-04_14-02-53
1772632976923487200,3.0594873046875,-0.4112968914492055,0.9230432120539248,-0.7946545864194631,-0.149605393409729,0.0145372860133647,-0.0428696386516094,walking,2026-03-04_14-02-53
1772632976933435600,3.069435546875,-0.2557853176221251,0.8414251054227352,-0.7236006900310515,-0.1085796728730201,0.1326649785041809,-0.0284675322473049,walking,2026-03-04_14-02-53
1772632976943385900,3.0793857421875,-0.0919469737481325,0.7482996624797582,-0.4184305792540311,-0.0818651914596557,0.2272878289222717,0.0021783057600259,walking,2026-03-04_14-02-53
1772632976953334800,3.089334716796875,0.0484556956112384,0.5764008348122239,0.0747054046332836,-0.0820273756980896,0.2612239420413971,0.0315774716436862,walking,2026-03-04_14-02-53
1772632976963283700,3.09928369140625,0.1847106707066297,0.3359280910037457,0.5496341161787509,-0.0929692387580871,0.2479189336299896,0.05728255584836,walking,2026-03-04_14-02-53
1772632976973232600,3.109232666015625,0.2440850890867412,0.1208322189055383,0.9345873732447624,-0.1118190959095954,0.2002960294485092,0.0727467313408851,walking,2026-03-04_14-02-53
1772632976983181800,3.119181884765625,0.211749922671169,-0.0580704961746931,1.2036381228923796,-0.1299142092466354,0.1340212076902389,0.0732693746685981,walking,2026-03-04_14-02-53
1772632976993130800,3.129130859375,0.1587932989114895,-0.2233237483479082,1.308872521302104,-0.1438910067081451,0.074786901473999,0.0508998855948448,walking,2026-03-04_14-02-53
1772632977003079700,3.13907958984375,0.1280510277105495,-0.3535464575417339,1.2715917151778935,-0.1465048491954803,0.0322363749146461,0.0153460688889026,walking,2026-03-04_14-02-53
1772632977013028900,3.14902880859375,0.1165352888965979,-0.391403163857758,1.192984626930952,-0.1377260088920593,-0.0110216168686747,-0.0206912942230701,walking,2026-03-04_14-02-53
1772632977022977800,3.158977783203125,0.1804947700446471,-0.3460851817503571,1.076179617714882,-0.1177037879824638,-0.0447427816689014,-0.0469921380281448,walking,2026-03-04_14-02-53
1772632977032926700,3.1689267578125,0.2424672055613249,-0.268662480982393,0.9581091186076404,-0.098988689482212,-0.0641694739460945,-0.0567491613328456,walking,2026-03-04_14-02-53
1772632977042875600,3.178875732421875,0.2511760702610016,-0.1774551466204225,0.9478384844839572,-0.1055605262517929,-0.0838044360280036,-0.0615706443786621,walking,2026-03-04_14-02-53
1772632977052824800,3.188824951171875,0.2314062247775495,-0.162472681543976,0.982971757185459,-0.1356430649757385,-0.1033427193760871,-0.0716768056154251,walking,2026-03-04_14-02-53
1772632977062773800,3.198773681640625,0.2091669935058802,-0.1988806503564119,0.9221218594253062,-0.1783868819475174,-0.1032453626394271,-0.087930142879486,walking,2026-03-04_14-02-53
1772632977072722700,3.20872265625,0.1559597925186157,-0.184287622988969,0.7555225994706154,-0.2157028317451477,-0.068642646074295,-0.0988578870892524,walking,2026-03-04_14-02-53
1772632977082671900,3.218671875,0.0842155027132481,-0.180809425484389,0.5830687682688236,-0.2485959529876709,-0.0296205002814531,-0.1144753694534301,walking,2026-03-04_14-02-53
1772632977092620800,3.228620849609375,0.0106792149245738,-0.2316508471883833,0.4352712394177913,-0.2656942307949066,-0.0235237255692482,-0.1378811001777649,walking,2026-03-04_14-02-53
1772632977102569700,3.23856982421875,0.0222375142386183,-0.2617664378583431,0.1723977171003818,-0.2417993247509002,-0.0039561432786285,-0.1586451381444931,walking,2026-03-04_14-02-53
1772632977112519000,3.248518798828125,0.0093994773123413,-0.2166970236845314,-0.0736456664472818,-0.1949197053909301,0.0280760917812585,-0.1625972688198089,walking,2026-03-04_14-02-53
1772632977122467800,3.2584677734375,0.0157906396541744,-0.2324490118287503,-0.178283268007636,-0.1465355306863784,0.0609918646514415,-0.1631700545549392,walking,2026-03-04_14-02-53
1772632977132417800,3.268417724609375,0.032378457568027,-0.3528310027487575,-0.1077010807842016,-0.1121149659156799,0.0892898067831993,-0.1630201190710067,walking,2026-03-04_14-02-53
1772632977142367000,3.278366943359375,0.0408478144234046,-0.4926867788150906,0.063693596753478,-0.0961372032761573,0.1030226275324821,-0.1680298596620559,walking,2026-03-04_14-02-53
1772632977152316000,3.28831591796875,0.0443670015254989,-0.6353980904430151,0.2509983756065368,-0.0946943014860153,0.0941279381513595,-0.1802135556936264,walking,2026-03-04_14-02-53
1772632977162264800,3.298264892578125,0.0384038918700069,-0.7855966890864073,0.4186848462760448,-0.1058207750320434,0.037342045456171,-0.1968917399644851,walking,2026-03-04_14-02-53
1772632977172213800,3.3082138671875,0.055552996928431,-0.8981550006434321,0.4427835147440433,-0.1142427548766136,-0.0269490610808134,-0.2131647169589996,walking,2026-03-04_14-02-53
1772632977182162700,3.31816259765625,0.0653924000279977,-0.9490610120162368,0.3149392251193523,-0.1053430438041687,-0.0720671266317367,-0.225510224699974,walking,2026-03-04_14-02-53
1772632977192111600,3.328111572265625,0.0777039288621395,-0.9289479060530662,0.1332908645927906,-0.0890311822295188,-0.1027877554297447,-0.2241520136594772,walking,2026-03-04_14-02-53
1772632977202060800,3.338060791015625,0.090959387482889,-0.9252925984159112,0.0071364277511835,-0.069872573018074,-0.1519670486450195,-0.2195263355970382,walking,2026-03-04_14-02-53
1772632977212009700,3.348009765625,0.1825336919937282,-0.9471623387880624,-0.1565495751053094,-0.0397591516375541,-0.2052816748619079,-0.2102185934782028,walking,2026-03-04_14-02-53
1772632977221959000,3.357958984375,0.2891510326618328,-0.956387993903458,-0.3950526262760162,0.0046875826083123,-0.2304461896419525,-0.1914884597063064,walking,2026-03-04_14-02-53
1772632977231907800,3.367907958984375,0.2553079824339598,-0.94693832077384,-0.6856763253062963,0.0500811636447906,-0.2065336555242538,-0.1747646182775497,walking,2026-03-04_14-02-53
1772632977241856800,3.377856689453125,0.1895259255012497,-0.9686576928898692,-0.8278063299149274,0.080885112285614,-0.1570949256420135,-0.1654547750949859,walking,2026-03-04_14-02-53
1772632977251805700,3.3878056640625,0.1612692605709657,-1.0006099974676963,-0.7781301525980233,0.0927199348807334,-0.1216312125325203,-0.1640656739473343,walking,2026-03-04_14-02-53
1772632977261754600,3.397754638671875,0.2407111922068521,-1.0664404601193964,-0.6459235761106014,0.0928051471710205,-0.1089398488402366,-0.1640953570604324,walking,2026-03-04_14-02-53
1772632977271703800,3.407703857421875,0.3798165152320638,-1.0643420265354215,-0.617483079046011,0.1095814704895019,-0.0995703190565109,-0.1510000675916671,walking,2026-03-04_14-02-53
1772632977281652700,3.41765283203125,0.5541869206449017,-1.0446512376375496,-0.6719786393433809,0.1510733067989349,-0.0847638249397277,-0.1188707500696182,walking,2026-03-04_14-02-53
1772632977291601700,3.4276015625,0.694886709787324,-1.036730819901824,-0.7240373278826475,0.2123177498579025,-0.0755913630127906,-0.0894553363323211,walking,2026-03-04_14-02-53
1772632977301550800,3.43755078125,0.8060558320082724,-1.1130237859874963,-0.7065595388591289,0.2770386040210724,-0.067903995513916,-0.0643204525113105,walking,2026-03-04_14-02-53
1772632977311499800,3.447499755859375,0.8916958876319229,-1.2240458278879522,-0.5938315698236226,0.3235642910003662,-0.0829604417085647,-0.0511913336813449,walking,2026-03-04_14-02-53
1772632977321449700,3.45744970703125,0.924377237136662,-1.2985839131303132,-0.3699608551174402,0.3375624716281891,-0.1299928128719329,-0.0457560271024704,walking,2026-03-04_14-02-53
1772632977331398700,3.467398681640625,0.94372564233765,-1.3433661809258162,-0.2266419329851865,0.3213741779327392,-0.1822174042463302,-0.0400067940354347,walking,2026-03-04_14-02-53
1772632977341347600,3.47734765625,0.8512708651978522,-1.3456550225153563,-0.2201011330395937,0.2878884077072143,-0.2251716554164886,-0.0436265766620636,walking,2026-03-04_14-02-53
1772632977351296800,3.487296875,0.6560879733808338,-1.2625846712492406,-0.3376508231431245,0.2433965653181076,-0.2390027791261673,-0.058047592639923,walking,2026-03-04_14-02-53
1772632977361246000,3.497245849609375,0.4519138927914202,-1.149787290239334,-0.5681488470345735,0.1939727813005447,-0.2087963372468948,-0.0759973153471946,walking,2026-03-04_14-02-53
1772632977371195000,3.50719482421875,0.3032040896673686,-1.0407194511465727,-0.7591752767592668,0.1350063979625702,-0.1714348495006561,-0.09437046200037,walking,2026-03-04_14-02-53
1772632977381143800,3.517143798828125,0.1836729434230364,-0.8857531997099518,-0.8434329381138086,0.0735754817724227,-0.1483412384986877,-0.107983648777008,walking,2026-03-04_14-02-53
1772632977391092700,3.5270927734375,0.123067521943245,-0.7138239769041538,-0.8973521598279476,0.0160741135478019,-0.168773278594017,-0.1208549737930297,walking,2026-03-04_14-02-53
1772632977401041700,3.537041748046875,0.0052624688391573,-0.4384773419827222,-0.958954337260127,-0.0459657348692417,-0.2301345318555832,-0.1429988592863083,walking,2026-03-04_14-02-53
1772632977410990600,3.546990478515625,-0.1713887227209284,-0.2009489810630679,-1.1565268276274203,-0.1126140058040618,-0.2555879652500152,-0.1631302237510681,walking,2026-03-04_14-02-53
1772632977420939800,3.556939697265625,-0.3762865510076284,0.2324310377806425,-1.4124088836222886,-0.1559564173221588,-0.2697930335998535,-0.1662638038396835,walking,2026-03-04_14-02-53
1772632977430888700,3.566888671875,-0.50186724308189,0.6000776246063411,-1.726568356540799,-0.1554102003574371,-0.2292999625205993,-0.1621122062206268,walking,2026-03-04_14-02-53
1772632977440838000,3.576837890625,-0.6313437735509126,0.9298580066353084,-1.9293395845949648,-0.1355646848678589,-0.1691151112318039,-0.1727597266435623,walking,2026-03-04_14-02-53
1772632977450786800,3.586786865234375,-0.6507040153201669,1.2632684157297014,-1.994777394667268,-0.082112118601799,-0.0815282613039016,-0.1759432703256607,walking,2026-03-04_14-02-53
1772632977460735700,3.59673583984375,-0.4607495622085407,1.5276201939061282,-1.9747364771574731,0.0085635995492339,0.0027066967450082,-0.145686075091362,walking,2026-03-04_14-02-53
1772632977470684700,3.6066845703125,-0.1922581269441172,1.8271026144355536,-1.8587252486675976,0.1432612389326095,0.0751313641667366,-0.0840054079890251,walking,2026-03-04_14-02-53
1772632977480633900,3.6166337890625,0.0604167305072769,2.0644028656877578,-1.565930050817132,0.2949864864349365,0.1359419971704483,0.0029667278286069,walking,2026-03-04_14-02-53
1772632977490582800,3.626582763671875,0.2466094199325889,2.1496112518958745,-1.0912351480275393,0.4327752292156219,0.1771972924470901,0.0946628302335739,walking,2026-03-04_14-02-53
1772632977500531700,3.63653173828125,0.3555059210464358,2.082785640726984,-0.4861754972249269,0.5445064306259155,0.2058412283658981,0.1814089864492416,walking,2026-03-04_14-02-53
1772632977510481000,3.64648095703125,0.3732798434723168,1.9046945342905817,0.1746077943652868,0.6069756746292114,0.1964035183191299,0.2458177953958511,walking,2026-03-04_14-02-53
1772632977520430800,3.656430908203125,0.2736602892696857,1.613341059681028,0.8490349959045648,0.6159448623657227,0.1520355194807052,0.2723655998706817,walking,2026-03-04_14-02-53
1772632977530379800,3.6663798828125,0.0681910908358171,1.282551500609517,1.3529700217038392,0.5834779739379883,0.1046376526355743,0.2599310278892517,walking,2026-03-04_14-02-53
1772632977540328700,3.67632861328125,-0.1850422955474816,1.0620207439810037,1.5849913096398114,0.5299712419509888,0.068190798163414,0.2186313271522522,walking,2026-03-04_14-02-53
1772632977550277600,3.686277587890625,-0.4151294188167899,0.9248784646570682,1.777994007873535,0.4484566450119018,0.0438513755798339,0.1605022400617599,walking,2026-03-04_14-02-53
1772632977560226600,3.6962265625,-0.5701129136491566,0.7627294621095061,1.8409739033997057,0.3540864586830139,0.0487589836120605,0.0986712351441383,walking,2026-03-04_14-02-53
1772632977570176000,3.706176025390625,-0.8826493884757161,0.7259913845598698,1.8223352539032696,0.2368213534355163,0.0650511384010315,-0.0036197220906615,walking,2026-03-04_14-02-53
1772632977580125000,3.716125,-1.1613909995976834,0.6316586116537452,1.8738994369238613,0.0911290943622589,0.051801860332489,-0.1375173330307006,walking,2026-03-04_14-02-53
1772632977590073900,3.726073974609375,-1.165740353913605,0.4749500465944409,1.859769204762578,-0.0610844083130359,0.0237907357513904,-0.2637053728103637,walking,2026-03-04_14-02-53
1772632977600022800,3.736022705078125,-1.0480240750715135,0.5150991016313433,1.6562053650259971,-0.1910314857959747,0.0122182993218302,-0.3713118433952331,walking,2026-03-04_14-02-53
1772632977609971700,3.7459716796875,-0.8765741602152586,0.7417661690577865,1.2772656691610813,-0.2771312296390533,0.0262475665658712,-0.4213742315769195,walking,2026-03-04_14-02-53
1772632977619920600,3.755920654296875,-0.5768950480699538,1.0098591795891525,0.8711375221192836,-0.3168852627277374,0.042470809072256,-0.3974066972732544,walking,2026-03-04_14-02-53
1772632977629869800,3.765869873046875,-0.2701929602189921,1.1726979179665449,0.5663888516247272,-0.3278758823871612,0.0484850257635116,-0.3303152918815613,walking,2026-03-04_14-02-53
1772632977639818800,3.77581884765625,-0.0978469733058474,1.1791457789316773,0.3327425928354263,-0.3165484964847564,0.0299049038439989,-0.2521586120128631,walking,2026-03-04_14-02-53
1772632977649768000,3.785767822265625,-0.1190208221020177,1.061898871167004,0.1714735879927873,-0.3035434782505035,-0.0036165686324238,-0.1770620048046112,walking,2026-03-04_14-02-53
1772632977659716900,3.795716796875,-0.2768993442561477,0.8919806959226727,0.0563724600851535,-0.2978808581829071,-0.038679402321577,-0.1292329877614975,walking,2026-03-04_14-02-53
1772632977669665800,3.805665771484375,-0.4989332719892263,0.6814388338670134,-0.039502573826909,-0.2972044050693512,-0.051978163421154,-0.1082406118512153,walking,2026-03-04_14-02-53
1772632977679614700,3.81561474609375,-0.6926571241043508,0.4588998061560094,-0.146177234172821,-0.2934423089027405,-0.0233711134642362,-0.0983492061495781,walking,2026-03-04_14-02-53
1772632977689563600,3.825563720703125,-0.7625785093314945,0.2630577928431332,-0.2567050628155469,-0.2766313850879669,0.0239239633083343,-0.0924503058195114,walking,2026-03-04_14-02-53
1772632977699512800,3.835512939453125,-0.732790543180704,0.0944100759260356,-0.3439414477199315,-0.2309647500514984,0.0845394134521484,-0.077966533601284,walking,2026-03-04_14-02-53
1772632977709462800,3.845462890625,-0.6057952350681647,0.0112504389412701,-0.3430933064579963,-0.1603486388921737,0.148749828338623,-0.0527557171881198,walking,2026-03-04_14-02-53
1772632977719412000,3.855411865234375,-0.4460814968435093,-0.0806027921088039,-0.1240647710859775,-0.0891517773270607,0.1744517534971237,-0.0135840997099876,walking,2026-03-04_14-02-53
1772632977729361000,3.86536083984375,-0.2786506449028849,-0.2284416758835315,0.3102320703417062,-0.0418803989887237,0.1188934296369552,0.0174380000680685,walking,2026-03-04_14-02-53
1772632977739309800,3.875309814453125,-0.1366168672103434,-0.4091425264269113,0.7160095042496919,-0.0143296960741281,0.0112681575119495,0.0385679528117179,walking,2026-03-04_14-02-53
1772632977749258800,3.8852587890625,-0.1217479089783504,-0.514513995219767,0.9022422699570656,0.0007200920954346,-0.0683281347155571,0.0464178882539272,walking,2026-03-04_14-02-53
1772632977759207700,3.895207763671875,-0.1994025188060477,-0.5546889153502881,0.9913473713427782,-0.0092468690127134,-0.1006989777088165,0.0435309633612632,walking,2026-03-04_14-02-53
1772632977769156600,3.905156494140625,-0.3024249402547255,-0.5744013315580785,1.0968038880705833,-0.0488283671438694,-0.1278496384620666,0.0277666468173265,walking,2026-03-04_14-02-53
1772632977779105500,3.91510546875,-0.3938924964554607,-0.6094305593632161,1.1777245139569044,-0.1123135983943939,-0.141880378127098,-0.003902080701664,walking,2026-03-04_14-02-53
1772632977789055000,3.925054931640625,-0.4435320315564051,-0.5863602110296487,1.0439122558385132,-0.1673635244369506,-0.1080592945218086,-0.031079638749361,walking,2026-03-04_14-02-53
1772632977799004000,3.93500390625,-0.4612631012212485,-0.465168803422898,0.8510030811071395,-0.2091821283102035,-0.0576312541961669,-0.0563878044486045,walking,2026-03-04_14-02-53
1772632977808952800,3.944952880859375,-0.4428878519013524,-0.350807534097135,0.7399304780632256,-0.2422617822885513,-0.0461279973387718,-0.0731894224882125,walking,2026-03-04_14-02-53
1772632977818901800,3.95490185546875,-0.3344956470478326,-0.2850029365390539,0.5548235015153885,-0.2409090846776962,-0.043738629668951,-0.0840851590037345,walking,2026-03-04_14-02-53
1772632977828850700,3.9648505859375,-0.1590658505088649,-0.1181662145666778,0.2866664858371019,-0.199734479188919,-0.0190082509070634,-0.0631159618496894,walking,2026-03-04_14-02-53
1772632977838799600,3.974799560546875,-0.009592059008684,0.0346473888806998,0.1762906328856945,-0.1555624902248382,0.00759146688506,-0.0192415919154882,walking,2026-03-04_14-02-53
1772632977848748800,3.984748779296875,0.0991308939028531,0.0626071166910231,0.2910685201883315,-0.136415958404541,0.0150022450834512,0.0318303778767585,walking,2026-03-04_14-02-53
1772632977858697700,3.99469775390625,0.1366115699807182,-0.0219105107739567,0.4813678046822547,-0.1392228007316589,0.0272200666368007,0.07441146671772,walking,2026-03-04_14-02-53
1772632977868647000,4.00464697265625,0.1266244289735332,-0.1063682247452437,0.6159007782906294,-0.1627656817436218,0.058948703110218,0.1075438559055328,walking,2026-03-04_14-02-53
1772632977878595800,4.014595947265625,0.079424469044432,-0.2315080777168273,0.7697703205317259,-0.2078507244586944,0.0740341395139694,0.1305601596832275,walking,2026-03-04_14-02-53
1772632977888544800,4.024544677734375,-0.0035487419901415,-0.3779242352120578,0.8965840980648994,-0.2634620666503906,0.0500116273760795,0.1349634230136871,walking,2026-03-04_14-02-53
1772632977898493700,4.03449365234375,-0.0352135348634794,-0.4948812201194464,0.7941507285505532,-0.2849347293376922,0.0263040028512477,0.1269405782222747,walking,2026-03-04_14-02-53
1772632977908443600,4.044443603515625,0.0282073093632236,-0.4847947103910148,0.4496989932209253,-0.2573055028915405,0.0127229467034339,0.1363527178764343,walking,2026-03-04_14-02-53
1772632977918392600,4.054392578125,0.1382451259993016,-0.4054943791829049,0.0942874724596738,-0.2032094150781631,0.0169361103326082,0.1736605912446975,walking,2026-03-04_14-02-53
1772632977928341500,4.064341552734375,0.2143197366265579,-0.3906190277427435,-0.1547188525468111,-0.136811226606369,0.0171808544546365,0.2208510041236877,walking,2026-03-04_14-02-53
1772632977938290700,4.074290771484375,0.2477137644452974,-0.4505830825790762,-0.2867658545583486,-0.0680956244468689,0.0204879250377416,0.263465404510498,walking,2026-03-04_14-02-53
1772632977948239600,4.084239501953125,0.2050345881425775,-0.4953679807230829,-0.3340074982047081,-0.0198474023491144,0.0296878144145011,0.2961764633655548,walking,2026-03-04_14-02-53
1772632977958188500,4.0941884765625,0.0759102503784,-0.593776917026937,-0.3094423812687397,0.0032141958363354,0.0355997085571289,0.3158816993236542,walking,2026-03-04_14-02-53
1772632977968137500,4.104137451171875,-0.1208065182087011,-0.6974849826522171,-0.2738794849783182,0.0018533207476139,0.0428336523473262,0.3146031200885772,walking,2026-03-04_14-02-53
1772632977978086400,4.11408642578125,-0.2819589657332748,-0.8117892610937356,-0.2765940046340226,-0.0153993051499128,0.0557086765766143,0.2864963412284851,walking,2026-03-04_14-02-53
1772632977988035600,4.12403564453125,-0.4139467118382454,-0.8720197117812931,-0.3514928860127925,-0.0370372235774993,0.0598059520125389,0.2525125443935394,walking,2026-03-04_14-02-53
1772632977997984800,4.13398486328125,-0.4418217935724183,-0.8704609380319714,-0.5299520951092243,-0.0444287322461605,0.0639480724930763,0.2286261469125747,walking,2026-03-04_14-02-53
1772632978007933700,4.14393359375,-0.4446794480258598,-0.7839705491892993,-0.761439130038023,-0.030841551721096,0.0542653501033782,0.2192539572715759,walking,2026-03-04_14-02-53
1772632978017882600,4.153882568359375,-0.3690278851162642,-0.6713124305196106,-1.010624318742752,0.0077397944405674,0.0613894090056419,0.235219806432724,walking,2026-03-04_14-02-53
1772632978027831600,4.16383154296875,-0.3468433797065168,-0.6014481823071837,-1.3073328906446695,0.0710236951708793,0.0969505980610847,0.2690270543098449,walking,2026-03-04_14-02-53
1772632978037780500,4.173780517578125,-0.3774691483883187,-0.5941263149864972,-1.4922002132177352,0.1445646584033966,0.1656930744647979,0.3070146143436432,walking,2026-03-04_14-02-53
1772632978047729400,4.1837294921875,-0.4357513876175508,-0.6888276289440691,-1.4797493124455212,0.2046253383159637,0.2578309774398803,0.3467708230018616,walking,2026-03-04_14-02-53
1772632978057678300,4.19367822265625,-0.4236499944027513,-0.8533329853594303,-1.268711191305518,0.2503464818000793,0.2757577300071716,0.3831891417503357,walking,2026-03-04_14-02-53
1772632978067627800,4.203627685546875,-0.4887019104300066,-1.006037429343909,-1.0402338595867155,0.2849784791469574,0.256266325712204,0.3983435928821563,walking,2026-03-04_14-02-53
1772632978077576700,4.21357666015625,-0.5752928005050868,-1.1601273363374174,-0.8127133902013302,0.3053890168666839,0.1932600438594818,0.3915992975234985,walking,2026-03-04_14-02-53
1772632978087525600,4.223525634765625,-0.5958502527022734,-1.3118915768623352,-0.7334557290911674,0.3154219388961792,0.1491511613130569,0.3760605454444885,walking,2026-03-04_14-02-53
1772632978097475600,4.2334755859375,-0.6286244315896183,-1.3636375461906194,-0.6360194372117519,0.2993181049823761,0.1170178428292274,0.3463291525840759,walking,2026-03-04_14-02-53
1772632978107424500,4.243424560546875,-0.6903790231045335,-1.3731576542079449,-0.4935860657423734,0.2423424422740936,0.0915127545595169,0.3092055022716522,walking,2026-03-04_14-02-53
1772632978117373400,4.25337353515625,-0.7100440930392593,-1.4332396363355218,-0.3395031730115413,0.1568114310503006,0.0578580275177955,0.2540080845355987,walking,2026-03-04_14-02-53
1772632978127322600,4.263322509765625,-0.7370547764964401,-1.3924986067548393,-0.2099836436510086,0.0519846118986606,-0.025081593543291,0.1755953133106231,walking,2026-03-04_14-02-53
1772632978137271600,4.273271484375,-0.7858323244731873,-1.1976641630493103,-0.2707704130470753,-0.0439610853791236,-0.1507067680358886,0.079618439078331,walking,2026-03-04_14-02-53
1772632978147220700,4.283220703125,-0.8102012612499296,-0.8023499632276594,-0.6482803683698177,-0.0967627763748169,-0.2518230080604553,-0.0193558111786842,walking,2026-03-04_14-02-53
1772632978157169700,4.293169677734375,-0.8444019292764365,-0.2939787085466087,-1.252465574425459,-0.1055439710617065,-0.2498102635145187,-0.1095663756132125,walking,2026-03-04_14-02-53
1772632978167118600,4.30311865234375,-0.8038929548859596,0.3161750505246222,-1.682656734099984,-0.0945549681782722,-0.2187980115413665,-0.1545418500900268,walking,2026-03-04_14-02-53
1772632978177067500,4.313067626953125,-0.5467044924676417,0.7662168658338486,-1.957723383036256,-0.0656163170933723,-0.1460223346948623,-0.157364934682846,walking,2026-03-04_14-02-53
1772632978187016400,4.323016357421875,-0.2772226396600715,1.1281072272203865,-2.078590234863758,-0.015514800325036,-0.0792166665196418,-0.1306875199079513,walking,2026-03-04_14-02-53
1772632978196965400,4.33296533203125,-0.0425831503160297,1.416451437011361,-2.0768699869424103,0.0462892726063728,-0.0058035356923937,-0.0760395675897598,walking,2026-03-04_14-02-53
1772632978206914600,4.34291455078125,0.1661451047127135,1.579271470688283,-1.9314590609669684,0.1092157810926437,0.0653505399823188,0.0068981954827904,walking,2026-03-04_14-02-53
1772632978216863700,4.35286376953125,0.308406608480215,1.6359757930763066,-1.7009534382909537,0.1742095649242401,0.1609506756067276,0.113030157983303,walking,2026-03-04_14-02-53
1772632978226812700,4.362812744140625,0.3257243115711957,1.5608454410292207,-1.3799229105591773,0.233266219496727,0.2655524313449859,0.2127801924943924,walking,2026-03-04_14-02-53
1772632978236761600,4.37276171875,0.1984320663386955,1.348579677790403,-0.8469067517042159,0.2729124426841736,0.3574745655059814,0.2736780345439911,walking,2026-03-04_14-02-53
1772632978246710500,4.38271044921875,0.0427181018073111,1.039339102704078,-0.255005857682228,0.2936848402023315,0.4262458980083465,0.2931872904300689,walking,2026-03-04_14-02-53
1772632978256659500,4.392659423828125,-0.0231414408084005,0.7430931798778474,0.3341431072831153,0.3102363049983978,0.4511545300483703,0.2823522090911865,walking,2026-03-04_14-02-53
1772632978266608400,4.4026083984375,0.0224304429948329,0.5787510512001812,0.7568091321498155,0.3309522271156311,0.4295573830604553,0.2616996467113495,walking,2026-03-04_14-02-53
1772632978276557600,4.4125576171875,0.1165579391198232,0.5431242958933115,1.1252110673874616,0.3534421622753143,0.3490697741508484,0.2275137305259704,walking,2026-03-04_14-02-53
1772632978286506800,4.4225068359375,0.1945475895881652,0.5936325401201844,1.4802788892775771,0.3659190833568573,0.2339583486318588,0.1759991347789764,walking,2026-03-04_14-02-53
1772632978296456400,4.43245654296875,0.2093046849435195,0.6859513428553938,1.723907028377056,0.3594874739646911,0.1078511774539947,0.1272405087947845,walking,2026-03-04_14-02-53
1772632978306405600,4.442405517578125,0.201109834180586,0.8417696810767054,1.888849753296375,0.3311050832271576,-0.0133226513862609,0.0841580256819725,walking,2026-03-04_14-02-53
1772632978316354600,4.4523544921875,0.2318779339425265,0.9579439911738038,1.9230553897589444,0.2804765701293945,-0.1438895761966705,0.0526096783578395,walking,2026-03-04_14-02-53
1772632978326303500,4.462303466796875,0.2070712998682632,1.047829137021303,1.811297142538428,0.2056097686290741,-0.2172319740056991,0.0089564733207225,walking,2026-03-04_14-02-53
1772632978336252400,4.47225244140625,0.2002679765289649,1.1117045200824738,1.6176275048285722,0.1208325698971748,-0.2277810871601104,-0.0220737401396036,walking,2026-03-04_14-02-53
1772632978346201600,4.48220166015625,0.2904281764581799,1.1535729462578892,1.4124047919690608,0.024028792977333,-0.1976010799407959,-0.0242042690515518,walking,2026-03-04_14-02-53
1772632978356150500,4.492150634765625,0.3624577860109508,1.1815636537283658,1.2270184139579534,-0.0699421763420105,-0.1594204157590866,-0.0107893943786621,walking,2026-03-04_14-02-53
1772632978366099700,4.502099609375,0.3727022627800703,1.1573267458334564,1.0539514192938804,-0.154635488986969,-0.1264166533946991,0.0042619924061,walking,2026-03-04_14-02-53
1772632978376048600,4.512048583984375,0.2140544367538765,1.095582821843028,0.8993968173980712,-0.2265204191207885,-0.1329943090677261,-0.0086212353780865,walking,2026-03-04_14-02-53
1772632978385997600,4.52199755859375,-0.0218299198184162,0.9838023627907038,0.7201561025351285,-0.287383496761322,-0.191954031586647,-0.0631555840373039,walking,2026-03-04_14-02-53
1772632978395946500,4.531946533203125,-0.2110867825873196,0.8746332552805542,0.4282756814420222,-0.3354545533657074,-0.2524589300155639,-0.1362891346216201,walking,2026-03-04_14-02-53
1772632978405895400,4.5418955078125,-0.3417647247353568,0.8679112535491585,0.015701427000761,-0.3661013841629028,-0.263096421957016,-0.2031701654195785,walking,2026-03-04_14-02-53
1772632978415844600,4.5518447265625,-0.3679297511486336,0.954733796955645,-0.3590530921339988,-0.3736180961132049,-0.243816539645195,-0.2519843876361847,walking,2026-03-04_14-02-53
1772632978425793500,4.56179345703125,-0.2091774053020402,1.0661480530440808,-0.7090992864698171,-0.3496432602405548,-0.1933440417051315,-0.2649095058441162,walking,2026-03-04_14-02-53
1772632978435742700,4.57174267578125,0.0596160816488787,1.1736935048751531,-0.9959259313046932,-0.2874092757701874,-0.0974581688642501,-0.2249243557453155,walking,2026-03-04_14-02-53
1772632978445691600,4.581691650390625,0.3136839643612504,1.274592504429072,-1.1145651702106,-0.1997896879911422,0.0336599051952362,-0.1414030939340591,walking,2026-03-04_14-02-53
1772632978455640600,4.591640625,0.4801513050319627,1.295007954339683,-0.9987065019339324,-0.1114528700709343,0.1572283059358596,-0.0253596752882003,walking,2026-03-04_14-02-53
1772632978465589500,4.601589599609375,0.5848846585843712,1.1584295925088226,-0.654296267658472,-0.0433851405978202,0.2390366196632385,0.0897320210933685,walking,2026-03-04_14-02-53
1772632978475538400,4.611538330078125,0.5633867106666788,0.8742620838806032,-0.1135994911730289,-0.0022744457237422,0.2664386332035064,0.1653243750333786,walking,2026-03-04_14-02-53
1772632978485488600,4.621488525390625,0.4357312946775928,0.4899947632521391,0.4824731355756521,0.003121118992567,0.2402474880218505,0.1982929706573486,walking,2026-03-04_14-02-53
1772632978495437600,4.6314375,0.34854616503641,0.0986624726735055,0.9360375720530748,-0.0128380954265594,0.1918843537569046,0.2016641646623611,walking,2026-03-04_14-02-53
1772632978505386500,4.641386474609375,0.2810078390209004,-0.1578758552730083,1.213044833663106,-0.0357181131839752,0.1435666233301162,0.183816984295845,walking,2026-03-04_14-02-53
1772632978515335700,4.651335693359375,0.2039548848807811,-0.3247264596402645,1.404709561291337,-0.0704867094755172,0.0905814170837402,0.1498349606990814,walking,2026-03-04_14-02-53
1772632978525284600,4.66128466796875,0.1761209754072129,-0.4374931532509625,1.547162221983075,-0.1161990687251091,0.0146573605015873,0.1016929820179939,walking,2026-03-04_14-02-53
1772632978535233500,4.671233642578125,0.201078635324724,-0.4864551909491419,1.577740900120139,-0.1624947935342788,-0.072380430996418,0.0523409470915794,walking,2026-03-04_14-02-53
1772632978545182500,4.681182373046875,0.1872771601937711,-0.46070773236081,1.458242414036393,-0.1959470361471176,-0.1383181661367416,0.0057497438974678,walking,2026-03-04_14-02-53
1772632978555131600,4.691131591796875,0.1534764878029003,-0.3757132811643183,1.153888295817375,-0.2110107094049453,-0.1578036397695541,-0.0274039655923843,walking,2026-03-04_14-02-53
1772632978565080600,4.70108056640625,0.1743360282192006,-0.2641290753364563,0.7908797440558671,-0.2063139528036117,-0.1242502108216285,-0.0393610261380672,walking,2026-03-04_14-02-53
1772632978575029500,4.711029541015625,0.1926000357169658,-0.1908474198959767,0.504441221755743,-0.2002065777778625,-0.0595283955335617,-0.0391948632895946,walking,2026-03-04_14-02-53
1772632978584978700,4.720978759765625,0.1959601963324472,-0.1759277909226715,0.2952636337906122,-0.1861602663993835,0.0214649904519319,-0.0329723842442035,walking,2026-03-04_14-02-53
1772632978594927600,4.730927734375,0.213498739099875,-0.2353136074796319,0.2734808410495519,-0.1784204542636871,0.0798083618283271,-0.0284872911870479,walking,2026-03-04_14-02-53
1772632978604876500,4.74087646484375,0.2119520941797643,-0.3551822420500218,0.3937053033202886,-0.1872328519821167,0.0839082971215248,-0.0350037813186645,walking,2026-03-04_14-02-53
1772632978614825500,4.750825439453125,0.2127550080604851,-0.5135395972296595,0.4878548286139965,-0.1956338286399841,0.0461191087961196,-0.0498907566070556,walking,2026-03-04_14-02-53
1772632978624774400,4.7607744140625,0.2175126143837347,-0.6117062492102384,0.4359843561232089,-0.1911101937294006,0.0002245882060378,-0.0655690506100654,walking,2026-03-04_14-02-53
1772632978634723600,4.7707236328125,0.1645714073888957,-0.6862124780096114,0.2795242128670215,-0.1737641245126724,-0.0306078493595123,-0.0794585943222045,walking,2026-03-04_14-02-53
1772632978644672500,4.780672607421875,0.0780256350971758,-0.749152479916811,0.0404360552847385,-0.139834925532341,-0.0385246314108371,-0.0962535515427589,walking,2026-03-04_14-02-53
1772632978654621700,4.79062158203125,0.0380067457785829,-0.8213787810854614,-0.1807137100249528,-0.0915181338787078,-0.0184918995946645,-0.1072462201118469,walking,2026-03-04_14-02-53
1772632978664570600,4.800570556640625,0.0568257202779874,-0.8631517840623855,-0.3206266231060027,-0.0342630930244922,0.0099714323878288,-0.1159566193819046,walking,2026-03-04_14-02-53
1772632978674519600,4.81051953125,0.0621383666681125,-0.8876666321158408,-0.3524316281676292,0.0189189463853836,0.0373338721692562,-0.1147198230028152,walking,2026-03-04_14-02-53
1772632978684468500,4.820468505859375,0.1102825486447662,-0.8861487748987972,-0.3050385933518409,0.0665820688009262,0.0473100766539573,-0.1043026000261306,walking,2026-03-04_14-02-53
1772632978694418700,4.830418701171875,0.1666098544139415,-0.932301892656088,-0.1439928758710622,0.0982125177979469,0.0308792870491743,-0.0970038771629333,walking,2026-03-04_14-02-53
1772632978704367600,4.84036767578125,0.1821123247765004,-1.0025161233499646,0.0124655138194561,0.1009675562381744,-0.0196419432759284,-0.0992894023656845,walking,2026-03-04_14-02-53
1772632978714316500,4.850316650390625,0.1622149073906242,-1.080490320520848,0.1294488022118806,0.0881059467792511,-0.0735657960176467,-0.117874875664711,walking,2026-03-04_14-02-53
1772632978724265500,4.860265380859375,0.1235379342002794,-1.1345720393203198,0.1142524021238088,0.0670078545808792,-0.1050861701369285,-0.1468942612409591,walking,2026-03-04_14-02-53
1772632978734214700,4.870214599609375,0.1432325590230524,-1.0913745564982291,0.027870588222146,0.0500563085079193,-0.1189204305410385,-0.1694071739912033,walking,2026-03-04_14-02-53
1772632978744163600,4.88016357421875,0.203491833946295,-0.974389222279191,-0.1218231296390295,0.0407083481550216,-0.111725628376007,-0.18556509912014,walking,2026-03-04_14-02-53
1772632978754112500,4.890112548828125,0.2441783203281462,-0.8260513029411435,-0.2720563612043857,0.0406454131007194,-0.098920002579689,-0.1938924640417099,walking,2026-03-04_14-02-53
1772632978764061400,4.9000615234375,0.3433995959281921,-0.6747127404823899,-0.4299918377101421,0.0565063990652561,-0.0861006155610084,-0.182150050997734,walking,2026-03-04_14-02-53
1772632978774010600,4.9100107421875,0.4790324205372482,-0.528632244682312,-0.620461218073964,0.0946515277028083,-0.0561347603797912,-0.1545251607894897,walking,2026-03-04_14-02-53
1772632978783959600,4.91995947265625,0.606444090898335,-0.4415433054246008,-0.7562438994824886,0.1467690467834472,-0.01027113199234,-0.1096245273947715,walking,2026-03-04_14-02-53
1772632978793908500,4.929908447265625,0.7736008386053145,-0.4409619984053075,-0.8181260628998279,0.2039931416511535,0.033877108246088,-0.0567621178925037,walking,2026-03-04_14-02-53
1772632978803857700,4.939857666015625,0.940349005511403,-0.516178567431122,-0.7604851903140545,0.2575514316558838,0.0438130944967269,-0.0044802734628319,walking,2026-03-04_14-02-53
1772632978813806600,4.949806640625,1.0016479622133077,-0.6195388425320386,-0.5927379293680191,0.2866950035095215,0.017733871936798,0.0329603105783462,walking,2026-03-04_14-02-53
1772632978823755500,4.959755615234375,0.964864438086748,-0.7644255985029041,-0.3875771758288144,0.2877623736858368,-0.0383456423878669,0.056512776762247,walking,2026-03-04_14-02-53
1772632978833704400,4.969704345703125,0.7876967301055788,-0.8728792512200773,-0.2721364407032728,0.2653577029705047,-0.0897180661559104,0.0575841628015041,walking,2026-03-04_14-02-53
1772632978843653600,4.979653564453125,0.4652491386501118,-0.8947045679286122,-0.2081166807353496,0.2119637280702591,-0.1369710713624954,0.0300281681120395,walking,2026-03-04_14-02-53
1772632978853602600,4.9896025390625,0.1473752117857336,-0.9089065501518548,-0.2656172680675983,0.1463712453842163,-0.1557910591363906,-0.0120230689644813,walking,2026-03-04_14-02-53
1772632978863551700,4.9995517578125,-0.0596394990570843,-0.8819362717702984,-0.4878039752095937,0.0886701345443725,-0.1402507126331329,-0.0575324967503547,walking,2026-03-04_14-02-53
1772632978873500700,5.009500732421875,-0.2271756745357066,-0.7252204001873731,-0.7464934898406267,0.0470038801431655,-0.1211495101451873,-0.0940774902701377,walking,2026-03-04_14-02-53
1772632978883449600,5.01944970703125,-0.2843654423531144,-0.5284688708141446,-0.9017384120881556,0.0155602041631937,-0.1203795969486236,-0.1118130758404731,walking,2026-03-04_14-02-53
1772632978893399600,5.029399658203125,-0.3421294663945213,-0.3279156110703945,-0.9244897576004266,-0.0211761873215436,-0.1685852259397506,-0.1244959682226181,walking,2026-03-04_14-02-53
1772632978903348500,5.039348388671875,-0.4936791143206879,-0.1338246792085468,-0.8757686890512705,-0.0789260417222976,-0.2339290827512741,-0.1479083597660064,walking,2026-03-04_14-02-53
1772632978913297700,5.049297607421875,-0.7198828385517001,0.0195985805697739,-0.9266472278952598,-0.1467345654964447,-0.276877760887146,-0.1858548820018768,walking,2026-03-04_14-02-53
1772632978923246600,5.05924658203125,-0.9203354143999516,0.1774047316074371,-1.1561661776214838,-0.2094107270240783,-0.2505505383014679,-0.2402411550283432,walking,2026-03-04_14-02-53
1772632978933195800,5.06919580078125,-1.0266311584308745,0.3971685955166816,-1.4667916311949492,-0.2434270679950714,-0.176828384399414,-0.291365772485733,walking,2026-03-04_14-02-53
1772632978943144700,5.079144775390625,-0.9968649657204748,0.7514774157330394,-1.6980857739001511,-0.234154462814331,-0.0690968632698059,-0.3124715983867645,walking,2026-03-04_14-02-53
1772632978953094000,5.089093994140625,-0.8421065848808735,1.1051102363839744,-1.750267212036252,-0.1902639269828796,0.019181054085493,-0.3016632497310638,walking,2026-03-04_14-02-53
1772632978963042800,5.099042724609375,-0.6200998374156653,1.3379425484418868,-1.6792314358264206,-0.1041756421327591,0.0684271603822708,-0.2714065611362457,walking,2026-03-04_14-02-53
1772632978972991700,5.10899169921875,-0.3361419529501349,1.544017055825144,-1.6012702442675828,0.0360702350735664,0.0965788215398788,-0.2272522300481796,walking,2026-03-04_14-02-53
1772632978982941000,5.11894091796875,-0.0880276266136206,1.7512665983371436,-1.4695382995545865,0.2040568441152572,0.1187086254358291,-0.1590185761451721,walking,2026-03-04_14-02-53
1772632978992889900,5.128889892578125,0.0586720057317987,1.886795451115072,-1.1385165391623973,0.359394758939743,0.1266291290521621,-0.0757428556680679,walking,2026-03-04_14-02-53
1772632979002838800,5.1388388671875,0.0564955384755507,1.858368398053944,-0.6089502285003662,0.4577184021472931,0.1232663616538047,-0.0075235902331769,walking,2026-03-04_14-02-53
1772632979012787700,5.14878759765625,-0.0270743050116114,1.6603880575381218,0.0020247838258743,0.4981163740158081,0.1165906935930252,0.0298293568193912,walking,2026-03-04_14-02-53
1772632979022737000,5.15873681640625,-0.1576700670352205,1.3712870380304754,0.5607540606081486,0.4817075729370117,0.1061612218618393,0.0263874884694814,walking,2026-03-04_14-02-53
1772632979032685800,5.168685791015625,-0.3747758907163515,1.1208030416868626,1.01721129591763,0.4133379757404327,0.1020078510046005,-0.0104049444198608,walking,2026-03-04_14-02-53
1772632979042634800,5.178634765625,-0.6372229677826166,0.9250807092308998,1.3209534197181465,0.305610716342926,0.1042451709508895,-0.072710134088993,walking,2026-03-04_14-02-53
1772632979052583700,5.188583740234375,-0.8509105805180966,0.772668380060792,1.5044132135808468,0.1761457473039627,0.089990995824337,-0.1564076244831085,walking,2026-03-04_14-02-53
1772632979062532900,5.198532958984375,-1.0088146389722823,0.7181207973152398,1.5508452944099902,0.0512578710913658,0.0727558135986328,-0.2586157619953155,walking,2026-03-04_14-02-53
1772632979072481800,5.208481689453125,-1.0727002511665225,0.7303346744611859,1.4362345803678034,-0.0531793087720871,0.0488870926201343,-0.3525342643260956,walking,2026-03-04_14-02-53
1772632979082430700,5.2184306640625,-0.9723596161477268,0.820593329796195,1.1480354781359434,-0.124700628221035,0.0375018119812011,-0.418512761592865,walking,2026-03-04_14-02-53
1772632979092380000,5.2283798828125,-0.768140819633752,0.9714806413561106,0.8265548685491084,-0.1602466404438018,0.0474008433520793,-0.4454185366630554,walking,2026-03-04_14-02-53
1772632979102329900,5.238329833984375,-0.5258574096741154,1.1035890181660652,0.5832184058725833,-0.1814547181129455,0.050381988286972,-0.4334012866020202,walking,2026-03-04_14-02-53
1772632979112278800,5.24827880859375,-0.2961731498509645,1.148452534504235,0.4473170665204525,-0.1966489851474762,0.0271125175058841,-0.3923241198062897,walking,2026-03-04_14-02-53
1772632979122228000,5.25822802734375,-0.1302017029384151,1.0910220897987484,0.2822171052128076,-0.2003784775733947,0.0037094566505402,-0.3413751721382141,walking,2026-03-04_14-02-53
1772632979132177000,5.268177001953125,-0.1325813646165654,1.030128645157814,0.1122159278601408,-0.1985683292150497,-0.0027491031214594,-0.2900808155536651,walking,2026-03-04_14-02-53
1772632979142125800,5.278125732421875,-0.2611161572560668,0.9116700235158204,-0.0330330855518579,-0.1960228830575943,0.0075599928386509,-0.2527795135974884,walking,2026-03-04_14-02-53
1772632979152074800,5.28807470703125,-0.3700479488790035,0.7548533219069242,-0.2126765359967946,-0.1724463999271392,0.05607171356678,-0.2309720963239669,walking,2026-03-04_14-02-53
1772632979162023700,5.298023681640625,-0.439180777544342,0.5924520981639624,-0.380060224327445,-0.1234322488307952,0.1371705532073974,-0.2119722962379455,walking,2026-03-04_14-02-53
1772632979171972900,5.307972900390625,-0.4345128222659229,0.47211686899513,-0.3703600835680961,-0.061798982322216,0.2049939632415771,-0.1938074082136154,walking,2026-03-04_14-02-53
1772632979181921800,5.317921875,-0.3080412457665428,0.3093528032891452,-0.0903156462192535,-0.0106604304164648,0.2085796445608139,-0.1720757484436035,walking,2026-03-04_14-02-53
1772632979193736700,5.32973681640625,-0.2007879087498411,0.1976348880790173,0.1281710373610258,0.0398851707577705,0.1707248985767364,-0.1377796232700348,walking,2026-03-04_14-02-53
1772632979203686000,5.339685791015625,0.0051298006365075,-0.0059159460455179,0.5936310788154602,0.0567913576960563,0.1281269192695617,-0.1065646111965179,walking,2026-03-04_14-02-53
1772632979213634800,5.349634765625,0.0322275778552517,-0.2009054341822862,0.9663941318720578,0.0286518633365631,0.0759838372468948,-0.0876780077815055,walking,2026-03-04_14-02-53
1772632979223583700,5.359583740234375,-0.0848455807777121,-0.4342399966739118,1.242327042248845,-0.0288562085479497,0.0272139050066471,-0.0929602906107902,walking,2026-03-04_14-02-53
1772632979233533000,5.369532958984375,-0.2123915815755724,-0.6229413444519043,1.3401362590938806,-0.1002931073307991,-0.004558939486742,-0.1264721751213073,walking,2026-03-04_14-02-53
1772632979243481900,5.37948193359375,-0.3669977309955284,-0.6926036403514444,1.2818816385239362,-0.1720011234283447,-0.0323542766273021,-0.1714429557323455,walking,2026-03-04_14-02-53
1772632979253430800,5.3894306640625,-0.4856045654691756,-0.6914692294940352,1.1122983943223952,-0.2244329005479812,-0.0654903948307037,-0.2187912911176681,walking,2026-03-04_14-02-53
1772632979263379700,5.399379638671875,-0.5282696949802339,-0.6192607562430202,0.7652671638935804,-0.2412198185920715,-0.0854354202747345,-0.2483148127794265,walking,2026-03-04_14-02-53
1772632979273329000,5.409328857421875,-0.4977493229016661,-0.3884998436316847,0.3703606680899858,-0.2233817130327224,-0.1049995347857475,-0.2487398535013198,walking,2026-03-04_14-02-53
1772632979283277800,5.41927783203125,-0.4566831895524635,-0.1795548953786492,0.0330400998145341,-0.1827078759670257,-0.1167827248573303,-0.2272762954235077,walking,2026-03-04_14-02-53
1772632979293226800,5.429226806640625,-0.4047293130945414,-0.0390650591924786,-0.2294727724969387,-0.1346002668142318,-0.105921022593975,-0.1866188794374466,walking,2026-03-04_14-02-53
1772632979303176000,5.439176025390625,-0.3512695986509322,0.0467737338736653,-0.3818126209527254,-0.0918206572532653,-0.0702787339687347,-0.1327991187572479,walking,2026-03-04_14-02-53
1772632979313126000,5.4491259765625,-0.3512419069264084,0.0467699344813823,-0.3937292687177658,-0.0599852353334426,-0.0101602654904127,-0.0801382958889007,walking,2026-03-04_14-02-53
1772632979323074800,5.45907470703125,-0.3669633538018912,-0.0160382577396929,-0.2289402730554342,-0.0519247353076934,0.0461975038051605,-0.0381281673908233,walking,2026-03-04_14-02-53
1772632979333023700,5.469023681640625,-0.3829465568860992,-0.1424491535604,0.0562333438754081,-0.0615203715860843,0.0825389996170997,-0.0064083216711878,walking,2026-03-04_14-02-53
1772632979342972700,5.47897265625,-0.3945866892646998,-0.2850270480670034,0.3411252212554216,-0.0795640796422958,0.0924590080976486,0.006749824155122,walking,2026-03-04_14-02-53
1772632979352921600,5.488921630859375,-0.4330230220995843,-0.4257539078794419,0.5626198544800282,-0.0944322496652603,0.0852181389927864,0.0034770658239722,walking,2026-03-04_14-02-53
1772632979362870800,5.498870849609375,-0.373418192497082,-0.5321707940720022,0.6941741045385599,-0.0907829403877258,0.0819813460111618,-0.0005131233483552,walking,2026-03-04_14-02-53
1772632979372820000,5.508820068359375,-0.2831974945522845,-0.574636455488205,0.7486088745594024,-0.0744849219918251,0.0728866532444953,0.0041500711813569,walking,2026-03-04_14-02-53
1772632979382769000,5.518768798828125,-0.1498704261349514,-0.5568761962614953,0.8059802825540304,-0.0476030893623828,0.0431055426597595,0.0292428079992532,walking,2026-03-04_14-02-53
1772632979392717800,5.5287177734375,0.0627227789599448,-0.5500761608578264,0.8522808459579944,-0.0147351548075675,0.0024454626254737,0.0684067234396934,walking,2026-03-04_14-02-53
1772632979402666800,5.538666748046875,0.1885311788428574,-0.5671665579989552,0.8673007204353809,0.0179845318198204,-0.0297058373689651,0.1086540520191192,walking,2026-03-04_14-02-53
1772632979412615700,5.54861572265625,0.2012979406312108,-0.6505073967695236,0.8511889590680599,0.0396799705922603,-0.0501258932054042,0.1342800557613372,walking,2026-03-04_14-02-53
1772632979422564900,5.55856494140625,0.1790465074650943,-0.7334710727907717,0.8134002034217118,0.0402635931968688,-0.064802661538124,0.1416890621185302,walking,2026-03-04_14-02-53
1772632979432513800,5.568513671875,0.1547818713130429,-0.8141663654886185,0.7296475689798593,0.0271600410342216,-0.0507464967668056,0.1395470798015594,walking,2026-03-04_14-02-53
1772632979442463000,5.578462890625,0.1036808488247916,-0.8863296844236552,0.6155290223687887,0.0031034941785037,-0.0268289316445589,0.127059131860733,walking,2026-03-04_14-02-53
1772632979452412000,5.588411865234375,0.0832489592360332,-0.9099810475155712,0.4676455687999725,-0.0185874197632074,-0.0115602295845747,0.1144389435648918,walking,2026-03-04_14-02-53
1772632979462360800,5.59836083984375,0.1426846428167074,-0.8827418890647589,0.3141466134369373,-0.0344873368740081,-0.0065293749794363,0.1094946190714836,walking,2026-03-04_14-02-53
1772632979472309800,5.608309814453125,0.1104975431023165,-0.8393523908019065,0.1726823792606592,-0.0512814968824386,-0.0236228741705417,0.1018055453896522,walking,2026-03-04_14-02-53
1772632979482258700,5.6182587890625,0.0918891791462898,-0.7270056761689484,0.0578097994118928,-0.0677013471722602,-0.0746247023344039,0.0992965176701545,walking,2026-03-04_14-02-53
1772632979492207900,5.628207763671875,0.1050960859175771,-0.6098109369829297,-0.1703092203885316,-0.0685421079397201,-0.1113853752613067,0.1116360053420066,walking,2026-03-04_14-02-53
1772632979502156800,5.63815673828125,0.0902163140306249,-0.4714747716993093,-0.577180294752121,-0.0425429157912731,-0.0980110689997673,0.1409597247838974,walking,2026-03-04_14-02-53
1772632979512107000,5.64810693359375,0.0258641072379425,-0.3119232382990419,-0.9702794488728046,0.0090555641800165,-0.0352542139589786,0.1813289821147918,walking,2026-03-04_14-02-53
1772632979522056000,5.658055908203125,-0.0013136033492162,-0.2348833993688225,-1.264502633699775,0.0729899480938911,0.0710459500551223,0.243487074971199,walking,2026-03-04_14-02-53
1772632979532626000,5.6686259765625,0.0503818413682281,-0.2517069622673094,-1.4220494031488895,0.146831676363945,0.1922139078378677,0.3272711932659149,walking,2026-03-04_14-02-53
1772632979542574800,5.678574951171875,0.0802501062136143,-0.3520461359813809,-1.2646873426169156,0.2006373852491378,0.2590225338935852,0.4028823375701904,walking,2026-03-04_14-02-53
1772632979552523800,5.688523681640625,0.1049618285460397,-0.5120968510754406,-0.9289847309321164,0.2357735782861709,0.2602714598178863,0.4657726287841797,walking,2026-03-04_14-02-53
1772632979562472700,5.69847265625,0.1257622957188636,-0.7343900873318314,-0.5787585038542747,0.2474637925624847,0.2068638801574707,0.5100476741790771,walking,2026-03-04_14-02-53
1772632979572422000,5.708421875,0.0476896431421861,-0.9442810842633248,-0.2461345689624547,0.2341390997171402,0.1126924827694892,0.5240307450294495,walking,2026-03-04_14-02-53
1772632979582370800,5.718370849609375,-0.1028333286173641,-1.102304239052534,-0.0645230333149433,0.2043822705745697,0.0064363465644419,0.5062708854675293,walking,2026-03-04_14-02-53
1772632979592321000,5.728321044921875,-0.2680648073501885,-1.1908223343305289,-0.0790069012194871,0.1702066361904144,-0.0839146375656127,0.4643288254737854,walking,2026-03-04_14-02-53
1772632979602270000,5.73827001953125,-0.431726406417787,-1.1874766771644354,-0.3034481092900037,0.1417116075754165,-0.1300421953201294,0.4010065793991089,walking,2026-03-04_14-02-53
1772632979612219000,5.748218994140625,-0.5968234085833654,-1.0686788866959511,-0.5815168626517057,0.1200657412409782,-0.1590911448001861,0.3315821886062622,walking,2026-03-04_14-02-53
1772632979622167800,5.758167724609375,-0.6664215897381305,-0.8986709873415529,-0.7563789240390062,0.0648429691791534,-0.1997251212596893,0.2555603682994842,walking,2026-03-04_14-02-53
1772632979632116700,5.76811669921875,-0.6781737676564603,-0.7183670271612703,-0.8506354168385267,-0.0086154770106077,-0.2155851423740387,0.1819306164979934,walking,2026-03-04_14-02-53
1772632979642065700,5.778065673828125,-0.6650511051025241,-0.3978646149568259,-1.0619845036238431,-0.0820276364684104,-0.222846508026123,0.1197569966316223,walking,2026-03-04_14-02-53
1772632979652014800,5.788014892578125,-0.6024139585994184,0.0039424540154635,-1.3382003225952386,-0.1370131373405456,-0.1802583038806915,0.0833680927753448,walking,2026-03-04_14-02-53
1772632979661963800,5.7979638671875,-0.512103573077172,0.358404711227864,-1.697955425518751,-0.1571255922317505,-0.1053696870803833,0.0705937072634697,walking,2026-03-04_14-02-53
1772632979671913000,5.807912841796875,-0.3530922475008294,0.6844251562014222,-1.9486545259177683,-0.1401645690202713,-0.035745233297348,0.0807661190629005,walking,2026-03-04_14-02-53
1772632979681862000,5.81786181640625,-0.1623632298201322,0.9297029622040688,-2.066532132801413,-0.0929094552993774,0.0075899912044405,0.1074179708957672,walking,2026-03-04_14-02-53
1772632979691810800,5.827810791015625,-0.0333958544496446,1.123012534429878,-2.0603642578214405,-0.0258422270417213,0.0541436411440372,0.1504087448120117,walking,2026-03-04_14-02-53
1772632979701759700,5.837759765625,-0.0056332566466182,1.2453059119291603,-1.953998225033283,0.0376115776598453,0.1067410707473754,0.196372240781784,walking,2026-03-04_14-02-53
1772632979711708700,5.847708740234375,-0.0655029477303847,1.2194184603482483,-1.6974994984447955,0.0828238874673843,0.1603683978319168,0.2289450168609619,walking,2026-03-04_14-02-53
1772632979721657900,5.857657958984375,-0.1008697734594345,1.0529391735114155,-1.3431611598730089,0.1107165068387985,0.2215979248285293,0.2399063259363174,walking,2026-03-04_14-02-53
1772632979731606800,5.867606689453125,-0.1343694536097347,0.9256434576801956,-0.9479857840001582,0.1252058446407318,0.2719638645648956,0.2439052462577819,walking,2026-03-04_14-02-53
1772632979741555700,5.8775556640625,-0.0969893518295139,0.9006843729905784,-0.544706596648693,0.1397802531719207,0.3205945193767547,0.2562689781188965,walking,2026-03-04_14-02-53
1772632979751505000,5.8875048828125,-0.0381903587171807,0.8673713014535606,-0.2224637705177068,0.1671255528926849,0.3801701068878174,0.2746896147727966,walking,2026-03-04_14-02-53
1772632979761453800,5.897453857421875,-0.0299162321729585,0.8195692474454641,0.1099468138843774,0.196933776140213,0.4339973926544189,0.2736382186412811,walking,2026-03-04_14-02-53
1772632979771402800,5.90740283203125,-0.0433871236426755,0.7379485104657709,0.4663040910631418,0.2322053462266922,0.4689997136592865,0.2505627870559692,walking,2026-03-04_14-02-53
1772632979781352700,5.917352783203125,0.0580043356033042,0.6774070941329002,0.8490572077363729,0.2667337656021118,0.4564463794231415,0.2215330004692077,walking,2026-03-04_14-02-53
1772632979791301600,5.927301513671875,0.2074457957364618,0.7484301569916307,1.2038269234627486,0.2942136228084564,0.3887864351272583,0.1955115497112274,walking,2026-03-04_14-02-53
1772632979801250800,5.937250732421875,0.3068149553745984,0.955007937721908,1.553354062360525,0.305559754371643,0.2828541398048401,0.1758845895528793,walking,2026-03-04_14-02-53
1772632979811200000,5.947199951171875,0.3904033391654491,1.1059864346966146,1.8847738821595903,0.2835957109928131,0.143715813755989,0.1554936021566391,walking,2026-03-04_14-02-53
1772632979821149000,5.95714892578125,0.4632910268522798,1.2020368251755833,2.151199544000625,0.220898225903511,-0.0065868720412254,0.1356834024190902,walking,2026-03-04_14-02-53
1772632979831097900,5.967097900390625,0.3836986538950354,1.3198486733466386,2.202436394762993,0.1347559243440628,-0.1463266760110855,0.1132251322269439,walking,2026-03-04_14-02-53
1772632979841046800,5.977046875,0.31464038830325,1.4241992746591567,2.0723522172570226,0.0304476357996463,-0.2106124460697174,0.1039203181862831,walking,2026-03-04_14-02-53
1772632979850995700,5.98699560546875,0.2492450656658038,1.4884528433829545,1.7946341770291327,-0.081181600689888,-0.2041421234607696,0.1050443276762962,walking,2026-03-04_14-02-53
1772632979860944600,5.996944580078125,0.1821648221487179,1.4577730429589748,1.4291361465394496,-0.1811750382184982,-0.1454324722290039,0.1116412505507469,walking,2026-03-04_14-02-53
1772632979870893800,6.006893798828125,0.0976633421009406,1.3926368461817502,1.0486123963534832,-0.2544159293174743,-0.0797659233212471,0.1105853244662284,walking,2026-03-04_14-02-53
1772632979880843000,6.016843017578125,-0.071559032898955,1.315136842393875,0.794279907888174,-0.3108507096767425,-0.054316759109497,0.0865718647837638,walking,2026-03-04_14-02-53
1772632979890792000,6.0267919921875,-0.3051198784271255,1.2114531805574893,0.6498503941655158,-0.3630959391593933,-0.0832305252552032,0.026704091578722,walking,2026-03-04_14-02-53
1772632979900740900,6.036740966796875,-0.5001740658305585,1.0985077693790195,0.4972726453006267,-0.405332863330841,-0.1426424533128738,-0.0526844747364521,walking,2026-03-04_14-02-53
1772632979910689800,6.046689697265625,-0.5915178495211526,1.0546507997348904,0.2470055065780877,-0.433322936296463,-0.2116438150405883,-0.1371574252843856,walking,2026-03-04_14-02-53
1772632979920638700,6.056638671875,-0.5557488361993804,1.0986723122909663,-0.1048556282252073,-0.4400554299354553,-0.236527070403099,-0.2002855241298675,walking,2026-03-04_14-02-53
1772632979930587600,6.066587646484375,-0.3700798783872276,1.1476197369419037,-0.5193710798621177,-0.4171418249607086,-0.2027492821216583,-0.219009518623352,walking,2026-03-04_14-02-53
1772632979940537000,6.076537109375,-0.0707900578204542,1.210951660776138,-0.8663368438392877,-0.3623763024806976,-0.0974686592817306,-0.1814419031143188,walking,2026-03-04_14-02-53
1772632979950486300,6.086486328125,0.2865721586171537,1.2879223799929025,-1.0898282038390636,-0.2879083752632141,0.0320024900138378,-0.0892751812934875,walking,2026-03-04_14-02-53
1772632979960435200,6.096435302734375,0.5928881149610504,1.2781522427372634,-1.0148428132206202,-0.2169098258018493,0.1344212740659713,0.0383094102144241,walking,2026-03-04_14-02-53
1772632979970385200,6.10638525390625,0.7485245572768151,1.1305606117218732,-0.6634750148922205,-0.1681984364986419,0.1897918432950973,0.165890946984291,walking,2026-03-04_14-02-53
1772632979980334000,6.116333984375,0.6637364423073828,0.7943608641698956,-0.1385685127347707,-0.1588922888040542,0.1875473260879516,0.2503499090671539,walking,2026-03-04_14-02-53
1772632979990283300,6.126283203125,0.4631511069249361,0.3105966658703982,0.3582552197545766,-0.1688228547573089,0.1631433665752411,0.2764725089073181,walking,2026-03-04_14-02-53
1772632980000232200,6.136232177734375,0.1997267823243513,-0.1506156550116837,0.6579132891118527,-0.1815061569213867,0.1480919867753982,0.2552782893180847,walking,2026-03-04_14-02-53
1772632980010181000,6.14618115234375,-0.0314103797208517,-0.457204254284501,0.8098673531204461,-0.1934339255094528,0.1272340267896652,0.2022679299116134,walking,2026-03-04_14-02-53
1772632980020130000,6.156130126953125,-0.1727531429419294,-0.6303202026568353,0.9418377827644347,-0.2015368640422821,0.0813349857926368,0.1290248781442642,walking,2026-03-04_14-02-53
1772632980030079200,6.166079345703125,-0.1894071214271709,-0.7423790402591228,0.9933908598691223,-0.1946057230234146,0.0294581465423107,0.0454688630998134,walking,2026-03-04_14-02-53
1772632980040028200,6.176028076171875,-0.093200334810093,-0.7379144620656967,0.9784797064632176,-0.1751049906015396,-0.0226274263113737,-0.0289699491113424,walking,2026-03-04_14-02-53
1772632980049977000,6.18597705078125,0.0812021462414413,-0.6254685248419642,0.9264426452338697,-0.1554641723632812,-0.0656173080205917,-0.0661228001117706,walking,2026-03-04_14-02-53
1772632980059926000,6.195926025390625,0.2357575883874669,-0.4859378890767693,0.8835480908811092,-0.1502590328454971,-0.070084236562252,-0.0734502151608467,walking,2026-03-04_14-02-53
1772632980069875200,6.205875244140625,0.3017799203494563,-0.4412681417450309,0.8628595231175422,-0.1591281145811081,-0.0348791852593421,-0.0709265917539596,walking,2026-03-04_14-02-53
1772632980079824100,6.21582421875,0.306518456646055,-0.4467801831647753,0.8763444431126117,-0.1924285441637039,-0.0127059742808341,-0.0782723873853683,walking,2026-03-04_14-02-53
1772632980089773000,6.22577294921875,0.273287839228101,-0.5095446823745966,0.9336685048341752,-0.2378373444080352,-0.0189472138881683,-0.1013389825820922,walking,2026-03-04_14-02-53
1772632980099722200,6.23572216796875,0.2205304278349504,-0.6031714989684521,0.8568605749636888,-0.2796937227249145,-0.0194204580038785,-0.1307269632816314,walking,2026-03-04_14-02-53
1772632980109671200,6.245671142578125,0.1336475325433537,-0.6351160586312413,0.6397516094774007,-0.301442801952362,-0.0063848607242107,-0.171109452843666,walking,2026-03-04_14-02-53
1772632980119620000,6.2556201171875,0.0726064230600371,-0.6340929991938173,0.4381155229330062,-0.3117055296897888,-0.0186979863792657,-0.2062296271324157,walking,2026-03-04_14-02-53
1772632980129569000,6.265569091796875,0.1390553829362615,-0.6543678715899587,0.1853770256608724,-0.2928529679775238,-0.027686096727848,-0.2339394986629486,walking,2026-03-04_14-02-53
1772632980139518200,6.275518310546875,0.2750089639322832,-0.6301302330426871,-0.1496668298542499,-0.2413767278194427,-0.0098176170140504,-0.2351523041725158,walking,2026-03-04_14-02-53
1772632980149467100,6.285467041015625,0.4324149001386016,-0.565627365732938,-0.4289110567361116,-0.1698558181524276,0.0206805281341075,-0.2006978988647461,walking,2026-03-04_14-02-53
1772632980159417000,6.2954169921875,0.5557466807749122,-0.5303555613435804,-0.5325099628984927,-0.0941876918077468,0.0434638708829879,-0.1535631418228149,walking,2026-03-04_14-02-53
1772632980169366000,6.305365966796875,0.6971629110909998,-0.6058116382136941,-0.5423328532546758,-0.0087066907435655,0.0539150834083557,-0.096530757844448,walking,2026-03-04_14-02-53
1772632980179315200,6.315315185546875,0.7930539462897926,-0.680715049637109,-0.5021294376820326,0.0785041153430938,0.0485570654273033,-0.0312819816172122,walking,2026-03-04_14-02-53
1772632980189264100,6.32526416015625,0.760680493690446,-0.7821919952094555,-0.3066384297639131,0.1397728025913238,-0.0025275591760873,0.0176852848380804,walking,2026-03-04_14-02-53
1772632980199213000,6.335213134765625,0.6470990496307611,-1.0140509321905673,4.03320103883e-05,0.1573696285486221,-0.0865172669291496,0.0399383902549743,walking,2026-03-04_14-02-53
1772632980209162200,6.345162353515625,0.4741281357523053,-1.2990810489974915,0.1776484772354364,0.1488922536373138,-0.1570313721895218,0.024973290041089,walking,2026-03-04_14-02-53
1772632980219111200,6.355111083984375,0.2218335097901523,-1.5178113320752975,0.1551566594421863,0.1246574893593788,-0.1966096758842468,-0.0279788728803396,walking,2026-03-04_14-02-53
1772632980229060000,6.36506005859375,0.0377565704097971,-1.6013596761167048,0.0547843141108751,0.0891402512788772,-0.2200837135314941,-0.0962375402450561,walking,2026-03-04_14-02-53
1772632980239009000,6.375009033203125,-0.0068708356175571,-1.585058383526653,-0.1314016898453235,0.060109656304121,-0.2329427897930145,-0.1536065638065338,walking,2026-03-04_14-02-53
1772632980248958200,6.384958251953125,0.0502555846400558,-1.4016538269825278,-0.4176508270531892,0.0509846061468124,-0.2258717566728592,-0.1892845332622528,walking,2026-03-04_14-02-53
1772632980258907100,6.3949072265625,0.1446024956693872,-1.1615354495696724,-0.7425099731624126,0.0619144849479198,-0.2085566818714141,-0.2023220509290695,walking,2026-03-04_14-02-53
1772632980268856000,6.40485595703125,0.2724368849545717,-0.9138669490382076,-1.0176654694259166,0.0975330173969268,-0.1734942644834518,-0.1943803131580352,walking,2026-03-04_14-02-53
1772632980278805200,6.41480517578125,0.4391556065704673,-0.7067739122621715,-1.2680781540989876,0.1564629077911377,-0.1089522913098335,-0.1572819501161575,walking,2026-03-04_14-02-53
1772632980288754200,6.424754150390625,0.6146674371033907,-0.5251058241218328,-1.3655284745037557,0.2283464223146438,-0.0389877185225486,-0.1010777950286865,walking,2026-03-04_14-02-53
1772632980298703000,6.434703125,0.7821198067560792,-0.4146219807513058,-1.257837915113568,0.296084463596344,0.016553308814764,-0.0334260463714599,walking,2026-03-04_14-02-53
1772632980308652300,6.44465234375,0.9071208357788622,-0.4274498981423675,-0.9967974534422158,0.3553898930549621,0.0454735606908798,0.0239909272640943,walking,2026-03-04_14-02-53
1772632980318601200,6.454601318359375,1.020229474695027,-0.5220287547640502,-0.6871943286538124,0.406878113746643,0.0438231974840164,0.0757220312952995,walking,2026-03-04_14-02-53
1772632980328550100,6.464550048828125,1.0645547194380311,-0.6238233879834413,-0.34513796402812,0.4383135437965393,-0.0045388061553239,0.1112487390637397,walking,2026-03-04_14-02-53
1772632980338499000,6.4744990234375,1.0030973573040216,-0.7046449374094605,-0.0019733458995819,0.4437724947929382,-0.0919623896479606,0.1213666200637817,walking,2026-03-04_14-02-53
1772632980348449300,6.48444921875,0.8586252465486526,-0.7799355945847928,0.1839391018122434,0.416853129863739,-0.1846299171447754,0.1061055734753608,walking,2026-03-04_14-02-53
1772632980358398200,6.494398193359375,0.6217397866424172,-0.7871421649627387,0.243110837227106,0.3710834980010986,-0.238020971417427,0.0764645934104919,walking,2026-03-04_14-02-53
1772632980368347100,6.50434716796875,0.3520964413965121,-0.6955132441878319,0.1399713652700185,0.3115467429161072,-0.23999685049057,0.0416573621332645,walking,2026-03-04_14-02-53
1772632980378296000,6.514296142578125,0.2004961957942694,-0.5734652197517455,-0.0824859755069017,0.2500056028366089,-0.2122839987277984,0.0236413460224866,walking,2026-03-04_14-02-53
1772632980388245000,6.524244873046875,0.1593595179595053,-0.4387636115781962,-0.2896972318351268,0.1979123502969741,-0.1728930473327636,0.0185359567403793,walking,2026-03-04_14-02-53
1772632980398194200,6.534194091796875,0.1031060811441391,-0.2771037077218294,-0.4485001388251781,0.1589258015155792,-0.1409926414489746,0.0229237806051969,walking,2026-03-04_14-02-53
1772632980408143000,6.54414306640625,0.0408253833958879,-0.1527994287915527,-0.5657873786002398,0.1288227587938308,-0.1364088058471679,0.0298088528215885,walking,2026-03-04_14-02-53
1772632980418092300,6.55409228515625,-0.088391674153041,-0.0585810760453343,-0.5766828666239977,0.090267114341259,-0.1569252610206604,0.0221274960786104,walking,2026-03-04_14-02-53
1772632980428041200,6.564041259765625,-0.3489830220837145,-0.0406046898499131,-0.5364525630444288,0.0297829993069171,-0.2063442170619964,-0.0161221548914909,walking,2026-03-04_14-02-53
1772632980437990100,6.573990234375,-0.6718357237413525,-0.0338812268137931,-0.4524585210621357,-0.0689710080623626,-0.3003697693347931,-0.0980686917901039,walking,2026-03-04_14-02-53
1772632980447939000,6.58393896484375,-0.930170871976763,0.0079401453495025,-0.5824199489712715,-0.1641653925180435,-0.3712089359760284,-0.1933290064334869,walking,2026-03-04_14-02-53
1772632980457888000,6.593887939453125,-1.0715554650455712,0.2082030438445508,-1.0481804346770047,-0.226067379117012,-0.3621930778026581,-0.2788543105125427,walking,2026-03-04_14-02-53
1772632980467837200,6.603837158203125,-1.1281304619655013,0.5520907155506313,-1.6325433344095943,-0.2417221963405609,-0.2651473581790924,-0.3413915336132049,walking,2026-03-04_14-02-53
1772632980477786000,6.6137861328125,-1.053879230840504,0.9807678174003958,-2.0904250495642422,-0.1884613633155822,-0.110991358757019,-0.3663240671157837,walking,2026-03-04_14-02-53
1772632980487735000,6.623735107421875,-0.729014970164746,1.3310031045675277,-2.4665923581063747,-0.0474339872598648,0.0873710811138153,-0.327252596616745,walking,2026-03-04_14-02-53
1772632980497684200,6.633684326171875,-0.398616346639581,1.7243958348073063,-2.555157361266017,0.1529185473918914,0.2683033347129822,-0.2457174956798553,walking,2026-03-04_14-02-53
