time,seconds_elapsed,acc_x,acc_y,acc_z,gyr_x,gyr_y,gyr_z,activity,session
1772633035469767700,0.065767578125,0.0815662303134799,0.4503426979519426,-1.368968385824561,-0.1575105488300323,-0.1147040650248527,-0.1406130343675613,walking,2026-03-04_14-03-55
1772633035479716600,0.075716552734375,0.1022534098375588,0.5662884599901735,-1.3539695541352033,-0.1192197203636169,-0.0923372060060501,-0.1080283820629119,walking,2026-03-04_14-03-55
1772633035489665500,0.08566552734375,0.1869537369256839,0.6441830160535872,-1.2812807500213383,-0.0700090304017067,-0.0870737358927726,-0.0620624870061874,walking,2026-03-04_14-03-55
1772633035499614500,0.095614501953125,0.245332349201478,0.6794894533649086,-1.1987924364268778,-0.0002971212379634,-0.0726366490125656,-0.0103941261768341,walking,2026-03-04_14-03-55
1772633035509563400,0.1055634765625,0.2660417405573651,0.7096785476624965,-1.07590313886106,0.0699876919388771,-0.0520221851766109,0.0404450856149196,walking,2026-03-04_14-03-55
1772633035519512300,0.11551220703125,0.1949642440976575,0.6765449243456125,-0.8662100025892258,0.1242638751864433,-0.0511485263705253,0.0740380063652992,walking,2026-03-04_14-03-55
1772633035529462500,0.125462646484375,0.0713254068061709,0.6222814192384482,-0.6372831735372543,0.1566226184368133,-0.0702077075839042,0.0783800259232521,walking,2026-03-04_14-03-55
1772633035539411500,0.135411376953125,-0.0709118575692176,0.608401508576423,-0.4223170652985573,0.1709738373756408,-0.0997543334960937,0.0761605352163314,walking,2026-03-04_14-03-55
1772633035549360600,0.145360595703125,-0.2095854381136596,0.6099778179824352,-0.2310270162016153,0.1615422517061233,-0.1376465857028961,0.0694336593151092,walking,2026-03-04_14-03-55
1772633035559309600,0.1553095703125,-0.3654504284882918,0.6213787713102996,-0.1841653117835521,0.1555131673812866,-0.1549700647592544,0.0546958819031715,walking,2026-03-04_14-03-55
1772633035569258500,0.165258544921875,-0.4697559120174497,0.6782244018651544,-0.295228562477231,0.1805593967437744,-0.1251016408205032,0.0500382781028747,walking,2026-03-04_14-03-55
1772633035579207400,0.17520751953125,-0.5864730237543583,0.762821962698549,-0.4163602027207613,0.2240052372217178,-0.0596635527908802,0.0475215129554271,walking,2026-03-04_14-03-55
1772633035589156400,0.18515625,-0.7265260759584605,0.7995695387288928,-0.3474596849739551,0.2724388241767883,0.0031138123013079,0.0388020575046539,walking,2026-03-04_14-03-55
1772633035599105500,0.19510546875,-0.8634824773214756,0.7545221902564168,-0.1460521464884281,0.3075161874294281,0.0519687570631504,0.0137755637988448,walking,2026-03-04_14-03-55
1772633035609054500,0.205054443359375,-1.0110067421890794,0.6834316151194274,0.1501741948544979,0.3240922391414642,0.0717667043209075,-0.0417377613484859,walking,2026-03-04_14-03-55
1772633035619003600,0.215003662109375,-1.189028144390136,0.5902626252956688,0.4346089761167764,0.3150864839553833,0.0936538875102996,-0.1168799176812172,walking,2026-03-04_14-03-55
1772633035628952600,0.22495263671875,-1.298110450399667,0.5650158097058534,0.7647580453276633,0.2672664821147918,0.1077137812972068,-0.1893080472946167,walking,2026-03-04_14-03-55
1772633035638901500,0.234901611328125,-1.3091652206383644,0.5277124994888901,1.1038070448309183,0.1884500980377197,0.0699820294976234,-0.2680511474609375,walking,2026-03-04_14-03-55
1772633035648851500,0.2448515625,-1.1801419503621755,0.4940425773382186,1.2872095555484293,0.0985766574740409,-0.0005525930318981,-0.3458852171897888,walking,2026-03-04_14-03-55
1772633035658800600,0.254800537109375,-1.0126630580287426,0.4975976394712925,1.2002572482824323,0.0421649068593978,-0.0527043119072914,-0.4055697917938232,walking,2026-03-04_14-03-55
1772633035668749600,0.26474951171875,-0.8940398204095661,0.6659473963551222,0.957542716896534,0.0236633960157632,-0.0720966458320617,-0.4375381171703338,walking,2026-03-04_14-03-55
1772633035678698500,0.274698486328125,-0.7646414332106709,0.8272025188028812,0.7379214763283729,0.0193520486354827,-0.0677187740802764,-0.4433566927909851,walking,2026-03-04_14-03-55
1772633035688647400,0.2846474609375,-0.5921665592208505,0.8997891777165233,0.7045575513869523,0.0022196662612259,-0.0613266490399837,-0.4227912425994873,walking,2026-03-04_14-03-55
1772633035698596400,0.294596435546875,-0.444705130456388,0.9040228697635232,0.810742382389307,-0.047275822609663,-0.0812529176473617,-0.391228973865509,walking,2026-03-04_14-03-55
1772633035708545500,0.304545654296875,-0.353956463114731,0.8624879133261739,0.902875307163596,-0.1268598586320877,-0.1264268010854721,-0.3580832481384277,walking,2026-03-04_14-03-55
1772633035718494500,0.314494384765625,-0.2969907498441636,0.7661237807229161,0.8620359317749738,-0.2091546505689621,-0.1725364476442337,-0.3199104070663452,walking,2026-03-04_14-03-55
1772633035728443400,0.324443359375,-0.280392885460332,0.6530649722978472,0.5869201829999685,-0.2725333869457245,-0.1825153231620788,-0.2822940349578857,walking,2026-03-04_14-03-55
1772633035738392600,0.334392578125,-0.3170110994899645,0.573811987362802,0.2364759292572736,-0.2974503934383392,-0.1675277650356292,-0.2473942339420318,walking,2026-03-04_14-03-55
1772633035748341500,0.344341552734375,-0.3363172729844227,0.4532515711359679,-0.0546761775612831,-0.2883953750133514,-0.1345959156751632,-0.2168565690517425,walking,2026-03-04_14-03-55
1772633035758291500,0.35429150390625,-0.2868387005988508,0.3223576846823096,-0.2421586510688066,-0.2523803114891052,-0.0903605073690414,-0.1862766444683075,walking,2026-03-04_14-03-55
1772633035768240400,0.364240478515625,-0.2347054489860311,0.1962050014063716,-0.2986222965687513,-0.2030215263366699,-0.0317914709448814,-0.1499111801385879,walking,2026-03-04_14-03-55
1772633035778189300,0.374189208984375,-0.1492355988301336,0.049568040767312,-0.2168687269896268,-0.1465259492397308,0.0308237373828887,-0.1145552769303321,walking,2026-03-04_14-03-55
1772633035788138500,0.384138427734375,-0.0879408799119293,-0.0869981922343373,-0.0171288294553756,-0.090012602508068,0.0821492448449134,-0.0766840651631355,walking,2026-03-04_14-03-55
1772633035798087700,0.394087646484375,0.0384995342642068,-0.1671804208435118,0.2664338451474904,-0.0446287617087364,0.0920925959944725,-0.0361164733767509,walking,2026-03-04_14-03-55
1772633035808036600,0.40403662109375,0.1140784703290089,-0.2917293221846223,0.5959340950608253,-0.0209404788911342,0.061360515654087,-0.0042488197796046,walking,2026-03-04_14-03-55
1772633035817985500,0.413985595703125,0.21213844706472,-0.4175425443731248,0.8308592877447605,-0.0073183155618608,0.00232700468041,0.0230859126895666,walking,2026-03-04_14-03-55
1772633035827934500,0.4239345703125,0.2090484451601281,-0.4810188451141118,0.8966308598160743,0.0027375137433409,-0.0785713046789169,0.024081403389573,walking,2026-03-04_14-03-55
1772633035837883400,0.43388330078125,0.131910954541713,-0.5314224599227308,0.8553805655390023,0.0071443072520196,-0.1449569314718246,0.0165422912687063,walking,2026-03-04_14-03-55
1772633035847832300,0.443832275390625,0.0500811048559844,-0.5620443926796317,0.7910626994073391,0.0029546222649514,-0.1839967519044876,0.0074683683924376,walking,2026-03-04_14-03-55
1772633035857781500,0.453781494140625,-0.0212235514231026,-0.500215128493309,0.7270821024060249,-0.0131330620497465,-0.174481064081192,0.0069905668497085,walking,2026-03-04_14-03-55
1772633035867730400,0.46373046875,-0.0470295352656394,-0.4335347710140049,0.6744581811994314,-0.0364847220480442,-0.1510718762874603,0.0223769787698984,walking,2026-03-04_14-03-55
1772633035877680600,0.4736806640625,-0.0370025006394833,-0.3799892049178481,0.670583385592699,-0.0699299052357673,-0.1250346302986145,0.0425327867269516,walking,2026-03-04_14-03-55
1772633035887629600,0.483629638671875,-0.0436417559908702,-0.2972577302172779,0.6687959176540375,-0.0997953936457634,-0.0966101810336113,0.0697950348258018,walking,2026-03-04_14-03-55
1772633035897578500,0.49357861328125,-0.0750393858280032,-0.2248268463872373,0.5959300034075975,-0.1120643615722656,-0.0729394778609275,0.0991411730647087,walking,2026-03-04_14-03-55
1772633035907527400,0.50352734375,-0.1555868310203775,-0.1730298775240779,0.4681529338002204,-0.1137131229043006,-0.0657534673810005,0.1119770780205726,walking,2026-03-04_14-03-55
1772633035917476400,0.513476318359375,-0.2210464145330712,-0.1706536499120295,0.3840080851703882,-0.1093682944774627,-0.0630862116813659,0.1258749812841415,walking,2026-03-04_14-03-55
1772633035927425300,0.52342529296875,-0.2405141717974096,-0.1945978584706783,0.3844815479010343,-0.110450342297554,-0.0543121621012687,0.1383518874645233,walking,2026-03-04_14-03-55
1772633035937374500,0.53337451171875,-0.2400827215775847,-0.2710356398545205,0.4346978234440088,-0.1255724728107452,-0.042709857225418,0.1498440206050872,walking,2026-03-04_14-03-55
1772633035947323600,0.54332373046875,-0.1278070263542234,-0.3384880046196282,0.4418178845822811,-0.1448769271373748,-0.0240789148956537,0.173214852809906,walking,2026-03-04_14-03-55
1772633035957272600,0.5532724609375,-0.0911015358999371,-0.3249460937403142,0.4963613756746053,-0.1585816890001297,-0.008711788803339,0.1893367767333984,walking,2026-03-04_14-03-55
1772633035967221500,0.563221435546875,-0.0104209658471867,-0.3680341248385608,0.5034720844626427,-0.1603004932403564,0.0139940567314624,0.2197047919034958,walking,2026-03-04_14-03-55
1772633035977170400,0.57317041015625,0.0928403058586642,-0.4163875291191041,0.5315244589924812,-0.155659407377243,0.0373132601380348,0.2579067945480346,walking,2026-03-04_14-03-55
1772633035987119400,0.583119384765625,0.0729276178384199,-0.4570629461176693,0.6188800863623619,-0.1514817029237747,0.0279671624302864,0.2779526710510254,walking,2026-03-04_14-03-55
1772633035997069300,0.5930693359375,0.0675751143619418,-0.5575565797410905,0.6375707583069801,-0.1500484347343444,0.0021460098214447,0.2812827825546264,walking,2026-03-04_14-03-55
1772633036007018200,0.603018310546875,-0.0017635390738025,-0.6238427502710372,0.5753267758399248,-0.1463450342416763,-0.0029342360794544,0.2771349251270294,walking,2026-03-04_14-03-55
1772633036016967400,0.612967529296875,-0.0256129454884678,-0.6565929272282868,0.5145154565244913,-0.1503675878047943,0.0190268121659755,0.2771677374839782,walking,2026-03-04_14-03-55
1772633036026916400,0.622916259765625,-0.0220907261790707,-0.6989314551334828,0.4913853408277034,-0.1553650051355362,0.0392937324941158,0.2826453447341919,walking,2026-03-04_14-03-55
1772633036036865300,0.632865234375,0.0042386604830622,-0.7445549229934811,0.370571095970273,-0.145931676030159,0.0598667487502098,0.2824948132038116,walking,2026-03-04_14-03-55
1772633036046814500,0.642814453125,-0.0334176278900355,-0.760337744667381,0.2219604971706867,-0.1251326501369476,0.0654231682419776,0.2728405892848968,walking,2026-03-04_14-03-55
1772633036056763400,0.652763427734375,0.0067632470572367,-0.725210317184776,0.1549719505250454,-0.1024293899536132,0.0380676388740539,0.276743471622467,walking,2026-03-04_14-03-55
1772633036066712300,0.66271240234375,0.0767628851523622,-0.7243663406413048,0.1443301450014114,-0.0901026874780654,-0.0090942811220884,0.2896060049533844,walking,2026-03-04_14-03-55
1772633036076661200,0.6726611328125,0.0155945325601845,-0.7266119276110082,0.1139431900441646,-0.0981500595808029,-0.0533865056931972,0.2916745841503143,walking,2026-03-04_14-03-55
1772633036086610400,0.6826103515625,-0.1116444481151178,-0.7513091464940458,-0.0426169064551591,-0.1175810173153877,-0.0760992690920829,0.2870678305625915,walking,2026-03-04_14-03-55
1772633036096559400,0.692559326171875,-0.2510635497972369,-0.7569649802986532,-0.2391355038553476,-0.1455457210540771,-0.0782274156808853,0.2800745368003845,walking,2026-03-04_14-03-55
1772633036106508300,0.70250830078125,-0.3145602357391268,-0.7336248751129955,-0.437923799753189,-0.1734569817781448,-0.0680283084511756,0.2766103148460388,walking,2026-03-04_14-03-55
1772633036116458500,0.71245849609375,-0.316609934810549,-0.727858785866946,-0.7569359733998775,-0.1711397022008896,-0.0538018569350242,0.288282185792923,walking,2026-03-04_14-03-55
1772633036126407400,0.722407470703125,-0.3647529112108051,-0.6372321009371429,-1.1562357357263564,-0.1273770481348037,-0.0020904587581753,0.307329386472702,walking,2026-03-04_14-03-55
1772633036136356400,0.7323564453125,-0.3763229374952614,-0.5883358219515532,-1.5117337657272816,-0.0453642979264259,0.0887505188584327,0.351210743188858,walking,2026-03-04_14-03-55
1772633036146305300,0.74230517578125,-0.332993425791338,-0.6762364429183304,-1.7161936775207518,0.0464122258126735,0.1940974593162536,0.4097270667552948,walking,2026-03-04_14-03-55
1772633036156254200,0.752254150390625,-0.2945955252707004,-0.7953601043403148,-1.6651064643621445,0.1214435026049614,0.2498142123222351,0.4663375616073608,walking,2026-03-04_14-03-55
1772633036166203100,0.762203125,-0.3165623328091576,-0.9739156864833086,-1.3734645282000302,0.1499433070421219,0.2274617701768875,0.493185430765152,walking,2026-03-04_14-03-55
1772633036176152300,0.77215234375,-0.3956825582100078,-1.1781352136496457,-1.1133978799968958,0.1402369290590286,0.1763980239629745,0.4895963072776794,walking,2026-03-04_14-03-55
1772633036186101500,0.7821015625,-0.5614485091457143,-1.3070602111831306,-1.0005062448322772,0.1085815280675888,0.1419713348150253,0.4592698216438293,walking,2026-03-04_14-03-55
1772633036196050400,0.792050537109375,-0.7556259137146174,-1.310652828847617,-1.0287176093161106,0.0719136446714401,0.1270491778850555,0.4039211273193359,walking,2026-03-04_14-03-55
1772633036205999400,0.801999267578125,-0.8320563885748385,-1.2163938518300652,-1.1475111620008944,0.0434537753462791,0.1245466098189354,0.3390814363956451,walking,2026-03-04_14-03-55
1772633036215948300,0.8119482421875,-0.803901065127179,-1.098661425570771,-1.3410545429825782,0.0262760668992996,0.1375532150268554,0.2708490788936615,walking,2026-03-04_14-03-55
1772633036225898200,0.821898193359375,-0.7198211714923382,-0.910974296336621,-1.4309721297949551,0.0157935973256826,0.1499012261629104,0.2089449614286422,walking,2026-03-04_14-03-55
1772633036235847200,0.83184716796875,-0.570887587816082,-0.6765555918700993,-1.465448984414339,0.0041827172972261,0.1425930708646774,0.1581512838602066,walking,2026-03-04_14-03-55
1772633036245796400,0.84179638671875,-0.3854188652837649,-0.3904772081192582,-1.4623036721259357,-0.0061580711044371,0.1103365868330001,0.1241818666458129,walking,2026-03-04_14-03-55
1772633036255745500,0.85174560546875,-0.247518168807961,-0.0898795928895473,-1.44010177718997,-0.0048513989895582,0.0882274508476257,0.0999530106782913,walking,2026-03-04_14-03-55
1772633036265694500,0.861694580078125,-0.1207402297731488,0.1993516288690268,-1.456968740838766,0.0049788616597652,0.0718727186322212,0.0846536830067634,walking,2026-03-04_14-03-55
1772633036275643400,0.871643310546875,0.0054770797042176,0.3930827144425362,-1.3950743024617434,0.0124978059902787,0.0180204696953296,0.0851595774292945,walking,2026-03-04_14-03-55
1772633036285592300,0.88159228515625,0.116216139944829,0.5613035842496902,-1.3324351831972598,0.0213368367403745,-0.0872641429305076,0.0965520441532135,walking,2026-03-04_14-03-55
1772633036295541200,0.891541259765625,0.2026920984033495,0.7204561083950102,-1.4075819018572568,0.0479543544352054,-0.1868397444486618,0.116445206105709,walking,2026-03-04_14-03-55
1772633036305490200,0.901490234375,0.1969738303543999,0.8776962961129844,-1.5862223127394914,0.1171198487281799,-0.2286417931318283,0.1472510397434234,walking,2026-03-04_14-03-55
1772633036315439000,0.911439208984375,0.1379184878608211,0.9931984060369432,-1.7929150981515645,0.2254502326250076,-0.1801906824111938,0.1692043840885162,walking,2026-03-04_14-03-55
1772633036325388500,0.921388427734375,0.0854155261527746,1.0556829192616044,-1.8684610452622172,0.353574126958847,-0.0491200052201747,0.192105695605278,walking,2026-03-04_14-03-55
1772633036335337500,0.93133740234375,0.058538004088588,1.1668990224294364,-1.6862907066881656,0.4853203296661377,0.1067154854536056,0.2193483263254165,walking,2026-03-04_14-03-55
1772633036345287400,0.941287353515625,0.1119318502217531,1.1687351518154143,-1.276697513884306,0.5987662076950073,0.2982074320316314,0.2545710206031799,walking,2026-03-04_14-03-55
1772633036355236400,0.951236328125,0.1950371266707778,1.1131479968890547,-0.6368757617801427,0.6731826066970825,0.4784789979457855,0.2840144038200378,walking,2026-03-04_14-03-55
1772633036365185300,0.961185302734375,0.2077004280846565,1.0420093448266383,0.0934410847634077,0.709518551826477,0.6209660768508911,0.3039870262145996,walking,2026-03-04_14-03-55
1772633036375134200,0.97113427734375,0.1777981513718143,0.9989172220751644,0.7155149987310171,0.7135002613067627,0.6994715332984924,0.3066084086894989,walking,2026-03-04_14-03-55
1772633036385083400,0.98108349609375,0.137456094513461,1.0098147559255362,1.3820079001396894,0.6739986538887024,0.6594442129135132,0.2961171567440033,walking,2026-03-04_14-03-55
1772633036395032300,0.9910322265625,0.1372897249706089,1.0525286930143831,1.9487591553360224,0.601274311542511,0.5042516589164734,0.270380437374115,walking,2026-03-04_14-03-55
1772633036404981200,1.000981201171875,0.0864935306478291,1.042661378994584,2.217982923462986,0.519843339920044,0.326155424118042,0.2192951440811157,walking,2026-03-04_14-03-55
1772633036414930400,1.010930419921875,-0.0041446985892951,1.05650694899559,2.2738147008001803,0.4345512092113495,0.1639916151762008,0.1506901830434799,walking,2026-03-04_14-03-55
1772633036424879400,1.02087939453125,-0.0388859032332897,1.0550376070953904,2.2460797216564417,0.3371644616127014,0.0320554189383983,0.0858446210622787,walking,2026-03-04_14-03-55
1772633036434828300,1.030828369140625,0.0210055978234857,1.0946738903045654,2.186307097738981,0.2319817543029785,-0.0616409592330455,0.0687430799007415,walking,2026-03-04_14-03-55
1772633036444777200,1.040777099609375,0.1670714075110852,1.162416616318375,2.0587807880222795,0.1264034062623977,-0.1229442656040191,0.089616410434246,walking,2026-03-04_14-03-55
1772633036454726100,1.05072607421875,0.2189580274190753,1.1582226717598736,1.8473393467783927,0.0241519585251808,-0.1749315857887268,0.1085667088627815,walking,2026-03-04_14-03-55
1772633036464675300,1.06067529296875,0.1117829432703554,1.1028680104151367,1.6058388673573731,-0.0679494738578796,-0.2253835797309875,0.107048176229,walking,2026-03-04_14-03-55
1772633036474625300,1.070625244140625,-0.1076563648596405,1.03792236777395,1.3704881427377462,-0.1587346792221069,-0.2777451872825622,0.085874892771244,walking,2026-03-04_14-03-55
1772633036484574200,1.08057421875,-0.3418210945650935,1.0080027380675076,1.1255115116387604,-0.2473918348550796,-0.335070788860321,0.0472380258142948,walking,2026-03-04_14-03-55
1772633036494523400,1.0905234375,-0.5558345782540738,0.9757184250563382,0.8264853104442358,-0.3316666781902313,-0.3957566916942596,-0.0092040374875068,walking,2026-03-04_14-03-55
1772633036504472300,1.100472412109375,-0.6611668840803205,0.9307432650372386,0.4348755180984735,-0.3911438584327698,-0.4393174648284912,-0.0833091586828231,walking,2026-03-04_14-03-55
1772633036514421200,1.110421142578125,-0.6814291892558336,0.9073904465004802,-0.0774064802855253,-0.4041565954685211,-0.410434365272522,-0.1620549708604812,walking,2026-03-04_14-03-55
1772633036524370400,1.120370361328125,-0.6302943375632166,0.9539493685796856,-0.5572206257849931,-0.3784773349761963,-0.3131507039070129,-0.2162620276212692,walking,2026-03-04_14-03-55
1772633036534319400,1.1303193359375,-0.4795278393713757,1.0455255362540483,-0.8678156842201947,-0.3190569579601288,-0.1804222464561462,-0.2359751760959625,walking,2026-03-04_14-03-55
1772633036544268300,1.140268310546875,-0.226027637011744,1.088687801632285,-1.0161772766947743,-0.2402500361204147,-0.0380342118442058,-0.2234114408493042,walking,2026-03-04_14-03-55
1772633036554217200,1.15021728515625,-0.0355135772559791,1.0776185644768177,-0.9182342043370008,-0.1749585419893264,0.0905361250042915,-0.2001638710498809,walking,2026-03-04_14-03-55
1772633036564166400,1.16016650390625,0.1837898295346647,1.050542195372283,-0.6245253987729549,-0.0633233562111854,0.2034264653921127,-0.10837934166193,walking,2026-03-04_14-03-55
1772633036574115300,1.170115234375,0.4073080775413662,0.9208991857625544,-0.2361807457029819,0.0080125778913497,0.274651825428009,-0.0366720221936702,walking,2026-03-04_14-03-55
1772633036584064300,1.180064208984375,0.4274265172667801,0.693859777892381,0.3622971886217594,0.0364322364330291,0.2375156581401825,0.0065849032253026,walking,2026-03-04_14-03-55
1772633036594014500,1.190014404296875,0.4526376039560884,0.4220904169358312,0.8602198222637176,0.0512373521924018,0.1908823549747467,0.0412596985697746,walking,2026-03-04_14-03-55
1772633036603963400,1.19996337890625,0.4239827334884554,0.1750872484453022,1.2099334236443042,0.0500597022473812,0.1448110044002533,0.0659962072968483,walking,2026-03-04_14-03-55
1772633036613912300,1.209912353515625,0.3267361554948613,-0.0636304683893918,1.4947715250104665,0.0254930332303047,0.0806453451514244,0.0631874650716781,walking,2026-03-04_14-03-55
1772633036623861200,1.219861328125,0.1887459175720811,-0.3118415513649583,1.6894599843740463,-0.0262617729604244,0.0073474296368658,0.0298521444201469,walking,2026-03-04_14-03-55
1772633036633810200,1.22981005859375,0.0187600473864004,-0.5355442160278558,1.8097668642312288,-0.1043213605880737,-0.0726541355252265,-0.0335486344993114,walking,2026-03-04_14-03-55
1772633036643759400,1.23975927734375,-0.1029628002159297,-0.676960957800597,1.8142191674649717,-0.1949889361858368,-0.134849339723587,-0.1148187220096588,walking,2026-03-04_14-03-55
1772633036653708300,1.249708251953125,-0.1726703600293025,-0.769162125505507,1.6430857712119815,-0.2827671468257904,-0.1542069464921951,-0.1991336792707443,walking,2026-03-04_14-03-55
1772633036663657500,1.259657470703125,-0.1578957655498757,-0.7495090382695198,1.345467683249712,-0.3510966598987579,-0.1580837070941925,-0.2651592791080475,walking,2026-03-04_14-03-55
1772633036673606400,1.2696064453125,-0.0737165397264063,-0.6387910938821733,0.928597777441144,-0.3748217821121216,-0.159278392791748,-0.3077233135700226,walking,2026-03-04_14-03-55
1772633036683555300,1.279555419921875,-0.0024895152607932,-0.4776197041951119,0.4362298553168773,-0.3504083156585693,-0.1381986737251281,-0.3280898332595825,walking,2026-03-04_14-03-55
1772633036693504300,1.289504150390625,0.0598794087601825,-0.3188762723073363,0.1071943003058433,-0.2989972829818725,-0.1131730303168296,-0.3219262063503265,walking,2026-03-04_14-03-55
1772633036703453200,1.299453125,0.1208971739005297,-0.2519828565992414,-0.1571148077726364,-0.2240886837244033,-0.0797953605651855,-0.2938556969165802,walking,2026-03-04_14-03-55
1772633036713403100,1.309403076171875,0.1169239594206213,-0.2694260127007961,-0.361160293546319,-0.1384146362543106,-0.0336908958852291,-0.2734690904617309,walking,2026-03-04_14-03-55
1772633036723352300,1.319352294921875,0.0105068540323525,-0.3512717906080186,-0.3801654382675886,-0.0690885707736015,-0.012116627767682,-0.2791118025779724,walking,2026-03-04_14-03-55
1772633036733301500,1.329301513671875,0.0244309326296672,-0.4784158230088651,-0.2518868488788605,-0.0190798994153738,-0.0115914735943079,-0.2900134027004242,walking,2026-03-04_14-03-55
1772633036743250400,1.33925048828125,0.1030007941387593,-0.5885432541571557,-0.101111180999875,0.0144258616492152,-0.0166709218174219,-0.2947170734405517,walking,2026-03-04_14-03-55
1772633036753199400,1.349199462890625,0.1569219155490398,-0.6940117535836994,0.0146276602894067,0.0322452820837497,-0.0292180478572845,-0.293752372264862,walking,2026-03-04_14-03-55
1772633036763148300,1.359148193359375,0.1887762396451085,-0.791027335833013,0.167796360784769,0.0337544977664947,-0.0676722303032875,-0.2999186515808105,walking,2026-03-04_14-03-55
1772633036773097200,1.36909716796875,0.1812235957758501,-0.9165181941993534,0.2253326039522886,0.0284447073936462,-0.1188664510846138,-0.3136420547962188,walking,2026-03-04_14-03-55
1772633036783046100,1.379046142578125,0.1178623362492769,-1.056813238465786,0.1061643727362155,0.0329004451632499,-0.130456268787384,-0.3444092869758606,walking,2026-03-04_14-03-55
1772633036792995300,1.388995361328125,0.0776887678256258,-1.1066523512594402,-0.0299468099743127,0.047370184212923,-0.1054487004876136,-0.3710723221302032,walking,2026-03-04_14-03-55
1772633036802944500,1.398944580078125,0.139977064358443,-1.1113323257692158,-0.0801660081267356,0.0586894191801548,-0.0859687402844429,-0.3796426355838775,walking,2026-03-04_14-03-55
1772633036812893400,1.4088935546875,0.3009766776751726,-1.1545092041946947,-0.0749146634697914,0.0655639320611953,-0.0737998634576797,-0.3706665635108948,walking,2026-03-04_14-03-55
1772633036822842400,1.41884228515625,0.4117048146629706,-1.217240531787276,-0.1162596502929925,0.0792227461934089,-0.0627709180116653,-0.3674116432666778,walking,2026-03-04_14-03-55
1772633036832791300,1.428791259765625,0.4293190895477309,-1.2273879779227077,-0.1401391230523586,0.0875826105475425,-0.0643377602100372,-0.3728037774562835,walking,2026-03-04_14-03-55
1772633036842741200,1.4387412109375,0.5009038779424503,-1.2367214773267508,-0.0830471165210008,0.0881274938583374,-0.0938882008194923,-0.3744019269943237,walking,2026-03-04_14-03-55
1772633036852690200,1.448690185546875,0.6814848649658263,-1.2354523341737689,-0.121771691712737,0.0949677079916,-0.118867352604866,-0.3632585108280182,walking,2026-03-04_14-03-55
1772633036862639400,1.458639404296875,0.8419719256505369,-1.1376821341648695,-0.208970082694292,0.1128487065434455,-0.1144840568304061,-0.3411500155925751,walking,2026-03-04_14-03-55
1772633036872588300,1.46858837890625,0.969682798153907,-1.036642849357426,-0.2721241657435894,0.1334589421749115,-0.1000587195158004,-0.3125388920307159,walking,2026-03-04_14-03-55
1772633036882537500,1.478537353515625,1.1114609205849468,-1.0099924505800009,-0.3374339655220508,0.1548718214035034,-0.0969806462526321,-0.2871208786964416,walking,2026-03-04_14-03-55
1772633036892486400,1.488486328125,1.2567761311009529,-0.9897903511591256,-0.3796370304793119,0.1788853704929351,-0.0852867811918258,-0.2563683688640594,walking,2026-03-04_14-03-55
1772633036902435300,1.498435302734375,1.364279935747385,-0.8849427601099014,-0.4294879798412322,0.2041220068931579,-0.0569616705179214,-0.2137135863304138,walking,2026-03-04_14-03-55
1772633036912384300,1.50838427734375,1.3721581217765808,-0.8335508649162947,-0.4388876763492822,0.2167356461286544,-0.0527826100587844,-0.1751981079578399,walking,2026-03-04_14-03-55
1772633036922333200,1.518333251953125,1.3746598754644392,-0.9096592682152986,-0.4392120859980583,0.2103850841522216,-0.0825719237327575,-0.1501023471355438,walking,2026-03-04_14-03-55
1772633036932282400,1.528282470703125,1.3214162149243056,-0.919398425810784,-0.4047475063383579,0.1886340528726577,-0.137857899069786,-0.1367164552211761,walking,2026-03-04_14-03-55
1772633036942231300,1.538231201171875,1.2434560462787747,-0.8416568683519959,-0.4938467625051737,0.1576553583145141,-0.21085886657238,-0.1201217547059059,walking,2026-03-04_14-03-55
1772633036952180500,1.548180419921875,1.1439074384205044,-0.7365886202894151,-0.7082464690327644,0.1306124776601791,-0.2678824961185455,-0.1057227477431297,walking,2026-03-04_14-03-55
1772633036962129400,1.55812939453125,0.9554197333931922,-0.6024408466063439,-1.0297866998523473,0.1064975559711456,-0.2768384516239166,-0.0898433849215507,walking,2026-03-04_14-03-55
1772633036972079400,1.568079345703125,0.7216280747838318,-0.4930184949874878,-1.3018290325313806,0.0797041356563568,-0.2623644173145294,-0.0828365534543991,walking,2026-03-04_14-03-55
1772633036982028300,1.5780283203125,0.4957658939994871,-0.3842202666163444,-1.4382897593319417,0.0354844741523265,-0.2773545384407043,-0.0946348905563354,walking,2026-03-04_14-03-55
1772633036991977700,1.587977783203125,0.2294869836853817,-0.1958462510965764,-1.5270768808096646,-0.0219217594712972,-0.3318100869655609,-0.1164358854293823,walking,2026-03-04_14-03-55
1772633037001926700,1.5979267578125,-0.0235357921545393,0.027481735035032,-1.6664923657625912,-0.0813810974359512,-0.386642724275589,-0.1441727131605148,walking,2026-03-04_14-03-55
1772633037011875600,1.60787548828125,-0.2740999593285843,0.3288613674879074,-1.879053166425228,-0.1282349824905395,-0.3932597935199737,-0.1686590611934662,walking,2026-03-04_14-03-55
1772633037021824500,1.617824462890625,-0.4657959954105317,0.6690374713249504,-2.11023624997139,-0.1559148132801056,-0.3337650299072265,-0.1843930184841156,walking,2026-03-04_14-03-55
1772633037031773400,1.6277734375,-0.5340328616168349,0.9865477159760891,-2.308695460045337,-0.1406780779361724,-0.2056310176849365,-0.1809895038604736,walking,2026-03-04_14-03-55
1772633037041722600,1.63772265625,-0.4987183871295302,1.3517701443947852,-2.363635841500759,-0.0826443284749984,-0.0401334017515182,-0.1579017639160156,walking,2026-03-04_14-03-55
1772633037051671600,1.647671630859375,-0.25127463526465,1.576495722364634,-2.26048058745265,0.0256313793361186,0.1292119771242141,-0.0894353091716766,walking,2026-03-04_14-03-55
1772633037061620500,1.657620361328125,-0.0219165386559441,1.735620116394013,-1.9577298127770424,0.1569398641586303,0.2794957458972931,-0.0172764230519533,walking,2026-03-04_14-03-55
1772633037071569700,1.667569580078125,0.0428339284730143,1.882025314103812,-1.4226882855743168,0.2843497097492218,0.384061336517334,0.0548092052340507,walking,2026-03-04_14-03-55
1772633037081518600,1.6775185546875,0.0576275929790921,1.9033029338017105,-0.8408294776171445,0.3991180956363678,0.4269946813583374,0.1215610653162002,walking,2026-03-04_14-03-55
1772633037091468500,1.687468505859375,0.0168660503333434,1.7845146418139337,-0.258486101013422,0.4840545356273651,0.4219785034656524,0.1633524447679519,walking,2026-03-04_14-03-55
1772633037101417500,1.69741748046875,-0.0652314738452434,1.6202246817149222,0.3238929314255714,0.5333121418952942,0.3361059427261352,0.1677213609218597,walking,2026-03-04_14-03-55
1772633037111366400,1.707366455078125,-0.2022575063783675,1.4836466121450065,0.7675076362967491,0.5639017224311829,0.2283266633749008,0.1513185501098632,walking,2026-03-04_14-03-55
1772633037121315600,1.717315673828125,-0.3114374640760943,1.386318749076128,1.0483242270618676,0.5844570994377136,0.1379474997520446,0.1325025260448455,walking,2026-03-04_14-03-55
1772633037131264800,1.7272646484375,-0.451290354065597,1.3016824636675417,1.313266372346878,0.5655509829521179,0.0440052300691604,0.1068287044763565,walking,2026-03-04_14-03-55
1772633037141213700,1.737213623046875,-0.654751683275774,1.189133212199807,1.545778658670187,0.5059054493904114,-0.0367151796817779,0.0578712746500968,walking,2026-03-04_14-03-55
1772633037151162600,1.74716259765625,-0.868329040569812,1.0314596015006303,1.6353420252174138,0.4072715938091278,-0.0620738007128238,-0.0085178669542074,walking,2026-03-04_14-03-55
1772633037161111600,1.757111572265625,-1.0958565242178735,0.8534614340446889,1.6816788289785385,0.2808259129524231,-0.0330313965678215,-0.0972014665603637,walking,2026-03-04_14-03-55
1772633037171060500,1.767060546875,-1.23750108339712,0.7700681344345212,1.7427987758517265,0.1297530680894851,0.0127305695787072,-0.200913593173027,walking,2026-03-04_14-03-55
1772633037181009400,1.777009521484375,-1.2118136844329537,0.7293121995456516,1.6888398066490888,-0.01129353325814,0.0649551600217819,-0.2961886823177337,walking,2026-03-04_14-03-55
1772633037190958600,1.78695849609375,-1.0157803132664411,0.7512797012038529,1.4945143353790045,-0.1173333600163459,0.1102373749017715,-0.3592021465301513,walking,2026-03-04_14-03-55
1772633037200907500,1.796907470703125,-0.7435634277381002,0.9065298841483892,1.249147243657708,-0.1824284791946411,0.1465841978788375,-0.3775925934314728,walking,2026-03-04_14-03-55
1772633037210856700,1.806856689453125,-0.4723765428446233,1.0388172707870602,1.0733978780418634,-0.2208661139011383,0.1658551096916198,-0.3638529181480407,walking,2026-03-04_14-03-55
1772633037220806700,1.816806640625,-0.2452251990325748,1.0463850756928323,0.9913415261238812,-0.2580060362815857,0.1457828730344772,-0.3425524234771728,walking,2026-03-04_14-03-55
1772633037230755600,1.826755615234375,-0.1657659509357064,0.980061568827182,0.9727262575030328,-0.2931140661239624,0.1011770218610763,-0.3189736902713775,walking,2026-03-04_14-03-55
1772633037240704500,1.83670458984375,-0.0861829303286969,0.8911759554110467,0.890519683459401,-0.3209816515445709,0.0534047037363052,-0.2918776273727417,walking,2026-03-04_14-03-55
1772633037250653400,1.8466533203125,0.0354589244592934,0.7933665924355388,0.6998071419894695,-0.3319220244884491,0.0293603129684925,-0.2430822849273681,walking,2026-03-04_14-03-55
1772633037260602400,1.856602294921875,0.1453002686752006,0.7157064296498894,0.5540349814862012,-0.3306354582309723,0.0088941855356097,-0.177661195397377,walking,2026-03-04_14-03-55
1772633037270551800,1.8665517578125,0.2585404250165447,0.6404438295252621,0.4309481155216693,-0.3187351822853088,-0.0298465956002473,-0.1062082201242446,walking,2026-03-04_14-03-55
1772633037280500700,1.876500732421875,0.3092650884730741,0.5014057995826006,0.2775233944386244,-0.290626585483551,-0.0549777820706367,-0.0338330939412117,walking,2026-03-04_14-03-55
1772633037290449700,1.88644970703125,0.2341958189634606,0.3356026584416627,0.1747095011740922,-0.2544512152671814,-0.0619492307305336,0.0177937727421522,walking,2026-03-04_14-03-55
1772633037300398600,1.896398681640625,0.0482130824944004,0.1226582652889192,0.069424833881855,-0.2193710058927536,-0.050437182188034,0.04087645560503,walking,2026-03-04_14-03-55
1772633037310347500,1.906347412109375,-0.1068835903888568,-0.0928247064307331,0.0089431849122047,-0.1877383142709732,-0.032938927412033,0.0342964120209217,walking,2026-03-04_14-03-55
1772633037320296400,1.91629638671875,-0.2094131502866744,-0.2481805417068302,0.0219014506846666,-0.1768286824226379,-0.0238642077893018,0.0175661668181419,walking,2026-03-04_14-03-55
1772633037330245400,1.926245361328125,-0.2054055586131289,-0.3343948900870979,0.0999696097493171,-0.1756083965301513,-0.0253794752061367,0.0092703094705939,walking,2026-03-04_14-03-55
1772633037340194600,1.936194580078125,-0.10827862494383,-0.3531256017811596,0.1881318773269653,-0.184936910867691,-0.0380702354013919,0.0096761751919984,walking,2026-03-04_14-03-55
1772633037350144500,1.94614453125,-0.031276341545023,-0.3446599712528288,0.1624514926254749,-0.187926173210144,-0.0652773380279541,0.0146250501275062,walking,2026-03-04_14-03-55
1772633037360093700,1.95609375,0.045245939784497,-0.2802835068017244,0.0679524232417345,-0.1769179999828338,-0.0818006545305252,0.0373093225061893,walking,2026-03-04_14-03-55
1772633037370042600,1.966042724609375,0.0812571643643081,-0.2111762144364416,-0.0276689281702041,-0.1585917472839355,-0.085118144750595,0.0713172107934951,walking,2026-03-04_14-03-55
1772633037379991600,1.975991455078125,0.0452420307943597,-0.1566226403415203,-0.1229874972432851,-0.1422002613544464,-0.0796847641468048,0.103152111172676,walking,2026-03-04_14-03-55
1772633037389940500,1.9859404296875,-0.0025019363509491,-0.1425624046765267,-0.2243903546661138,-0.1178313642740249,-0.0606404095888137,0.1297877877950668,walking,2026-03-04_14-03-55
1772633037399889400,1.995889404296875,-0.0658444911770522,-0.12837284354344,-0.2925426843941212,-0.0878369882702827,-0.0266478210687637,0.1601076126098632,walking,2026-03-04_14-03-55
1772633037409838600,2.005838623046875,-0.1426474526114761,-0.1130674301229417,-0.2505500473171472,-0.073703795671463,-0.0173037443310022,0.1822188198566436,walking,2026-03-04_14-03-55
1772633037419787500,2.01578759765625,-0.1835211321284994,-0.1548990314193069,-0.2048649854630231,-0.0579360164701938,-0.0242300946265459,0.1882151961326599,walking,2026-03-04_14-03-55
1772633037429736700,2.02573681640625,-0.2755517655720934,-0.1692569348566234,-0.3080751845687627,-0.0225738491863012,0.0180813129991292,0.1879313886165619,walking,2026-03-04_14-03-55
1772633037439685600,2.035685546875,-0.3262207533186301,-0.1161288635201752,-0.335434316137433,0.0095646465197205,0.0745208859443664,0.1955978274345398,walking,2026-03-04_14-03-55
1772633037449634600,2.045634521484375,-0.26216391274333,-0.1117648230917751,-0.1566933674901723,0.0238140281289815,0.1027414426207542,0.2126204222440719,walking,2026-03-04_14-03-55
1772633037459583500,2.05558349609375,-0.1537577158970758,-0.1459435715474188,0.0913064108222723,0.0230797939002513,0.1131919547915458,0.2290369421243667,walking,2026-03-04_14-03-55
1772633037469532400,2.065532470703125,-0.0383310823621228,-0.1181450256481766,0.2656125918924808,0.0315668731927871,0.1163706630468368,0.2568818032741546,walking,2026-03-04_14-03-55
1772633037479482600,2.075482666015625,0.0944856984455138,-0.0549643468528985,0.3689215751975774,0.0478523671627044,0.122329480946064,0.2993957102298736,walking,2026-03-04_14-03-55
1772633037489431600,2.085431640625,0.1835208033349364,-0.0243992588497698,0.4726303714752197,0.0686291605234146,0.1444157063961029,0.3406152725219726,walking,2026-03-04_14-03-55
1772633037499380500,2.09538037109375,0.2398082885503769,-0.0576147152312099,0.61949909504354,0.0797856748104095,0.1637071222066879,0.3769035041332245,walking,2026-03-04_14-03-55
1772633037509329700,2.10532958984375,0.2728085678111762,-0.1331691379092633,0.7253834817945957,0.0923217833042144,0.186033234000206,0.3998622596263885,walking,2026-03-04_14-03-55
1772633037519278600,2.115278564453125,0.2700550313193351,-0.1754920298539102,0.7787135054439306,0.0968624725937843,0.222849041223526,0.4104869365692138,walking,2026-03-04_14-03-55
1772633037529227500,2.1252275390625,0.3100461923807859,-0.2005159964732825,0.9127753544092178,0.0809212476015091,0.2327956408262252,0.4167023003101349,walking,2026-03-04_14-03-55
1772633037539176400,2.135176513671875,0.4571278645800426,-0.2320395542450249,1.043345854127407,0.0488176383078098,0.2057682871818542,0.4235117435455322,walking,2026-03-04_14-03-55
1772633037549125600,2.145125732421875,0.5976372822495177,-0.2315403725512325,1.0068734417766332,0.0202155541628599,0.2003431618213653,0.4292564392089844,walking,2026-03-04_14-03-55
1772633037559074600,2.155074462890625,0.6264803322330117,-0.1477753170192241,0.8646049054801463,-0.0066094016656279,0.2366196811199188,0.4379008114337921,walking,2026-03-04_14-03-55
1772633037569023500,2.1650234375,0.5500329793032258,-0.0040139118164777,0.8634206641316413,-0.0647796541452407,0.2505135238170624,0.4544846415519714,walking,2026-03-04_14-03-55
1772633037578972700,2.17497265625,0.5417379926340654,0.0224915255323052,1.0252841277360916,-0.1560925245285034,0.1903007626533508,0.4765358865261078,walking,2026-03-04_14-03-55
1772633037588921600,2.184921630859375,0.4801924407599494,0.0403485231317579,1.0294874246448278,-0.2458706051111221,0.1096089631319046,0.4952476322650909,walking,2026-03-04_14-03-55
1772633037598870500,2.19487060546875,0.3910494915818795,0.0404068291902542,0.777493023738265,-0.3130459189414978,0.0339477583765983,0.5251837372779846,walking,2026-03-04_14-03-55
1772633037608820700,2.20482080078125,0.2400392477620392,0.037783933340758,0.3082125472128391,-0.3352821171283722,-0.0281097702682018,0.5260863304138184,walking,2026-03-04_14-03-55
1772633037618769700,2.214769775390625,0.045556467038393,0.0447192855618894,-0.3262842104762792,-0.2915069460868835,-0.0405946671962738,0.5342752933502197,walking,2026-03-04_14-03-55
1772633037628718600,2.224718505859375,-0.1023589891038835,0.05934899167791,-0.9285358181208372,-0.2041732668876648,-0.0047870413400232,0.56962651014328,walking,2026-03-04_14-03-55
1772633037638667500,2.23466748046875,-0.1992321306752041,0.0414767965093255,-1.331713298663497,-0.0923418030142784,0.0501188151538372,0.6307010054588318,walking,2026-03-04_14-03-55
1772633037648616400,2.244616455078125,-0.2945096005529165,-0.0963343219868838,-1.6444015299856662,0.0438284911215305,0.1106653437018394,0.7044901847839355,walking,2026-03-04_14-03-55
1772633037658565600,2.254565673828125,-0.4371877040309831,-0.3307848828963935,-1.7713626070350408,0.1674297899007797,0.1618297398090362,0.7630038261413574,walking,2026-03-04_14-03-55
1772633037668514600,2.2645146484375,-0.5963971825279295,-0.6362152520447969,-1.6246902828216552,0.2608767449855804,0.1919370144605636,0.8026279211044312,walking,2026-03-04_14-03-55
1772633037678463700,2.274463623046875,-0.6978364264383912,-0.9772478265807032,-1.354915895074606,0.3132408857345581,0.193646490573883,0.8274539113044739,walking,2026-03-04_14-03-55
1772633037688412700,2.28441259765625,-0.8101525998026132,-1.265043754839152,-1.0328203684598207,0.3263358771800995,0.1563827395439148,0.8416024446487427,walking,2026-03-04_14-03-55
1772633037698361600,2.294361572265625,-0.9703127666205168,-1.5328361749887465,-0.793123723590374,0.3105297386646271,0.0963018238544464,0.8264099359512329,walking,2026-03-04_14-03-55
1772633037708310500,2.304310546875,-1.2015547407470644,-1.7225747568599878,-0.696574151417613,0.2747751474380493,0.0362281948328018,0.7653424739837646,walking,2026-03-04_14-03-55
1772633037718259500,2.314259521484375,-1.5358682361610232,-1.796776449754834,-0.7159767710238695,0.2259570062160492,-0.0178624726831913,0.6435438394546509,walking,2026-03-04_14-03-55
1772633037728209400,2.32420947265625,-1.7654346782907842,-1.8349001364439723,-0.8507061439871787,0.16812664270401,-0.0658736526966095,0.4796198308467865,walking,2026-03-04_14-03-55
1772633037738158600,2.33415869140625,-1.80547048221156,-1.746430702613294,-1.0317191292196513,0.113182432949543,-0.0968238413333892,0.3063351511955261,walking,2026-03-04_14-03-55
1772633037748107800,2.344107666015625,-1.6789233927905558,-1.5545445873193442,-1.273105042350292,0.0716617181897163,-0.0808365866541862,0.1673376262187957,walking,2026-03-04_14-03-55
1772633037758056700,2.354056640625,-1.470002994456887,-1.1486438192926347,-1.4817086298197506,0.0338610783219337,-0.0361836366355419,0.0708774030208587,walking,2026-03-04_14-03-55
1772633037768005600,2.364005615234375,-1.2590513825565577,-0.6311401407375932,-1.5535603985875843,-0.0047628935426473,-0.0008939756080508,0.0079935751855373,walking,2026-03-04_14-03-55
1772633037777954600,2.37395458984375,-1.0359209648236631,-0.1488216112017631,-1.567861895662546,-0.0270849764347076,0.0238712914288043,-0.0315165482461452,walking,2026-03-04_14-03-55
1772633037787903500,2.383903564453125,-0.7877870387375354,0.2682543385729193,-1.6396055278807875,-0.0205340050160884,0.056592121720314,-0.0457417592406272,walking,2026-03-04_14-03-55
1772633037797852400,2.393852294921875,-0.5072992780679837,0.6405437827683985,-1.720958699965477,0.0208608377724885,0.111993059515953,-0.0157859940081834,walking,2026-03-04_14-03-55
1772633037807801600,2.403801513671875,-0.1418790255222469,0.921503143005073,-1.699149019217491,0.0895216539502143,0.1794618517160415,0.0557598285377025,walking,2026-03-04_14-03-55
1772633037817750800,2.413750732421875,0.1254191448369994,1.1325737051099538,-1.4572680160462856,0.1598956882953643,0.2139865309000015,0.1461254060268402,walking,2026-03-04_14-03-55
1772633037827699700,2.42369970703125,0.2912435844942927,1.2275851079300044,-1.042339307433367,0.2257109880447387,0.1999408155679702,0.2326731234788894,walking,2026-03-04_14-03-55
1772633037837648600,2.433648681640625,0.3276188566135242,1.1714138695053755,-0.5577198074787855,0.2768974602222442,0.1654427647590637,0.3110435605049133,walking,2026-03-04_14-03-55
1772633037847597600,2.44359765625,0.2156626756681129,1.0283006990782917,-0.0519680876463651,0.3026866912841797,0.1281375885009765,0.3768984377384186,walking,2026-03-04_14-03-55
1772633037857547500,2.453547607421875,-0.0426151894221082,0.8946988688401878,0.4566249930918216,0.3022587299346924,0.1039366498589515,0.4135648310184479,walking,2026-03-04_14-03-55
1772633037867496400,2.463496337890625,-0.3462132285768166,0.704806265451014,0.889803644144535,0.2903524339199066,0.0939452424645423,0.3885404169559479,walking,2026-03-04_14-03-55
1772633037877445600,2.473445556640625,-0.5626837500290944,0.5120994814239442,1.1122077934294938,0.2797503769397735,0.0635812059044838,0.2870848774909973,walking,2026-03-04_14-03-55
1772633037887394600,2.48339453125,-0.5227663117909803,0.4122343549624085,1.121470711815357,0.2995938956737518,-0.0149026270955801,0.1366418749094009,walking,2026-03-04_14-03-55
1772633037897343700,2.49334375,-0.3551474629975855,0.5000055773958564,0.906519801145792,0.3593291342258453,0.0009823306463658,0.0103499721735715,walking,2026-03-04_14-03-55
1772633037907292700,2.503292724609375,-0.0946291620368137,0.747592244862765,0.7396662741690874,0.4188003242015838,0.1062259376049041,-0.0471638292074203,walking,2026-03-04_14-03-55
1772633037917241600,2.51324169921875,0.1418218154422938,1.123448587759584,0.8120487888127564,0.4343926012516022,0.1922529637813568,-0.0502208694815635,walking,2026-03-04_14-03-55
1772633037927190500,2.5231904296875,0.4369076815132051,1.3756386573687196,1.1009434720933438,0.4068743884563446,0.230035126209259,-0.0154553391039371,walking,2026-03-04_14-03-55
1772633037937139500,2.533139404296875,0.7148552196480333,1.4340182194925843,1.3969284058958291,0.3303170204162597,0.2141840010881424,0.0223967023193836,walking,2026-03-04_14-03-55
1772633037947088400,2.54308837890625,0.8925426406543702,1.4038777866423129,1.5953905385792255,0.2092799395322799,0.1209353134036064,0.0493618175387382,walking,2026-03-04_14-03-55
1772633037957037600,2.55303759765625,0.9158503779403864,1.442161340068281,1.541962315252423,0.0784899666905403,0.0106884352862834,0.0906908810138702,walking,2026-03-04_14-03-55
1772633037966986800,2.56298681640625,0.8649383752182126,1.4750610084988176,1.3578595473110675,-0.0387407653033733,-0.0637311562895774,0.1418672502040863,walking,2026-03-04_14-03-55
1772633037976935700,2.572935791015625,0.7503590061623603,1.3973821410126983,1.0817623862832784,-0.130164161324501,-0.1457732915878296,0.173808142542839,walking,2026-03-04_14-03-55
1772633037986885600,2.5828857421875,0.5564734606795012,1.2565442220412193,0.6965776585489512,-0.1823966801166534,-0.247503250837326,0.1715746968984604,walking,2026-03-04_14-03-55
1772633037996834800,2.592834716796875,0.303450995366834,1.1434355831250549,0.2557797646641731,-0.2045741528272628,-0.3228595554828644,0.135638803243637,walking,2026-03-04_14-03-55
1772633038006783700,2.60278369140625,0.0051294718429446,1.022215387815237,-0.1181856499195098,-0.2169029116630554,-0.3674126267433166,0.0740031823515892,walking,2026-03-04_14-03-55
1772633038016732700,2.612732666015625,-0.2258422339748591,0.9394536641068756,-0.3853250129878521,-0.2210414558649063,-0.36618173122406,0.0001302945893257,walking,2026-03-04_14-03-55
1772633038026681600,2.622681640625,-0.4234693771388381,0.919854499015212,-0.6608411592572927,-0.2206951677799224,-0.30888831615448,-0.0857029482722282,walking,2026-03-04_14-03-55
1772633038036630500,2.632630615234375,-0.5279060858322308,0.9312510684289038,-0.8347364214390516,-0.216155007481575,-0.2094764858484268,-0.1632379591464996,walking,2026-03-04_14-03-55
1772633038046579700,2.642579833984375,-0.4680460758922621,0.9705981594331562,-0.933349940404296,-0.2087964415550232,-0.0739253163337707,-0.2171455323696136,walking,2026-03-04_14-03-55
1772633038056529000,2.65252880859375,-0.2679208688348531,1.0091964778967202,-0.8914940814495086,-0.1981826871633529,0.0867024511098861,-0.2347873747348785,walking,2026-03-04_14-03-55
1772633038066477800,2.662477783203125,-0.0027494083059951,1.0936959851831196,-0.714993020683527,-0.1832533925771713,0.2360541671514511,-0.2120199352502823,walking,2026-03-04_14-03-55
1772633038076426800,2.6724267578125,0.2811153545159846,1.1229587584160268,-0.3560410508364439,-0.1802520006895065,0.3180414140224457,-0.1585487127304077,walking,2026-03-04_14-03-55
1772633038086375700,2.682375732421875,0.512960628297925,1.0532257353678345,0.0470072503685951,-0.1725768744945526,0.3491993248462677,-0.0861274227499961,walking,2026-03-04_14-03-55
1772633038096324600,2.69232470703125,0.609750402434729,0.9030407268583774,0.3893132058411836,-0.1587830334901809,0.3516685962677002,-0.0180775355547666,walking,2026-03-04_14-03-55
1772633038106274600,2.702274658203125,0.5372464168358594,0.7020863389678299,0.666562459513545,-0.1370842009782791,0.3261747658252716,0.025768969208002,walking,2026-03-04_14-03-55
1772633038116223700,2.7122236328125,0.4063381365306675,0.4575777637720107,0.9110574445754288,-0.1159815713763237,0.2796075344085693,0.0460318960249424,walking,2026-03-04_14-03-55
1772633038126172700,2.722172607421875,0.3318878026369959,0.2137282370068133,1.1475637689709663,-0.106583334505558,0.2293391227722168,0.0568550936877727,walking,2026-03-04_14-03-55
1772633038136121900,2.732121826171875,0.2717974910724908,0.0054990358076989,1.353949680390954,-0.1097442433238029,0.162636786699295,0.0591808296740055,walking,2026-03-04_14-03-55
1772633038146070800,2.74207080078125,0.2130543563332408,-0.1807877981744706,1.4713187532305716,-0.1236455738544464,0.0993324741721153,0.0472592376172542,walking,2026-03-04_14-03-55
1772633038156019700,2.752019775390625,0.1410504657436162,-0.3173514008276164,1.497579568168521,-0.1423593312501907,0.0588407032191753,0.0295944921672344,walking,2026-03-04_14-03-55
1772633038165968600,2.76196875,0.1297111794751137,-0.4129889727219939,1.5639765786617994,-0.1750659048557281,0.0006209663115441,0.0160911977291107,walking,2026-03-04_14-03-55
1772633038175917600,2.77191748046875,0.1537571679078042,-0.4718620174512267,1.625375342476368,-0.2221756279468536,-0.1063241213560104,-0.0017309428658336,walking,2026-03-04_14-03-55
1772633038185866500,2.781866455078125,0.192149588535726,-0.4649675817623734,1.5030395871400832,-0.2524013221263885,-0.1889063268899917,-0.0140269761905074,walking,2026-03-04_14-03-55
1772633038195815700,2.791815673828125,0.2158686831016093,-0.3997739557094871,1.1242483598351478,-0.2568157911300659,-0.2242813557386398,-0.0130597157403826,walking,2026-03-04_14-03-55
1772633038205764900,2.801764892578125,0.1247236733861267,-0.354765039551258,0.6881810016036033,-0.2432604432106018,-0.2147995382547378,-0.0199575070291757,walking,2026-03-04_14-03-55
1772633038215713800,2.8117138671875,0.0412296898804604,-0.3632018823765218,0.4079366577684879,-0.2358408719301223,-0.1976751387119293,-0.0330698452889919,walking,2026-03-04_14-03-55
1772633038225662700,2.821662841796875,-0.0640638183053582,-0.4039999028414487,0.2407049451291561,-0.234708160161972,-0.1803420484066009,-0.0554763078689575,walking,2026-03-04_14-03-55
1772633038235612700,2.83161279296875,-0.0721236810443922,-0.4081520540848374,0.1402823309153318,-0.23330919444561,-0.1569725424051284,-0.0700243562459945,walking,2026-03-04_14-03-55
1772633038245561600,2.8415615234375,-0.006366868150793,-0.4222511604554951,0.060405661123991,-0.2283728867769241,-0.1409625113010406,-0.0795030146837234,walking,2026-03-04_14-03-55
1772633038255510800,2.8515107421875,0.084936693127267,-0.4642714161917567,-0.0124210901558399,-0.2140160501003265,-0.1284589618444442,-0.08341546356678,walking,2026-03-04_14-03-55
1772633038265459700,2.861459716796875,0.1032511521706357,-0.5403270663902163,-0.1357253982633352,-0.1756587773561477,-0.076935663819313,-0.0914190411567688,walking,2026-03-04_14-03-55
1772633038275408600,2.87140869140625,0.0594948298893868,-0.5987338087819516,-0.2413379823356866,-0.1208650320768356,-0.0124357705935835,-0.1086097508668899,walking,2026-03-04_14-03-55
1772633038285357800,2.88135791015625,0.0433936629813164,-0.649732613004744,-0.1540992593437433,-0.0723920166492462,0.004142393823713,-0.1350510716438293,walking,2026-03-04_14-03-55
1772633038295306800,2.891306640625,0.0969505541890859,-0.8065871624059975,0.014548749834299,-0.0392575003206729,-0.0208026375621557,-0.1703257113695144,walking,2026-03-04_14-03-55
1772633038305255700,2.901255615234375,0.143061221044138,-0.9309599765278398,0.1474058991849422,-0.013376934453845,-0.0368297286331653,-0.2100816667079925,walking,2026-03-04_14-03-55
1772633038315204600,2.91120458984375,0.1317333694851025,-1.0072314614340665,0.175541860345006,0.0018899026326835,-0.0466520003974437,-0.2491009682416916,walking,2026-03-04_14-03-55
1772633038325153500,2.921153564453125,0.084971362581849,-1.0859802962392568,0.2228419561803341,-0.003351823426783,-0.0646799802780151,-0.299699991941452,walking,2026-03-04_14-03-55
1772633038335102700,2.931102783203125,0.0736709835516288,-1.2269232830204069,0.2436632104128599,-0.0256848260760307,-0.071871317923069,-0.3541637659072876,walking,2026-03-04_14-03-55
1772633038345051600,2.9410517578125,0.1703234315769747,-1.2707789374902845,0.2342237664163112,-0.0517619550228118,-0.0847717300057411,-0.3952048122882843,walking,2026-03-04_14-03-55
1772633038355000800,2.951000732421875,0.3040527241196483,-1.2432966179333629,0.1125812540411949,-0.0769024640321731,-0.0903872698545456,-0.4080013036727905,walking,2026-03-04_14-03-55
1772633038364950800,2.96095068359375,0.4584078213879838,-1.1730215969629585,-0.0663812284022569,-0.0930017679929733,-0.0800942331552505,-0.3939395546913147,walking,2026-03-04_14-03-55
1772633038374899700,2.970899658203125,0.5486890538809821,-1.1311357812613247,-0.2207844391286373,-0.0964207276701927,-0.0563276521861553,-0.366649866104126,walking,2026-03-04_14-03-55
1772633038384848600,2.9808486328125,0.5208553270705044,-1.080033516664058,-0.2681482478499412,-0.1094171926379203,-0.0577942766249179,-0.3504983186721802,walking,2026-03-04_14-03-55
1772633038394797800,2.9907978515625,0.5762132398182526,-1.1094156784929334,-0.3541191428631544,-0.1058219224214553,-0.0848639756441116,-0.3324029147624969,walking,2026-03-04_14-03-55
1772633038404746800,3.000746826171875,0.6021325113095343,-1.0837767948456107,-0.5159978040367365,-0.0810155794024467,-0.1165651232004165,-0.3201097249984741,walking,2026-03-04_14-03-55
1772633038414695700,3.01069580078125,0.5998445465028286,-0.986664474223554,-0.666222852295637,-0.0437449067831039,-0.1507518589496612,-0.3081558644771576,walking,2026-03-04_14-03-55
1772633038424644600,3.02064453125,0.6917972924046218,-0.9553532440282404,-0.7712754643976688,0.0039731287397444,-0.1781035959720611,-0.2867128849029541,walking,2026-03-04_14-03-55
1772633038434593800,3.03059375,0.7966897455088794,-0.8986647037312387,-0.9696756377607584,0.0765892714262008,-0.1551210433244705,-0.2522552907466888,walking,2026-03-04_14-03-55
1772633038444542700,3.040542724609375,0.8793999582257122,-0.8524084178604185,-1.1677496479094027,0.1639697849750518,-0.0813555642962455,-0.2069241404533386,walking,2026-03-04_14-03-55
1772633038454491600,3.05049169921875,1.0085463434249162,-0.8158285996124148,-1.1916443182379006,0.2405987828969955,-0.0161603149026632,-0.1506984233856201,walking,2026-03-04_14-03-55
1772633038464440800,3.06044091796875,1.1523378515049814,-0.8286408810429274,-0.9716595050543546,0.2870074808597564,0.0124976523220539,-0.0911321938037872,walking,2026-03-04_14-03-55
1772633038474389800,3.0703896484375,1.2296087227120995,-0.9340449369311332,-0.6717272949308156,0.2958028316497803,0.0109093422070145,-0.0481754019856452,walking,2026-03-04_14-03-55
1772633038484338700,3.080338623046875,1.180989068710804,-1.031749524357915,-0.4173457066267728,0.2737481594085693,-0.0087791662663221,-0.0274171140044927,walking,2026-03-04_14-03-55
1772633038494288600,3.09028857421875,1.1015217103727162,-1.066863800098002,-0.2502051794022321,0.2327935248613357,-0.0480679832398891,-0.0183202885091304,walking,2026-03-04_14-03-55
1772633038504237600,3.100237548828125,1.0635521913319823,-1.0934664142109454,-0.2237842054665088,0.1951668411493301,-0.0983320027589798,-0.0203623697161674,walking,2026-03-04_14-03-55
1772633038514186500,3.1101865234375,1.0055645511351523,-1.0887189274229108,-0.4435965846925974,0.1893462389707565,-0.1157671883702278,-0.0301838424056768,walking,2026-03-04_14-03-55
1772633038524135700,3.1201357421875,0.9405644748929888,-0.9880391235776244,-0.8407160803705453,0.2224871665239334,-0.0975921899080276,-0.0371145755052566,walking,2026-03-04_14-03-55
1772633038534084900,3.1300849609375,0.8691615458711981,-0.8321597028188407,-1.0841846449941397,0.2533998191356659,-0.0729430317878723,-0.0323935933411121,walking,2026-03-04_14-03-55
1772633038544033800,3.14003369140625,0.7142028932191431,-0.69610872586295,-1.088391449034214,0.2556367516517639,-0.0550122857093811,-0.0337104611098766,walking,2026-03-04_14-03-55
1772633038553982700,3.149982666015625,0.4928010893771424,-0.5968187689408659,-0.9352975673407316,0.2170017212629318,-0.0505810528993606,-0.0453042648732662,walking,2026-03-04_14-03-55
1772633038563931600,3.159931640625,0.2538172689521685,-0.4856145023413002,-0.7329495331346988,0.135347306728363,-0.0914772599935531,-0.0855152234435081,walking,2026-03-04_14-03-55
1772633038573880600,3.169880615234375,0.040695108079724,-0.3675061554417014,-0.6475760194927453,0.0273542497307062,-0.1866714209318161,-0.1468803286552429,walking,2026-03-04_14-03-55
1772633038583829800,3.179829833984375,-0.1276184449795633,-0.074220689856261,-0.7540098568201065,-0.0714178830385208,-0.2837451696395874,-0.2064076960086822,walking,2026-03-04_14-03-55
1772633038593778700,3.18977880859375,-0.258683669412136,0.3499155536934733,-1.1417390083402394,-0.1300479024648666,-0.3404425382614136,-0.2519296407699585,walking,2026-03-04_14-03-55
1772633038603728000,3.199727783203125,-0.3300779402034357,0.7759986935272812,-1.6137866114914416,-0.133545309305191,-0.3169200122356415,-0.2763968408107757,walking,2026-03-04_14-03-55
1772633038613676800,3.2096767578125,-0.3600165303386747,1.2190965349175036,-2.02578803448081,-0.0844624415040016,-0.2464857846498489,-0.2882657349109649,walking,2026-03-04_14-03-55
1772633038623626800,3.219626708984375,-0.3308268223419785,1.5539432604253292,-2.213061833673716,0.037833072245121,-0.124820202589035,-0.2514957785606384,walking,2026-03-04_14-03-55
1772633038633575700,3.22957568359375,-0.1455939909247681,1.7681443756408988,-2.2661919508367774,0.2051030248403549,0.0651486665010452,-0.1586875319480896,walking,2026-03-04_14-03-55
1772633038643524600,3.239524658203125,-0.1084198600454255,2.060092309012264,-1.9511217928141356,0.3708983063697815,0.2411078810691833,-0.0608080141246318,walking,2026-03-04_14-03-55
1772633038653473500,3.2494736328125,-0.1187273190481588,2.1407452238731084,-1.2430571100890635,0.4914289712905884,0.3381244242191314,0.0282225236296653,walking,2026-03-04_14-03-55
1772633038663422700,3.259422607421875,-0.1224701953709125,1.95792518921867,-0.3741980542957782,0.5553598403930664,0.3602975606918335,0.091341458261013,walking,2026-03-04_14-03-55
1772633038673372000,3.269371826171875,-0.2477181848920881,1.7562728821918367,0.3436977020919323,0.5773607492446899,0.3402849733829498,0.1199968084692955,walking,2026-03-04_14-03-55
1772633038683320800,3.27932080078125,-0.536455777914822,1.6394893541552125,0.9040157093703748,0.5618748068809509,0.2873598039150238,0.1119176372885704,walking,2026-03-04_14-03-55
1772633038693269800,3.289269775390625,-0.767896489483863,1.4946050824023782,1.3396493523597717,0.5201172232627869,0.2055696099996566,0.0694428831338882,walking,2026-03-04_14-03-55
1772633038703218700,3.29921875,-0.9115441321138292,1.3480293504312633,1.590454835742712,0.4582478702068329,0.1212904676795005,0.0058587831445038,walking,2026-03-04_14-03-55
1772633038713167600,3.309167724609375,-1.0508173590518533,1.238313714954257,1.7572148392170666,0.3783589005470276,0.0259349234402179,-0.0784805938601493,walking,2026-03-04_14-03-55
1772633038723116500,3.319116455078125,-1.0942283384941518,1.1664388575717806,1.8081781337350609,0.286880761384964,-0.044124960899353,-0.1569149196147918,walking,2026-03-04_14-03-55
1772633038733065700,3.329065673828125,-1.0748441313274204,1.1029989433184266,1.7479051590800283,0.1866654604673385,-0.0619665421545505,-0.2183969169855117,walking,2026-03-04_14-03-55
1772633038743015000,3.339014892578125,-1.036979899292067,1.126860880421102,1.7090438057661057,0.0758923515677452,-0.0463461019098758,-0.2532098889350891,walking,2026-03-04_14-03-55
1772633038752964600,3.348964599609375,-0.9943453841149806,1.146322244477272,1.6072686078995466,-0.0291480496525764,-0.0139237139374017,-0.2747966647148132,walking,2026-03-04_14-03-55
1772633038762913800,3.358913818359375,-0.9433528635025024,1.136830339641124,1.4633926364064216,-0.1223305910825729,0.0418931096792221,-0.2869214415550232,walking,2026-03-04_14-03-55
1772633038772862700,3.36886279296875,-0.8774084190823137,1.0813226796917617,1.3483049525022506,-0.2050073593854904,0.0989329665899276,-0.2991008758544922,walking,2026-03-04_14-03-55
1772633038782811600,3.378811767578125,-0.7707533402197062,0.9885790756732225,1.273582596734166,-0.2773254513740539,0.1423771679401397,-0.2982121706008911,walking,2026-03-04_14-03-55
1772633038792760600,3.388760498046875,-0.648516515213251,0.9040554568588732,1.226023557701707,-0.3385453820228576,0.1448171585798263,-0.2912258803844452,walking,2026-03-04_14-03-55
1772633038802709800,3.398709716796875,-0.4506834376810118,0.8248271679736673,1.1859551666855812,-0.3858451247215271,0.079294703900814,-0.2735204696655273,walking,2026-03-04_14-03-55
1772633038812658700,3.40865869140625,-0.2707576996959746,0.7343579386278987,1.0339549254477025,-0.4069754481315613,-0.0150863928720355,-0.2440136969089508,walking,2026-03-04_14-03-55
1772633038822608000,3.41860791015625,-0.15005363721475,0.686898560577631,0.8068056274622678,-0.4060778617858886,-0.0861399546265602,-0.2018792480230331,walking,2026-03-04_14-03-55
1772633038832556800,3.428556884765625,-0.1169721094112843,0.5912867076463997,0.5487812987416982,-0.3844655156135559,-0.1306144893169403,-0.1681926697492599,walking,2026-03-04_14-03-55
1772633038842505700,3.438505615234375,-0.0736286422472447,0.4529935047216713,0.3590244505614042,-0.3573022484779358,-0.1671282947063446,-0.1344668865203857,walking,2026-03-04_14-03-55
1772633038852454700,3.44845458984375,-0.0818430744934827,0.333020094602555,0.1947059950202703,-0.3286266624927521,-0.1976971328258514,-0.1076443195343017,walking,2026-03-04_14-03-55
1772633038862403600,3.458403564453125,-0.1053453845035284,0.237998901040852,0.0597381371259689,-0.2970557808876037,-0.2027299553155899,-0.0883348584175109,walking,2026-03-04_14-03-55
1772633038872352500,3.4683525390625,-0.1409369223665446,0.1429001121982932,-0.1159685583919286,-0.2613457143306732,-0.1816518306732177,-0.0715731903910636,walking,2026-03-04_14-03-55
1772633038882302700,3.478302734375,-0.2048144608521833,0.0481106815658509,-0.2256277875065803,-0.2337816506624221,-0.1405596733093261,-0.0666595920920372,walking,2026-03-04_14-03-55
1772633038892251600,3.488251708984375,-0.2929694219062104,-0.0201835408508777,-0.2337596560359001,-0.2202298790216446,-0.0932060107588768,-0.0735193639993667,walking,2026-03-04_14-03-55
1772633038902200600,3.49820068359375,-0.2879943369073793,-0.1192151390977203,-0.1138555117607116,-0.2247322648763656,-0.0637046992778778,-0.0880856737494468,walking,2026-03-04_14-03-55
1772633038912149800,3.508149658203125,-0.1791738236391916,-0.1309307113327086,0.0146621470808982,-0.2283983677625656,-0.0500155128538608,-0.0915864035487175,walking,2026-03-04_14-03-55
1772633038922098700,3.5180986328125,-0.0648995019445195,-0.0905894947245717,0.0285626621395349,-0.2208620309829712,-0.0335777848958969,-0.0769983455538749,walking,2026-03-04_14-03-55
1772633038932047600,3.528047607421875,0.036418088347651,-0.0085012863636016,0.0369143108993768,-0.2069368958473205,-0.0263371840119361,-0.0499986819922924,walking,2026-03-04_14-03-55
1772633038941996800,3.537996826171875,0.0873508050642907,0.053271863721311,0.1096738421618938,-0.1926605850458145,-0.0536483451724052,-0.0208676178008317,walking,2026-03-04_14-03-55
1772633038951945700,3.54794580078125,0.1262154828464612,0.0706494072407484,0.1820376521050929,-0.1778241097927093,-0.091649517416954,0.01167834084481,walking,2026-03-04_14-03-55
1772633038961894700,3.557894775390625,0.0572780306227505,0.0985097663298249,0.2624602653414011,-0.1739366054534912,-0.1237086802721023,0.0375821590423584,walking,2026-03-04_14-03-55
1772633038971843800,3.56784375,-0.1021477209733799,0.0860740631267428,0.3052127808749675,-0.190275639295578,-0.1465444862842559,0.0456749722361564,walking,2026-03-04_14-03-55
1772633038981792800,3.577792724609375,-0.2763274626523256,0.0021032558895647,0.2267646825820207,-0.2116654217243194,-0.1396416127681732,0.0316298194229602,walking,2026-03-04_14-03-55
1772633038991742000,3.587741943359375,-0.3584211874386295,-0.0582603196583688,0.0576852962493896,-0.2196847349405288,-0.0905366539955139,0.0235300809144973,walking,2026-03-04_14-03-55
1772633039001691000,3.59769091796875,-0.3371084598947316,-0.0641851796627044,-0.1159463465601205,-0.2101956158876419,-0.0118024405092,0.0358697138726711,walking,2026-03-04_14-03-55
1772633039011641000,3.60764111328125,-0.2629961988490075,-0.0421523576833307,-0.184102183419466,-0.1926725506782531,0.0778384953737258,0.0627884119749069,walking,2026-03-04_14-03-55
1772633039021590000,3.617590087890625,-0.1384997583474964,-0.0605285568512976,-0.1124772091448307,-0.1667264699935913,0.1494350880384445,0.1021422073245048,walking,2026-03-04_14-03-55
1772633039031539000,3.6275390625,0.0374079396352171,-0.130996031653881,0.045948096704483,-0.1349853128194809,0.1844516545534134,0.1575189083814621,walking,2026-03-04_14-03-55
1772633039041488000,3.63748779296875,0.1397619968356564,-0.1953000153906643,0.274579157680273,-0.1042215675115585,0.1775245070457458,0.2132338136434555,walking,2026-03-04_14-03-55
1772633039051436800,3.647436767578125,0.1101459166530519,-0.3256118641726672,0.5247860906481743,-0.088098257780075,0.1420991420745849,0.2458847016096115,walking,2026-03-04_14-03-55
1772633039061386000,3.657385986328125,0.0189821657044813,-0.5222136098116636,0.6941209130465984,-0.0920358672738075,0.0987824350595474,0.246911808848381,walking,2026-03-04_14-03-55
1772633039071335000,3.6673349609375,-0.1015086558848619,-0.6838932412818074,0.7580021413266659,-0.1082579791545867,0.0693899318575859,0.2301802337169647,walking,2026-03-04_14-03-55
1772633039081284000,3.6772841796875,-0.1206880246618762,-0.7570048008523881,0.7262666943699121,-0.1225142776966095,0.0695894435048103,0.2160957902669906,walking,2026-03-04_14-03-55
1772633039091233000,3.68723291015625,-0.0327824717916548,-0.7409472538903356,0.6605161650866269,-0.1343216747045517,0.0797073245048523,0.2204545885324478,walking,2026-03-04_14-03-55
1772633039101182000,3.697181884765625,0.0781940139340236,-0.7045493680804967,0.6036953767120837,-0.1437524706125259,0.088414654135704,0.243009552359581,walking,2026-03-04_14-03-55
1772633039111131000,3.707130859375,0.1450192232441157,-0.6802534234747291,0.5660995132893324,-0.1529939025640487,0.0888295769691467,0.2671479284763336,walking,2026-03-04_14-03-55
1772633039121079800,3.717079833984375,0.1651728438807651,-0.6904692586712539,0.4911299047619104,-0.1586878448724746,0.0544633790850639,0.2791058421134949,walking,2026-03-04_14-03-55
1772633039131029800,3.72702978515625,0.1178479058651253,-0.6921525355830788,0.2687351078271865,-0.1474780738353729,0.0273832902312278,0.2785183489322662,walking,2026-03-04_14-03-55
1772633039140979000,3.73697900390625,0.0316570844909176,-0.6527785565719008,0.0037105449557304,-0.1315533518791198,0.0193008389323949,0.2769311666488647,walking,2026-03-04_14-03-55
1772633039150928100,3.74692822265625,-0.0371357350977137,-0.5726848830290139,-0.1949286978602409,-0.1181986555457115,0.0225245971232652,0.2814641296863556,walking,2026-03-04_14-03-55
1772633039160877000,3.756876953125,-0.1155592834712937,-0.5239695135682821,-0.3606780629873276,-0.1063437610864639,0.0160959716886281,0.2769778072834015,walking,2026-03-04_14-03-55
1772633039170826000,3.766825927734375,-0.1821176220061257,-0.4639730177670716,-0.5087023863315582,-0.0972440093755722,0.0016243534628301,0.272415280342102,walking,2026-03-04_14-03-55
1772633039180775000,3.77677490234375,-0.230798541207984,-0.394402053412795,-0.6954454396486281,-0.0788286030292511,-0.0069470745511353,0.2797923386096954,walking,2026-03-04_14-03-55
1772633039190723800,3.786723876953125,-0.2638464224701747,-0.3188412009939551,-0.954535936295986,-0.0416556634008884,0.0021841060370206,0.2988259494304657,walking,2026-03-04_14-03-55
1772633039200672800,3.7966728515625,-0.3462841383885592,-0.2378266132138669,-1.2306862888157366,0.0214794911444187,0.0304633136838674,0.3297543525695801,walking,2026-03-04_14-03-55
1772633039210622000,3.8066220703125,-0.4263544675884768,-0.2293019459746778,-1.4283826978236436,0.0959353446960449,0.0845627635717392,0.3677062690258026,walking,2026-03-04_14-03-55
1772633039220571100,3.816571044921875,-0.4437335089452564,-0.3808640880562365,-1.446896259635687,0.1775376349687576,0.1254184991121292,0.4191126823425293,walking,2026-03-04_14-03-55
1772633039230520000,3.82652001953125,-0.5471299148054793,-0.5792679146811366,-1.4297422957390546,0.2542909979820251,0.1471150070428848,0.453618437051773,walking,2026-03-04_14-03-55
1772633039240469000,3.836468994140625,-0.8316000231094658,-0.7598502534113823,-1.2901765886604786,0.312335193157196,0.1386850774288177,0.4387823939323425,walking,2026-03-04_14-03-55
1772633039250418000,3.84641796875,-1.0360929603897036,-1.0076185610555113,-1.088969541183114,0.3407535254955292,0.1012732610106468,0.402060866355896,walking,2026-03-04_14-03-55
1772633039260368000,3.856367919921875,-1.1255939292252064,-1.183400221505761,-0.91504622195065,0.3413284420967102,0.041790448129177,0.3504678308963775,walking,2026-03-04_14-03-55
1772633039270316800,3.86631689453125,-1.1818833872020245,-1.1706496071346104,-0.8083814984768629,0.3200098276138305,-0.0103949904441833,0.2945036292076111,walking,2026-03-04_14-03-55
1772633039280266000,3.876265869140625,-1.2436210275821389,-1.1195626862369477,-0.8339736203730106,0.2924074530601501,-0.0418228097259998,0.2147937268018722,walking,2026-03-04_14-03-55
1772633039290215000,3.88621484375,-1.2509710980840028,-1.0340620390839874,-0.8919815727055073,0.2588073909282684,-0.054605983197689,0.1331891417503357,walking,2026-03-04_14-03-55
1772633039300164000,3.8961640625,-1.1009916951492429,-0.840288648738712,-0.97293610086143,0.2345464527606964,-0.0457900986075401,0.0749761164188385,walking,2026-03-04_14-03-55
1772633039310113000,3.906113037109375,-0.8589287595398724,-0.612217998124659,-1.0585580363065004,0.2046306282281875,-0.0218866318464279,0.0435846373438835,walking,2026-03-04_14-03-55
1772633039320062000,3.91606201171875,-0.5995509703837335,-0.3582544891022146,-1.0908166303545237,0.1671675443649292,-0.008195100352168,0.0402826480567455,walking,2026-03-04_14-03-55
1772633039330011000,3.926010986328125,-0.3946363005600869,-0.0942230289213359,-1.1058955415427685,0.1287652999162674,-0.0112353656440973,0.0502218306064605,walking,2026-03-04_14-03-55
1772633039339959800,3.935959716796875,-0.3234442378100007,0.1297391634605824,-1.1315957999885082,0.0998393967747688,-0.0283169467002153,0.0549863688647747,walking,2026-03-04_14-03-55
1772633039349909000,3.945908935546875,-0.2906885444274172,0.3165435915760696,-1.205312193584442,0.0810843482613563,-0.0476112850010395,0.049576424062252,walking,2026-03-04_14-03-55
1772633039359858000,3.95585791015625,-0.2235068863624706,0.4597365492410957,-1.3201935412615535,0.0764356851577758,-0.0619212090969085,0.0384442247450351,walking,2026-03-04_14-03-55
1772633039369807000,3.96580712890625,-0.1963897833887487,0.583485824637115,-1.396417533764243,0.0793180242180824,-0.0771904438734054,0.022959005087614,walking,2026-03-04_14-03-55
1772633039379756000,3.975756103515625,-0.2265724844781681,0.7004274658448993,-1.4209206913799046,0.0854797959327697,-0.0755050629377365,0.0012502626050263,walking,2026-03-04_14-03-55
1772633039389706000,3.9857060546875,-0.1638048069305717,0.7760586070209741,-1.4110381797909737,0.0935020372271537,-0.0540394484996795,-0.0091669578105211,walking,2026-03-04_14-03-55
1772633039399655000,3.995655029296875,-0.0541404267167672,0.8517861943088472,-1.3855553634881972,0.115194596350193,-0.0003476035781204,0.0002852897159755,walking,2026-03-04_14-03-55
1772633039409604000,4.00560400390625,0.0586622149901464,0.9491000288523732,-1.3198042496830225,0.1567907780408859,0.0840061604976654,0.0304631646722555,walking,2026-03-04_14-03-55
1772633039419553000,4.015552978515625,0.1371050891187042,1.0460707490466534,-1.1409084027349947,0.2199862450361251,0.1673834174871444,0.0741977244615554,walking,2026-03-04_14-03-55
1772633039429502000,4.025501953125,0.2144956411827355,1.0904555419571698,-0.8666986628890037,0.2983209788799286,0.2326263338327407,0.1188805028796196,walking,2026-03-04_14-03-55
1772633039439451000,4.035450927734375,0.2869554953789338,1.0523945452407002,-0.4970715697705745,0.3835207819938659,0.2723071575164795,0.1650949567556381,walking,2026-03-04_14-03-55
1772633039449400000,4.045400146484375,0.310969846564345,0.9664075758755206,-0.136729022347927,0.4699667096138,0.3174144327640533,0.2057062983512878,walking,2026-03-04_14-03-55
1772633039459349000,4.055348876953125,0.2724082068493589,0.8623561036400497,0.2298369296342134,0.5413280725479126,0.3711616992950439,0.2221344709396362,walking,2026-03-04_14-03-55
1772633039469298000,4.0652978515625,0.1340241473034024,0.7823822570845484,0.6566968990594149,0.5887438058853149,0.4106252193450928,0.2112040519714355,walking,2026-03-04_14-03-55
1772633039479246800,4.075246826171875,0.0625154198195785,0.7644166845440864,1.1011100608319044,0.6104385852813721,0.4115857779979706,0.1740709990262985,walking,2026-03-04_14-03-55
1772633039489196000,4.085196044921875,0.0774096220906823,0.7665468284405768,1.520664091157913,0.5994245409965515,0.3355149626731872,0.1247010603547096,walking,2026-03-04_14-03-55
1772633039499145000,4.09514501953125,0.0801145702004432,0.8243266711056232,1.85644561329782,0.5592920780181885,0.2151632010936737,0.0595648400485515,walking,2026-03-04_14-03-55
1772633039509095000,4.105094970703125,0.1090937772516161,0.9661441026337444,2.09656428297162,0.4960372447967529,0.0816123262047767,-0.0039568757638335,walking,2026-03-04_14-03-55
1772633039519043800,4.1150439453125,0.1916830670025199,1.133456479293853,2.2326894942075013,0.4078550040721893,-0.0626271665096283,-0.0496103353798389,walking,2026-03-04_14-03-55
1772633039528992800,4.12499267578125,0.3135059043806046,1.298046737513691,2.2138801643192765,0.3030694723129272,-0.1816470324993133,-0.0683051869273185,walking,2026-03-04_14-03-55
1772633039538942000,4.13494189453125,0.3704799105554819,1.4232003267496824,2.0777467697769403,0.1889181435108184,-0.2394542843103408,-0.0628706216812133,walking,2026-03-04_14-03-55
1772633039548891100,4.14489111328125,0.3986853567551821,1.500684256185591,1.869069532549381,0.0711843222379684,-0.2513269186019897,-0.0484730377793312,walking,2026-03-04_14-03-55
1772633039558840000,4.154840087890625,0.3695714174084365,1.4882337938047945,1.6203011079519989,-0.0387689247727394,-0.2471776902675628,-0.0407604426145553,walking,2026-03-04_14-03-55
1772633039568789000,4.1647890625,0.2756026555091142,1.4166088195301592,1.3243886548638344,-0.1386268138885498,-0.2236009985208511,-0.0493334271013736,walking,2026-03-04_14-03-55
1772633039578738000,4.174738037109375,0.065031348163262,1.327823451618105,1.0266688600927592,-0.2326018214225769,-0.194400817155838,-0.0826601162552833,walking,2026-03-04_14-03-55
1772633039588686800,4.184686767578125,-0.2295288500657305,1.2919235784582792,0.8306149575948715,-0.3235298693180084,-0.1880103051662445,-0.1433809995651245,walking,2026-03-04_14-03-55
1772633039598636000,4.194635986328125,-0.4134665636384859,1.2823399036854506,0.6967611984223127,-0.4221579730510711,-0.2331059724092483,-0.2207965850830078,walking,2026-03-04_14-03-55
1772633039608585000,4.2045849609375,-0.4625514239987358,1.313350543498993,0.5081231251388788,-0.5098289847373962,-0.3093618750572204,-0.2968213260173797,walking,2026-03-04_14-03-55
1772633039618534000,4.214533935546875,-0.4008097284980118,1.3452166310980915,0.121838911730051,-0.5608481764793396,-0.3454880118370056,-0.3500605523586273,walking,2026-03-04_14-03-55
1772633039628483000,4.224483154296875,-0.2429834114551544,1.4382726620666682,-0.399842198640108,-0.5534417033195496,-0.2854680716991424,-0.3656730651855469,walking,2026-03-04_14-03-55
1772633039638432000,4.234431884765625,-0.0298741831295192,1.517274594850093,-0.8491244277536869,-0.4940184652805328,-0.1561027765274047,-0.3237837553024292,walking,2026-03-04_14-03-55
1772633039648382000,4.2443818359375,0.277443899461627,1.517429200889915,-1.168828675317764,-0.3928753435611725,0.0119091235101223,-0.2365199774503708,walking,2026-03-04_14-03-55
1772633039658331000,4.254330810546875,0.483578320338577,1.4255465976148842,-1.2155576932668686,-0.2592694461345672,0.1683721989393234,-0.1194469183683395,walking,2026-03-04_14-03-55
1772633039668279800,4.26427978515625,0.6100435401624068,1.2987019865520295,-0.968490227368474,-0.1321402490139007,0.2611399590969085,-0.0046830559149384,walking,2026-03-04_14-03-55
1772633039678228700,4.274228759765625,0.6253972131714225,0.9789308112315832,-0.4173649958491325,-0.0417141877114772,0.2670030891895294,0.068875066936016,walking,2026-03-04_14-03-55
1772633039688178200,4.28417822265625,0.5265290983906016,0.5418374709531665,0.2144108124434947,0.0039475755766034,0.2124162912368774,0.0995032787322998,walking,2026-03-04_14-03-55
1772633039698127000,4.294127197265625,0.4272364745873958,0.1368826054744422,0.6570686549812554,0.0107756312936544,0.1378501802682876,0.1051985770463943,walking,2026-03-04_14-03-55
1772633039708076000,4.304075927734375,0.2479323025668039,-0.1879148735754191,0.9213310013085604,-0.0137424934655427,0.0704999044537544,0.0747818127274513,walking,2026-03-04_14-03-55
1772633039718025000,4.31402490234375,0.0210378926578909,-0.4085135808736085,1.092212468627095,-0.0646852776408195,0.0280504338443279,0.0079834870994091,walking,2026-03-04_14-03-55
1772633039727974000,4.323973876953125,-0.0334874051906168,-0.6163216340512037,1.1730413245767355,-0.1179026886820793,-0.0206987299025058,-0.0786321014165878,walking,2026-03-04_14-03-55
1772633039737922800,4.3339228515625,0.0049552477871999,-0.7040083930715918,1.1385638854354618,-0.1687933951616287,-0.0681214183568954,-0.1580810248851776,walking,2026-03-04_14-03-55
1772633039747872000,4.3438720703125,0.090750092113763,-0.6384145156547427,1.005513843861222,-0.2006133794784546,-0.0905164703726768,-0.2075175493955612,walking,2026-03-04_14-03-55
1772633039757821000,4.353821044921875,0.2021361450210213,-0.4644003032684325,0.8020043646603823,-0.2137726843357086,-0.1009385138750076,-0.231350228190422,walking,2026-03-04_14-03-55
1772633039767771000,4.36377099609375,0.2968696807477623,-0.3082727529674768,0.5473334380209446,-0.2045213878154754,-0.1025968641042709,-0.2363939881324768,walking,2026-03-04_14-03-55
1772633039777720000,4.373719970703125,0.3566675852369517,-0.2203705976307392,0.3415601055413484,-0.1839619278907776,-0.0984568744897842,-0.2363580912351608,walking,2026-03-04_14-03-55
1772633039787669000,4.3836689453125,0.3565864828247577,-0.2014068078331649,0.1812912176519632,-0.1674223691225052,-0.0812869518995285,-0.2418458014726638,walking,2026-03-04_14-03-55
1772633039797618000,4.393617919921875,0.3008204642001539,-0.276787481379509,0.0773082806080579,-0.156668946146965,-0.0462692789733409,-0.2575259208679199,walking,2026-03-04_14-03-55
1772633039807566800,4.40356689453125,0.2703278569113463,-0.3094479342266917,0.0478004465728998,-0.1530915200710296,-0.0113419229164719,-0.2769395709037781,walking,2026-03-04_14-03-55
1772633039817515800,4.413515869140625,0.3195722186822444,-0.3521002042561769,0.0484463432610034,-0.1537659764289856,0.0121878031641244,-0.296545147895813,walking,2026-03-04_14-03-55
1772633039827465000,4.42346484375,0.4020209309186786,-0.381890800755471,0.0825251384735107,-0.1522077620029449,0.0123113729059696,-0.304312527179718,walking,2026-03-04_14-03-55
1772633039837414100,4.4334140625,0.4884108550615608,-0.4035046666704118,0.0592313566476106,-0.1408531218767166,0.003978356719017,-0.3045912384986877,walking,2026-03-04_14-03-55
1772633039847363000,4.443363037109375,0.4817543928470462,-0.4216726299151778,-0.0152589439302682,-0.1191249191761016,0.0040992638096213,-0.310661107301712,walking,2026-03-04_14-03-55
1772633039857312000,4.45331201171875,0.4253641779094934,-0.4651243797592818,-0.0525648844957351,-0.0960408449172973,-0.0032605389133095,-0.3269021213054657,walking,2026-03-04_14-03-55
1772633039867261000,4.463260986328125,0.441273731235601,-0.5098369433194399,-0.0579880785882473,-0.0741376727819442,-0.0127238156273961,-0.3388147056102752,walking,2026-03-04_14-03-55
1772633039877209900,4.4732099609375,0.5456227616455406,-0.5319743947170674,-0.1457780057221651,-0.0377195365726947,0.0102051449939608,-0.3219593167304992,walking,2026-03-04_14-03-55
1772633039887158800,4.48315869140625,0.6577309913475066,-0.4903862467877566,-0.232103705522418,0.0139745492488145,0.0486380197107791,-0.2827634513378143,walking,2026-03-04_14-03-55
1772633039897109000,4.49310888671875,0.7225467239987104,-0.4864756492152809,-0.1350087744265794,0.0571643970906734,0.0579097382724285,-0.2345985621213913,walking,2026-03-04_14-03-55
1772633039907058000,4.503057861328125,0.782454518603161,-0.5995134148523211,0.1044137296766042,0.0747460573911666,0.016169749200344,-0.1859628558158874,walking,2026-03-04_14-03-55
1772633039917006800,4.5130068359375,0.8110171076774597,-0.7312431676082313,0.3539379410773515,0.0776883289217948,-0.0626212656497955,-0.1440195143222808,walking,2026-03-04_14-03-55
1772633039926956000,4.5229560546875,0.7589015013191849,-0.8717267201840877,0.44905601914227,0.069203495979309,-0.1640621274709701,-0.1127534732222557,walking,2026-03-04_14-03-55
1772633039936905000,4.532905029296875,0.6269374283507466,-0.9950454952083528,0.4056628676176071,0.053497988730669,-0.2562044560909271,-0.1000231876969337,walking,2026-03-04_14-03-55
1772633039946854000,4.54285400390625,0.4393071438703685,-1.0996825122468172,0.2101157455980777,0.0330790020525455,-0.3022361099720001,-0.1087650135159492,walking,2026-03-04_14-03-55
1772633039956802800,4.552802734375,0.2279323015892878,-1.1889745145067572,0.002799275329709,0.0025277971290051,-0.3088859021663666,-0.1356870234012603,walking,2026-03-04_14-03-55
1772633039966752000,4.562751953125,0.106037677616626,-1.247009208715707,-0.2066547914892434,-0.0339180938899517,-0.2759380936622619,-0.1791729778051376,walking,2026-03-04_14-03-55
1772633039976701000,4.572700927734375,0.1698995436090976,-1.1947408229485152,-0.4061766623586416,-0.0540109500288963,-0.2330433577299118,-0.2073375433683395,walking,2026-03-04_14-03-55
1772633039986650000,4.582650146484375,0.3712101610587909,-1.055874057919532,-0.6402922922253609,-0.043898656964302,-0.1777654588222503,-0.202049046754837,walking,2026-03-04_14-03-55
1772633039996598800,4.592598876953125,0.6183787127114833,-0.8818246280893683,-0.8330483222216367,0.0046608946286141,-0.1011261418461799,-0.1648312360048294,walking,2026-03-04_14-03-55
1772633040006547700,4.602547607421875,0.8350605388268828,-0.7652408604085444,-0.9279881211102008,0.0802374109625816,-0.0319870226085186,-0.118195816874504,walking,2026-03-04_14-03-55
1772633040016496600,4.61249658203125,0.9531967966467142,-0.7223660336695611,-0.8613760065615177,0.1606818586587906,0.0055128913372755,-0.079531542956829,walking,2026-03-04_14-03-55
1772633040026446600,4.622446533203125,0.9686281014692038,-0.7420309574738144,-0.6446148315995931,0.2179590016603469,0.0162539519369602,-0.0541207231581211,walking,2026-03-04_14-03-55
1772633040036395500,4.6323955078125,0.9197146521531044,-0.7933702456973493,-0.3110486474215984,0.2499710917472839,0.015597260557115,-0.040093682706356,walking,2026-03-04_14-03-55
1772633040046344400,4.642344482421875,0.9024499944236128,-0.8935422461509704,0.0019108020573854,0.2616980373859405,0.0169312395155429,-0.0285472832620143,walking,2026-03-04_14-03-55
1772633040056293600,4.652293701171875,0.9556855447225272,-1.003283892852068,0.2143523602545261,0.2586809992790222,0.0107862520962953,-0.0306331664323806,walking,2026-03-04_14-03-55
1772633040066242800,4.662242919921875,1.0208281712405385,-1.0680766830191015,0.4056488390922546,0.2408468872308731,-0.0471673272550106,-0.0396660752594471,walking,2026-03-04_14-03-55
1772633040076191700,4.672191650390625,1.03079339267686,-1.0833002633750437,0.4806219547510146,0.2164250165224075,-0.1435340493917465,-0.0493037365376949,walking,2026-03-04_14-03-55
1772633040086140700,4.682140625,0.8874684061300009,-0.9837493174292148,0.4207464549809694,0.1853555142879486,-0.2357241660356521,-0.057248480618,walking,2026-03-04_14-03-55
1772633040096089600,4.692089599609375,0.6944726490937173,-0.8377379413425922,0.1909901893675327,0.1542146801948547,-0.3001762628555298,-0.0540802292525768,walking,2026-03-04_14-03-55
1772633040106038500,4.70203857421875,0.4513661957807838,-0.721299281220883,-0.1889396865785121,0.1364231556653976,-0.3167113065719604,-0.0629765167832374,walking,2026-03-04_14-03-55
1772633040115987500,4.711987548828125,0.1608525329962372,-0.570200372736901,-0.5567325500071049,0.1278566271066665,-0.3084679543972015,-0.0911583304405212,walking,2026-03-04_14-03-55
1772633040125936400,4.721936279296875,-0.0848608879446983,-0.3793329329662024,-0.8690098624408245,0.1326133012771606,-0.2769316136837005,-0.1182184368371963,walking,2026-03-04_14-03-55
1772633040135885800,4.7318857421875,-0.1871397244844585,-0.1948008336968719,-1.1746510978609324,0.1599188596010208,-0.2053430825471878,-0.1267196983098983,walking,2026-03-04_14-03-55
1772633040145834800,4.741834716796875,-0.165753675976023,-0.0902820362105965,-1.367654965138435,0.1950672566890716,-0.1212833374738693,-0.1131671443581581,walking,2026-03-04_14-03-55
1772633040155784700,4.75178466796875,-0.1212053082679398,-0.0662023647040128,-1.3256278412699698,0.2135134041309356,-0.0692737996578216,-0.0979109406471252,walking,2026-03-04_14-03-55
1772633040165733600,4.761733642578125,-0.1435624302982352,-0.0585302226409316,-1.0504244142115116,0.1951482445001602,-0.0879060700535774,-0.1076083034276962,walking,2026-03-04_14-03-55
1772633040175682600,4.7716826171875,-0.2584481436232105,-0.0836238934956491,-0.6747527802318334,0.1252916306257248,-0.1604818105697631,-0.1448290795087814,walking,2026-03-04_14-03-55
1772633040185631500,4.781631591796875,-0.41272352671884,-0.0288369490362703,-0.4521311888039112,0.0292907953262329,-0.2566730678081512,-0.1994097679853439,walking,2026-03-04_14-03-55
1772633040195580700,4.79158056640625,-0.5385519464764744,0.1389531281381845,-0.4781114332348108,-0.063113734126091,-0.3070423603057861,-0.2568525671958923,walking,2026-03-04_14-03-55
1772633040205529600,4.801529541015625,-0.5747006432982161,0.4025833140417933,-0.7290823363125324,-0.1170970797538757,-0.277163028717041,-0.3018666505813598,walking,2026-03-04_14-03-55
1772633040215478800,4.811478759765625,-0.5120696708075702,0.7274303313218057,-1.0606564698904752,-0.1234125643968582,-0.1808337867259979,-0.327367901802063,walking,2026-03-04_14-03-55
1772633040225427700,4.821427734375,-0.2913643247971311,1.0239917498379945,-1.2957406525284052,-0.0795673429965972,-0.0577640458941459,-0.3176809251308441,walking,2026-03-04_14-03-55
1772633040235376600,4.831376708984375,-0.0684108893326483,1.3071001048021018,-1.3670716122925282,-0.0005246549844741,0.0587657243013381,-0.2704698443412781,walking,2026-03-04_14-03-55
1772633040245325600,4.84132568359375,0.1278491301965899,1.5192409264869986,-1.2746487646609543,0.10892353951931,0.1504027098417282,-0.1939146071672439,walking,2026-03-04_14-03-55
1772633040255274500,4.8512744140625,0.2028590524680912,1.6919529702335596,-1.0157575899779796,0.2214103788137436,0.1932963281869888,-0.1190570220351219,walking,2026-03-04_14-03-55
1772633040265223400,4.861223388671875,0.1200993197874166,1.768149636337906,-0.589593786123395,0.3127189874649048,0.1883660107851028,-0.058126825839281,walking,2026-03-04_14-03-55
1772633040275172600,4.871172607421875,-0.0319031682064756,1.680978571754694,-0.1183183363884687,0.3647147119045257,0.1366379410028457,-0.0308644995093345,walking,2026-03-04_14-03-55
1772633040285122600,4.88112255859375,-0.2586293088763952,1.5114271839961408,0.2088157689154147,0.3951386511325836,0.0926515609025955,-0.0351862758398056,walking,2026-03-04_14-03-55
1772633040295071500,4.891071533203125,-0.453739902642183,1.4096543242171409,0.4070464309304952,0.4056727588176727,0.0883323848247528,-0.0591769851744174,walking,2026-03-04_14-03-55
1772633040305020700,4.901020751953125,-0.5856408107139169,1.403755475436896,0.6868921308368444,0.3869600594043731,0.070269227027893,-0.0844154953956604,walking,2026-03-04_14-03-55
1772633040314969600,4.910969482421875,-0.6672977880507707,1.3346575354218482,0.9661270053684712,0.3223497569561004,0.0159528367221355,-0.1172103956341743,walking,2026-03-04_14-03-55
1772633040324918500,4.92091845703125,-0.758952866180241,1.253919572626054,1.116368420240283,0.2389054596424102,-0.0120441764593124,-0.1529034078121185,walking,2026-03-04_14-03-55
1772633040334867700,4.93086767578125,-0.8617165636274963,1.2440652642183003,1.1153197879701853,0.1480766385793686,0.0115529149770736,-0.186246782541275,walking,2026-03-04_14-03-55
1772633040344816600,4.940816650390625,-0.9432561251297592,1.242873277954757,1.1690765125989913,0.0312086008489131,0.0429867394268512,-0.2209602892398834,walking,2026-03-04_14-03-55
1772633040354765600,4.950765625,-0.9393598483435808,1.1670056976743042,1.2313041284531354,-0.1003787890076637,0.0504552498459816,-0.2510726749897003,walking,2026-03-04_14-03-55
1772633040364714500,4.960714599609375,-0.8704633491847663,1.1053500364892184,1.195009995278716,-0.2232772707939148,0.0527152083814144,-0.2662468254566192,walking,2026-03-04_14-03-55
1772633040374663700,4.97066357421875,-0.778573658581823,1.121169829172641,0.966833692333102,-0.2966149449348449,0.0628609508275985,-0.2668100297451019,walking,2026-03-04_14-03-55
1772633040384612600,4.980612548828125,-0.6592416881714016,1.1689642843961714,0.6302870310395956,-0.3137009739875793,0.0631858557462692,-0.2522353231906891,walking,2026-03-04_14-03-55
1772633040394561500,4.9905615234375,-0.4830895869735628,1.1830388408474624,0.3845645500093698,-0.2884219586849212,0.0371983274817466,-0.2146864533424377,walking,2026-03-04_14-03-55
1772633040404511700,5.00051171875,-0.3313476313456893,1.1161191216543316,0.2328121460527181,-0.2429016083478927,0.0086580282077193,-0.1731318235397339,walking,2026-03-04_14-03-55
1772633040414460700,5.010460693359375,-0.3069949881166219,0.9717267250716686,0.1998077020734548,-0.2047661989927292,-0.029297474771738,-0.1406135559082031,walking,2026-03-04_14-03-55
1772633040424409600,5.02040966796875,-0.3632044396597891,0.7624041756778955,0.2930792754888534,-0.1971066743135452,-0.084948219358921,-0.1313846409320831,walking,2026-03-04_14-03-55
1772633040434358500,5.030358642578125,-0.4352101568803191,0.5026832721725106,0.4086369149923324,-0.2164448052644729,-0.1376945674419403,-0.1441336572170257,walking,2026-03-04_14-03-55
1772633040444307500,5.040307373046875,-0.5115251156020909,0.2922770191952586,0.3724707921117544,-0.2478027194738388,-0.1564983576536178,-0.1670480370521545,walking,2026-03-04_14-03-55
1772633040454256600,5.050256591796875,-0.5482140202477574,0.2023338595502078,0.2421978140354156,-0.2728095054626465,-0.1197415441274643,-0.1793136000633239,walking,2026-03-04_14-03-55
1772633040464205600,5.06020556640625,-0.4743192013449966,0.1660651530779898,0.1022644426882267,-0.2837439179420471,-0.0542895682156086,-0.1705414056777954,walking,2026-03-04_14-03-55
1772633040474154800,5.07015478515625,-0.3378821111483499,0.1394987793222069,0.0054717094093561,-0.2768856585025787,-0.0023590151686221,-0.148504763841629,walking,2026-03-04_14-03-55
1772633040484103700,5.080103759765625,-0.2428867096150293,0.0803289436034858,-0.0575344896018505,-0.2385483682155609,0.0339627750217914,-0.1238156631588935,walking,2026-03-04_14-03-55
1772633040494052600,5.090052490234375,-0.1357791742771864,-0.0047103696480393,-0.0656914925724267,-0.1730043590068817,0.043588537722826,-0.0986401960253715,walking,2026-03-04_14-03-55
1772633040504001500,5.10000146484375,-0.0803493653370067,-0.1153304066188633,0.0345054961919784,-0.0956608355045318,0.0202400721609592,-0.0789932534098625,walking,2026-03-04_14-03-55
1772633040513950500,5.109950439453125,-0.0719580056212842,-0.2460040744505822,0.1972036570549011,-0.0273420121520757,-0.0217689666897058,-0.0686006918549537,walking,2026-03-04_14-03-55
1772633040523899600,5.119899658203125,-0.1544721477767452,-0.3801582778744399,0.4625841937571763,0.0008470141328871,-0.0756156891584396,-0.0674185156822204,walking,2026-03-04_14-03-55
1772633040533849600,5.129849609375,-0.2539258804257959,-0.5219124349080025,0.750239690631628,-0.0159338451921939,-0.1432351469993591,-0.0789994150400161,walking,2026-03-04_14-03-55
1772633040543798800,5.139798828125,-0.38849125846643,-0.6315472602337598,0.921997356262803,-0.0695515349507331,-0.1904151737689972,-0.098700150847435,walking,2026-03-04_14-03-55
1772633040553747700,5.149747802734375,-0.5047085309224203,-0.6492632419273257,0.9343062182158232,-0.1437049210071563,-0.2059164047241211,-0.1295527815818786,walking,2026-03-04_14-03-55
1772633040563696600,5.159696533203125,-0.568791930711083,-0.6196196526832878,0.8571388073831796,-0.2217587232589721,-0.1960081160068512,-0.1496085077524185,walking,2026-03-04_14-03-55
1772633040573645600,5.1696455078125,-0.5540004216294735,-0.5149984177358449,0.6940431716352701,-0.2880683243274688,-0.1715582013130188,-0.1464678794145584,walking,2026-03-04_14-03-55
1772633040583594500,5.179594482421875,-0.4364783501852303,-0.3552013851419091,0.4268418492466211,-0.3157540261745453,-0.1491224020719528,-0.1111759394407272,walking,2026-03-04_14-03-55
1772633040593543400,5.18954345703125,-0.3834440946120768,-0.2109131795860827,0.1410498081564903,-0.3010397851467132,-0.1410637497901916,-0.0622178465127944,walking,2026-03-04_14-03-55
1772633040603492900,5.199492919921875,-0.3429793977547437,-0.1137441603407263,-0.135787357583642,-0.2574717998504638,-0.1392522603273391,-0.0179526470601558,walking,2026-03-04_14-03-55
1772633040613441800,5.20944189453125,-0.3727153779899701,-0.121161012468487,-0.3373474562823772,-0.2023326158523559,-0.1466527283191681,0.0179835315793752,walking,2026-03-04_14-03-55
1772633040623390700,5.219390625,-0.4418989869944751,-0.1982493667155504,-0.441277201834321,-0.1477908045053482,-0.1358600109815597,0.037950050085783,walking,2026-03-04_14-03-55
1772633040633339600,5.229339599609375,-0.468932576403208,-0.2571501762345433,-0.4261643883764743,-0.0979119688272476,-0.100567452609539,0.0517009980976581,walking,2026-03-04_14-03-55
1772633040643288600,5.23928857421875,-0.4066316395845264,-0.325873437718302,-0.3004594488680362,-0.0687932297587394,-0.0611758343875408,0.0572196021676063,walking,2026-03-04_14-03-55
1772633040653237500,5.249237548828125,-0.3715769850771874,-0.411491135379672,-0.1117629233956336,-0.0537335872650146,-0.014474643394351,0.0667814090847969,walking,2026-03-04_14-03-55
1772633040663187500,5.2591875,-0.1343883957722224,-0.5426335897669196,0.1227969431072473,-0.0506387278437614,0.0159205477684736,0.0748872756958007,walking,2026-03-04_14-03-55
1772633040673136600,5.26913671875,0.0075238013672642,-0.541595771151781,0.337075653603673,-0.0476973131299018,0.0336277820169925,0.0845482721924781,walking,2026-03-04_14-03-55
1772633040683085600,5.27908544921875,0.1243015755165368,-0.5467088763818144,0.4398907159119844,-0.039244171231985,0.0556550547480583,0.1023192778229713,walking,2026-03-04_14-03-55
1772633040693034800,5.28903466796875,0.2223732244237325,-0.5761065280407667,0.5369324555158614,-0.0277858078479766,0.0782282426953315,0.1137830466032028,walking,2026-03-04_14-03-55
1772633040702983700,5.298983642578125,0.2672187484474853,-0.5851422135420143,0.6464625052928924,-0.0142340445891022,0.0821771770715713,0.11599612981081,walking,2026-03-04_14-03-55
1772633040712932600,5.3089326171875,0.3622816987916827,-0.599695347290486,0.7411918763011693,-0.006691335234791,0.0618688836693763,0.1137518063187599,walking,2026-03-04_14-03-55
1772633040722881500,5.318881591796875,0.4825128099989145,-0.5892439497724176,0.7601385688334703,0.0026939110830426,0.0293018855154514,0.1122002527117729,walking,2026-03-04_14-03-55
1772633040734696700,5.33069677734375,0.5572261787429451,-0.5509302934691309,0.7213754151970148,0.0276327431201934,0.0061993896961212,0.1230922788381576,walking,2026-03-04_14-03-55
1772633040744645600,5.340645751953125,0.669059829287231,-0.4227864363759755,0.5544716193377971,0.0518411472439765,0.0252308715134859,0.141139730811119,walking,2026-03-04_14-03-55
1772633040754594600,5.350594482421875,0.6720682173229754,-0.3054125412307679,0.4105746050566434,0.0579442419111728,0.0636195465922355,0.1587758064270019,walking,2026-03-04_14-03-55
1772633040764543500,5.36054345703125,0.6166461898304522,-0.2296986902073025,0.4253577481687068,0.0282635800540447,0.1070969849824905,0.1735808551311493,walking,2026-03-04_14-03-55
1772633040774492400,5.370492431640625,0.5033215700760484,-0.1944103730745613,0.4860393036246299,-0.0439699031412601,0.159957081079483,0.1819367706775665,walking,2026-03-04_14-03-55
1772633040784441600,5.380441650390625,0.2774999404978007,-0.1921867056757211,0.5600421129465103,-0.1568517088890075,0.1855154335498809,0.1765428036451339,walking,2026-03-04_14-03-55
1772633040794391600,5.3903916015625,0.0597982515490613,-0.1526877851106226,0.5453180065453053,-0.2700717449188232,0.159321442246437,0.1658057421445846,walking,2026-03-04_14-03-55
1772633040804340500,5.400340576171875,-0.0277848644337616,-0.1145399868935346,0.2809697355002165,-0.3368257284164428,0.1024405732750892,0.157409593462944,walking,2026-03-04_14-03-55
1772633040814289700,5.41028955078125,-0.0372718008338473,-0.021202216374129,-0.2133890681803226,-0.3314991891384125,0.0358552485704422,0.1737681627273559,walking,2026-03-04_14-03-55
1772633040824238600,5.420238525390625,0.0282477509714663,0.0750207541927695,-0.7822913639307022,-0.2643585205078125,-0.0310175232589244,0.1982812285423278,walking,2026-03-04_14-03-55
1772633040834187500,5.4301875,0.1053425532256253,0.1266525956220924,-1.3141373099625109,-0.1336303651332855,-0.0531610324978828,0.270752876996994,walking,2026-03-04_14-03-55
1772633040844136700,5.44013671875,0.2355915293718688,0.1045494848854839,-1.7952093465685843,0.0418660789728164,0.0185291357338428,0.396944910287857,walking,2026-03-04_14-03-55
1772633040854085600,5.450085693359375,0.2132314847321249,0.0557958292409777,-2.0295301436185835,0.2296183854341507,0.1574668437242508,0.52734375,walking,2026-03-04_14-03-55
1772633040864034600,5.46003466796875,0.080877298201248,-0.2479625150419771,-1.8869506416767836,0.3701781928539276,0.2473637014627456,0.6187047958374023,walking,2026-03-04_14-03-55
1772633040873983700,5.469983642578125,-0.1053201769970357,-0.6931089595250784,-1.2927578373253346,0.4302831888198852,0.243397831916809,0.6528118848800659,walking,2026-03-04_14-03-55
1772633040883932700,5.4799326171875,-0.2931383487323299,-1.1387899492762985,-0.640197015157342,0.421377569437027,0.1737673580646515,0.6597014665603638,walking,2026-03-04_14-03-55
1772633040893881600,5.489881591796875,-0.4988924650548025,-1.4647113177895543,-0.2538286305963993,0.3796376287937164,0.096550241112709,0.6426595449447632,walking,2026-03-04_14-03-55
1772633040903830500,5.49983056640625,-0.7894044108062982,-1.646674589484185,-0.1299456458181142,0.3255967795848846,0.0350932739675045,0.5830832719802856,walking,2026-03-04_14-03-55
1772633040913779700,5.50977978515625,-1.0516606780081987,-1.723384758068621,-0.1248392625898122,0.2743052840232849,-0.0116264708340168,0.4945144057273865,walking,2026-03-04_14-03-55
1772633040923729700,5.519729736328125,-1.1395035043731332,-1.710967467305064,-0.217910929518938,0.2292097359895706,-0.0592488497495651,0.4016550481319427,walking,2026-03-04_14-03-55
1772633040933678600,5.5296787109375,-1.1267827736835927,-1.6544949078463016,-0.3972305548369884,0.2016829699277877,-0.0988139435648918,0.3091519474983215,walking,2026-03-04_14-03-55
1772633040943627500,5.53962744140625,-1.0605637501057237,-1.4718416080608965,-0.5997089374244213,0.176336333155632,-0.1178576797246933,0.2366636395454406,walking,2026-03-04_14-03-55
1772633040953576400,5.549576416015625,-0.9407665733363478,-1.1797877300970256,-0.792940768238902,0.150847241282463,-0.1310965269804,0.1806918680667877,walking,2026-03-04_14-03-55
1772633040963525600,5.559525634765625,-0.8774616105742752,-0.8396969664558768,-1.0123469047516584,0.1261565387248993,-0.14603953063488,0.1339027881622314,walking,2026-03-04_14-03-55
1772633040973474600,5.569474609375,-0.797909204301238,-0.4371351335935294,-1.221413433557749,0.1145131886005401,-0.1578748077154159,0.0995819568634033,walking,2026-03-04_14-03-55
1772633040983423700,5.579423828125,-0.7290673579391092,-0.0263135680384933,-1.4182470882564782,0.1124947741627693,-0.1755909621715545,0.0761282965540885,walking,2026-03-04_14-03-55
1772633040993372200,5.5893720703125,-0.6830214999485761,0.3396871512763202,-1.5585130525588988,0.1112843975424766,-0.2000644207000732,0.0643861666321754,walking,2026-03-04_14-03-55
1772633041003321000,5.599321044921875,-0.6452827209237962,0.618446224989742,-1.63695296754539,0.1083887442946434,-0.2028919011354446,0.0609019510447979,walking,2026-03-04_14-03-55
1772633041013270000,5.60927001953125,-0.6359745020914822,0.8194970589920878,-1.7156085711091755,0.1105044335126876,-0.169013038277626,0.0675826668739318,walking,2026-03-04_14-03-55
1772633041023219500,5.619219482421875,-0.6151909495208412,0.952715735131502,-1.7791034304201605,0.1247369050979614,-0.0890497714281082,0.0820787847042083,walking,2026-03-04_14-03-55
1772633041033168400,5.62916845703125,-0.5388121683152393,1.0608448320694268,-1.7285761892318725,0.1410915106534958,0.0006479946896433,0.1143330633640289,walking,2026-03-04_14-03-55
1772633041043117300,5.639117431640625,-0.4579851755291223,0.9398534770794212,-1.4789099390119314,0.1278947442770004,0.1022502481937408,0.1291394382715225,walking,2026-03-04_14-03-55
1772633041053067300,5.6490673828125,-0.4477285699307918,0.6632518736608326,-1.0690390983104705,0.090963028371334,0.2011179774999618,0.1194147318601608,walking,2026-03-04_14-03-55
1772633041063016200,5.65901611328125,-0.3439007503833621,0.4589243560753762,-0.8669657893925905,0.0625050216913223,0.2778777480125427,0.1063913404941558,walking,2026-03-04_14-03-55
1772633041073586200,5.669586181640625,-0.1233180078392848,0.4154761133626103,-0.7721943328082561,0.0624489076435565,0.3560530245304107,0.1136060208082199,walking,2026-03-04_14-03-55
1772633041083535000,5.67953515625,0.1237859176119789,0.423343193475902,-0.7103723751455545,0.0941543728113174,0.4304665327072143,0.1332801282405853,walking,2026-03-04_14-03-55
1772633041093484300,5.689484375,0.2627821542395279,0.5018764858342707,-0.5732622445255517,0.1515527367591858,0.4946801960468292,0.1554168909788131,walking,2026-03-04_14-03-55
1772633041103433200,5.69943310546875,0.4214016674866899,0.5687153948761522,-0.3287345262378454,0.2272309958934784,0.536348283290863,0.1852086037397384,walking,2026-03-04_14-03-55
1772633041113382400,5.70938232421875,0.560204902292788,0.6441529131762683,-0.0223860193312168,0.3141148090362549,0.5349347591400146,0.2168349921703338,walking,2026-03-04_14-03-55
1772633041123331300,5.719331298828125,0.6429279014259577,0.767171097818762,0.3024392245084047,0.3941353559494018,0.4609100222587585,0.2121158838272094,walking,2026-03-04_14-03-55
1772633041133280300,5.7292802734375,0.6757252785257994,0.9234535464204848,0.6106909346878528,0.4665490686893463,0.3459257185459137,0.2024886757135391,walking,2026-03-04_14-03-55
1772633041143229200,5.739229248046875,0.8038587603554129,1.052752418767661,0.7969909204125404,0.5388256907463074,0.2368668913841247,0.2077313661575317,walking,2026-03-04_14-03-55
1772633041153178000,5.74917822265625,0.8391726503208279,1.189726794178784,0.9195920486867428,0.5900740623474121,0.1246812641620636,0.2239768356084823,walking,2026-03-04_14-03-55
1772633041163127300,5.759127197265625,0.7863703038074076,1.3106238950140774,1.088418921563029,0.6108980774879456,0.0260811913758516,0.2380585670471191,walking,2026-03-04_14-03-55
1772633041173076200,5.769076171875,0.79908270506002,1.3154973462693391,1.243727556696534,0.5963384509086609,-0.0484893210232257,0.2592029273509979,walking,2026-03-04_14-03-55
1772633041183026400,5.7790263671875,0.7740616610500961,1.2976162371419369,1.4219266535520554,0.5443686842918396,-0.1211909502744674,0.2786011099815368,walking,2026-03-04_14-03-55
1772633041192975400,5.788975341796875,0.6834615718662739,1.238679041135311,1.572953665843606,0.4613568484783172,-0.1724153161048889,0.3027471899986267,walking,2026-03-04_14-03-55
1772633041202924300,5.79892431640625,0.5805461909886449,1.1888273611210285,1.668331856149435,0.3486388027667999,-0.2094899863004684,0.3132061958312988,walking,2026-03-04_14-03-55
1772633041212873200,5.808873291015625,0.3750265410091727,1.0556021091103551,1.7020412335276602,0.2145641148090362,-0.2590588331222534,0.2883969843387604,walking,2026-03-04_14-03-55
1772633041222822100,5.818822265625,0.0750771970877423,0.9310361105039716,1.6123691459089518,0.0769338086247444,-0.2815915644168854,0.2462625801563263,walking,2026-03-04_14-03-55
1772633041232771000,5.82877099609375,-0.1356071056459099,0.830610281419754,1.392756673169136,-0.0573316849768161,-0.2851290106773376,0.1853903979063034,walking,2026-03-04_14-03-55
1772633041242720000,5.838719970703125,-0.3750545980598777,0.7362310390233993,1.1691881562799216,-0.1808405667543411,-0.2745000720024109,0.1129697263240814,walking,2026-03-04_14-03-55
1772633041252669400,5.84866943359375,-0.5630709957810118,0.6936589946232735,0.9359136534124612,-0.2904520630836487,-0.2560354769229889,0.0285806562751531,walking,2026-03-04_14-03-55
1772633041262618400,5.858618408203125,-0.627188480502367,0.6627301878742873,0.6609475422412157,-0.3765944242477417,-0.216516301035881,-0.0581787414848804,walking,2026-03-04_14-03-55
1772633041272567300,5.8685673828125,-0.638453094099462,0.6846816151805222,0.4078273521751165,-0.4393662214279175,-0.1555771082639694,-0.1398178339004516,walking,2026-03-04_14-03-55
1772633041282516200,5.87851611328125,-0.5770460739132016,0.7468333893194794,0.1642769544869661,-0.4634886085987091,-0.0746186226606369,-0.1953047960996627,walking,2026-03-04_14-03-55
1772633041292465200,5.888465087890625,-0.4269905370023101,0.8334010811820626,-0.139289812746644,-0.4334384202957153,0.0329391658306121,-0.2115798443555832,walking,2026-03-04_14-03-55
1772633041302414000,5.8984140625,-0.1795515343777835,0.9258888107433916,-0.3145037563115358,-0.3516082763671875,0.149096131324768,-0.1837964057922363,walking,2026-03-04_14-03-55
1772633041312364300,5.9083642578125,0.0859201694729737,0.9452743330843746,-0.3672252926737069,-0.2394457906484604,0.2567541301250458,-0.1327657252550125,walking,2026-03-04_14-03-55
1772633041322313200,5.918313232421875,0.272284160344582,0.8852038952641189,-0.1644336063534021,-0.1365255415439605,0.3121742606163025,-0.0776574611663818,walking,2026-03-04_14-03-55
1772633041332262400,5.928262451171875,0.3948542541597038,0.7184801321469247,0.3044225072801113,-0.0779891163110733,0.2998621761798858,-0.0285361763089895,walking,2026-03-04_14-03-55
1772633041342211300,5.93821142578125,0.3985831750223413,0.4564880688391625,0.862196090772748,-0.0678203701972961,0.2438393980264663,0.0063104880973696,walking,2026-03-04_14-03-55
1772633041352160300,5.94816015625,0.357273515240848,0.2026753664642572,1.2993728715509176,-0.0898966491222381,0.1751038134098053,0.0264206770807504,walking,2026-03-04_14-03-55
1772633041362109200,5.958109130859375,0.2932289130926132,-0.0172317053079605,1.5358517234176396,-0.1279476284980774,0.1090475618839263,0.0363806337118148,walking,2026-03-04_14-03-55
1772633041372058000,5.96805810546875,0.1985600400999188,-0.2218903545439243,1.6573679790645837,-0.178443357348442,0.0403366163372993,0.0149464160203933,walking,2026-03-04_14-03-55
1772633041382007300,5.97800732421875,0.1263827291721478,-0.3719824240729212,1.663788367500901,-0.2323678433895111,-0.0152701865881681,-0.0196573678404092,walking,2026-03-04_14-03-55
1772633041391956200,5.987956298828125,0.1163788562258705,-0.4444071704231202,1.5593851592183112,-0.2852876782417297,-0.0605963580310344,-0.0479294396936893,walking,2026-03-04_14-03-55
1772633041401905400,5.997905517578125,0.1258626508207991,-0.4455231688410043,1.3860294107407332,-0.3257288336753845,-0.0944549888372421,-0.0746641159057617,walking,2026-03-04_14-03-55
1772633041411854300,6.007854248046875,0.1518361367173492,-0.3983417309492826,1.0891805535852908,-0.34445321559906,-0.0961031541228294,-0.0836065858602523,walking,2026-03-04_14-03-55
1772633041421803300,6.01780322265625,0.2579836313840001,-0.3053745473079383,0.7967419140875339,-0.346355527639389,-0.1001157388091087,-0.0793676376342773,walking,2026-03-04_14-03-55
1772633041431753200,6.027753173828125,0.3692197178939357,-0.2628948573663831,0.54627896053195,-0.3354803919792175,-0.1002020537853241,-0.0661618933081626,walking,2026-03-04_14-03-55
1772633041441702100,6.0377021484375,0.416931974726729,-0.2613634100154042,0.3561906884402036,-0.3185546696186065,-0.0920503810048103,-0.0546333342790603,walking,2026-03-04_14-03-55
1772633041451651300,6.0476513671875,0.3462533413914963,-0.3393700481511652,0.1626098980575799,-0.2995251715183258,-0.0651460364460945,-0.0507418438792228,walking,2026-03-04_14-03-55
1772633041461600300,6.057600341796875,0.2066051801938563,-0.3978953023560345,-0.0144335990220308,-0.2682316899299621,-0.0363335572183132,-0.0688779726624488,walking,2026-03-04_14-03-55
1772633041471549200,6.067549072265625,0.109115587224625,-0.4353906280137598,-0.127404144641757,-0.2368833124637603,-0.0265732184052467,-0.1009734347462654,walking,2026-03-04_14-03-55
1772633041481498400,6.077498291015625,0.0669865738842636,-0.5309795384608209,-0.2199462347388267,-0.2030928581953048,-0.016917660832405,-0.1415658593177795,walking,2026-03-04_14-03-55
1772633041491447300,6.087447265625,0.0354686056030914,-0.5990079495482147,-0.2943225535482168,-0.1764309108257293,0.0185648296028375,-0.1809098273515701,walking,2026-03-04_14-03-55
1772633041501396200,6.097396240234375,0.0710923652352765,-0.5961306405462324,-0.2918178772509098,-0.1519505977630615,0.0636641308665275,-0.2087164223194122,walking,2026-03-04_14-03-55
1772633041511345200,6.10734521484375,0.2113685221381485,-0.6043826283238828,-0.3045131081730127,-0.1159049645066261,0.1130910515785217,-0.2062723040580749,walking,2026-03-04_14-03-55
1772633041521294300,6.11729443359375,0.3636012934902682,-0.6166713242717087,-0.2860843020349741,-0.0719755887985229,0.1473800539970398,-0.1918632686138153,walking,2026-03-04_14-03-55
1772633041531243300,6.1272431640625,0.445650594612956,-0.62757908725515,-0.1649082381278276,-0.0319955945014953,0.1260557919740677,-0.17994424700737,walking,2026-03-04_14-03-55
1772633041541192200,6.137192138671875,0.4731544318819418,-0.7099323762930929,-0.0392804555088281,-0.0030986964702606,0.0696114152669906,-0.1727068424224853,walking,2026-03-04_14-03-55
1772633041551142100,6.14714208984375,0.4215283260736614,-0.8123777285061776,0.0043944355666637,0.021083403378725,0.0149259082973003,-0.1715656369924545,walking,2026-03-04_14-03-55
1772633041561091000,6.157091064453125,0.2946826555648818,-0.9187639272995292,-0.0049076457858085,0.0355872474610805,-0.0325601175427436,-0.182661160826683,walking,2026-03-04_14-03-55
1772633041571040300,6.167040283203125,0.1063284041915088,-1.0899015613362193,-0.0199374571353197,0.0247497111558914,-0.0674734711647033,-0.2235774844884872,walking,2026-03-04_14-03-55
1772633041580989400,6.176989501953125,-0.0461217727709561,-1.2870157865419982,-0.045989013236761,-0.0075706765055656,-0.0868250653147697,-0.2760792970657348,walking,2026-03-04_14-03-55
1772633041590938400,6.1869384765625,-0.0796394269693642,-1.4562982942312954,-0.1662871252655983,-0.0386166982352733,-0.0841327458620071,-0.3203448951244354,walking,2026-03-04_14-03-55
1772633041600887300,6.19688720703125,0.0177658852498978,-1.492475961419195,-0.3897989435315132,-0.0507410056889057,-0.0663588196039199,-0.3413140773773193,walking,2026-03-04_14-03-55
1772633041610836200,6.206836181640625,0.207728996592015,-1.4083438261404633,-0.6433107632637024,-0.0366793274879455,-0.0520009584724903,-0.3355306386947632,walking,2026-03-04_14-03-55
1772633041620785200,6.21678515625,0.3312237492376938,-1.2918730173148214,-0.8418295945703983,-0.0002547409385442,-0.0310810282826423,-0.3027231693267822,walking,2026-03-04_14-03-55
1772633041630734000,6.226734130859375,0.4987491841265931,-1.2041842124678197,-0.938047742831707,0.0452719964087009,-0.0120711186900734,-0.250366747379303,walking,2026-03-04_14-03-55
1772633041640683300,6.236683349609375,0.6294347250591963,-1.1757296868778764,-0.9743588271409273,0.1004886478185653,0.0242735743522644,-0.1916624456644058,walking,2026-03-04_14-03-55
1772633041650632200,6.246632080078125,0.7112121139053255,-1.2023824237428604,-0.9444564408302306,0.1550703197717666,0.0561438985168933,-0.1506869494915008,walking,2026-03-04_14-03-55
1772633041660581400,6.256581298828125,0.8009698339808732,-1.304441991508752,-0.7690174563378095,0.1978231072425842,0.0564605481922626,-0.1290556937456131,walking,2026-03-04_14-03-55
1772633041670531300,6.26653125,0.9087192839514464,-1.3862417383171617,-0.5469067370414734,0.2274597585201263,0.0253673531115055,-0.1114739403128624,walking,2026-03-04_14-03-55
1772633041680480300,6.276480224609375,1.1123739437766371,-1.3920925101719797,-0.3691431089937687,0.2510692179203033,-0.0288554057478904,-0.0829738527536392,walking,2026-03-04_14-03-55
1772633041690429200,6.28642919921875,1.2520159309618175,-1.3573117041699587,-0.241837164029479,0.2691526710987091,-0.1033990979194641,-0.0505173429846763,walking,2026-03-04_14-03-55
1772633041700378000,6.296378173828125,1.2387145508401096,-1.271498630066961,-0.229699566990137,0.2683694362640381,-0.1685519963502884,-0.0272900499403476,walking,2026-03-04_14-03-55
1772633041710327000,6.3063271484375,1.0350576990578324,-1.1704958778776229,-0.2942833905816078,0.2489237636327743,-0.2186512202024459,-0.0198374930769205,walking,2026-03-04_14-03-55
1772633041720276500,6.3162763671875,0.821055321284756,-1.0947450558446348,-0.4825000235825776,0.2298571318387985,-0.2434013038873672,-0.0279715862125158,walking,2026-03-04_14-03-55
1772633041730225400,6.326225341796875,0.6225743377704173,-0.9759832134723664,-0.7586077060043811,0.2165855169296264,-0.244841530919075,-0.049970768392086,walking,2026-03-04_14-03-55
1772633041740174300,6.33617431640625,0.4960881847564131,-0.7672865408919751,-1.069985439249873,0.2122126072645187,-0.2270795851945877,-0.0661814287304878,walking,2026-03-04_14-03-55
1772633041750123300,6.346123291015625,0.4361176271140575,-0.5297860908925534,-1.307074531969428,0.204329028725624,-0.183054581284523,-0.0683791190385818,walking,2026-03-04_14-03-55
1772633041760072200,6.356072265625,0.3533214896794408,-0.2791483652919531,-1.4395499885261058,0.1891154646873474,-0.1326241642236709,-0.0699602365493774,walking,2026-03-04_14-03-55
1772633041770021000,6.366021240234375,0.2124870047740638,-0.0462825893558561,-1.4691525151073932,0.1655279397964477,-0.0955920815467834,-0.0814626440405845,walking,2026-03-04_14-03-55
1772633041779970000,6.375969970703125,0.152756210704334,0.2011886350378394,-1.4315958146512509,0.1372379809617996,-0.0645992755889892,-0.0955081582069397,walking,2026-03-04_14-03-55
1772633041789920300,6.385920166015625,0.1695897835401818,0.4341892893999814,-1.3994061941862106,0.1238414198160171,-0.0243818834424018,-0.0982343330979347,walking,2026-03-04_14-03-55
1772633041799869200,6.395869140625,0.266727567397058,0.6971870226189494,-1.381215872979164,0.1308069229125976,0.0248636920005083,-0.0859728679060936,walking,2026-03-04_14-03-55
1772633041809818400,6.405818359375,0.3430575775574893,1.0217905865319072,-1.264405018544197,0.1541743129491806,0.0653603971004486,-0.0523354038596153,walking,2026-03-04_14-03-55
1772633041819767300,6.415767333984375,0.4171701673967763,1.3041780798755584,-1.0730389816015955,0.1864760667085647,0.0965862274169921,-0.0062869526445865,walking,2026-03-04_14-03-55
1772633041829716200,6.42571630859375,0.4700735265992581,1.5120910547323525,-0.8548813838452101,0.2310829609632492,0.1255952268838882,0.052460391074419,walking,2026-03-04_14-03-55
1772633041839665200,6.4356650390625,0.4684320795351639,1.627405971521139,-0.5889993273615837,0.2835898399353027,0.1504584997892379,0.1070738360285759,walking,2026-03-04_14-03-55
1772633041849614000,6.445614013671875,0.4041481887383386,1.713553246014565,-0.2875222258836031,0.3336902260780334,0.1554092764854431,0.1519496589899063,walking,2026-03-04_14-03-55
1772633041859563300,6.455563232421875,0.2840469144558534,1.7173770420864225,0.0065688569962978,0.3745122253894806,0.1430966854095459,0.1816106140613556,walking,2026-03-04_14-03-55
1772633041869512200,6.46551220703125,0.114592447733134,1.685604331859201,0.2672399008333683,0.4099777936935425,0.1227530762553215,0.1884884983301162,walking,2026-03-04_14-03-55
1772633041879461400,6.47546142578125,-0.1360591237297281,1.6172069413289427,0.4504126944482326,0.4343108236789703,0.0905772969126701,0.1689523458480835,walking,2026-03-04_14-03-55
1772633041889410300,6.485410400390625,-0.3574348798150196,1.553952174384147,0.5900602345913648,0.4405737817287445,0.0507521703839302,0.1341994255781173,walking,2026-03-04_14-03-55
1772633041899359200,6.495359130859375,-0.5305056373387574,1.5022975366011262,0.7229431029051542,0.4324133098125458,0.0110297920182347,0.0921241343021392,walking,2026-03-04_14-03-55
1772633041909308200,6.50530810546875,-0.6880041837319731,1.4543570970356463,0.8211094626247882,0.3974948823451996,-0.0114531647413969,0.0397845730185508,walking,2026-03-04_14-03-55
1772633041919258400,6.51525830078125,-0.8172689346138388,1.4286414948903023,0.9156278212308884,0.3384771049022674,-0.012590067461133,-0.0123776961117982,walking,2026-03-04_14-03-55
1772633041929207300,6.525207275390625,-0.9262739376034588,1.4214543598651883,1.0314268682748078,0.2507043480873108,-0.0057783164083957,-0.0725417211651802,walking,2026-03-04_14-03-55
1772633041939156200,6.53515625,-1.0129365412078797,1.396095169942081,1.1352677664995192,0.1371461004018783,0.002433540765196,-0.1358847320079803,walking,2026-03-04_14-03-55
1772633041949105200,6.545105224609375,-1.0370033532328904,1.4014412071451543,1.1420908905178309,0.0101938126608729,0.0206996332854032,-0.1855087131261825,walking,2026-03-04_14-03-55
1772633041959054300,6.555054443359375,-1.0262425244394688,1.4513050159886478,1.0651099421679973,-0.1107603088021278,0.0529867336153984,-0.2205173075199127,walking,2026-03-04_14-03-55
1772633041969003300,6.565003173828125,-0.9601138825587928,1.5069275344893336,0.9539519989281892,-0.2125408053398132,0.089771531522274,-0.2404223382472992,walking,2026-03-04_14-03-55
1772633041978952200,6.5749521484375,-0.8205266212355345,1.5409354564227162,0.7649182043254376,-0.2777237892150879,0.1218498349189758,-0.2311446666717529,walking,2026-03-04_14-03-55
1772633041988901000,6.584901123046875,-0.6684985421426594,1.5203575094267725,0.5975134732067585,-0.319997102022171,0.1328050941228866,-0.2060881406068802,walking,2026-03-04_14-03-55
1772633041998850300,6.594850341796875,-0.5161612875027581,1.4413209437213836,0.4364320998907089,-0.3290856778621673,0.1273163259029388,-0.1723509430885315,walking,2026-03-04_14-03-55
1772633042008799200,6.60479931640625,-0.4145190683661028,1.3138375963635742,0.2735644276797771,-0.3164665997028351,0.1110646799206733,-0.1352026760578155,walking,2026-03-04_14-03-55
1772633042018748200,6.614748046875,-0.3244554972117766,1.1400291356824337,0.2147738005369901,-0.2982330024242401,0.0681595578789711,-0.0922751799225807,walking,2026-03-04_14-03-55
1772633042028698400,6.624698486328125,-0.3052325815539807,0.931403628642112,0.2039864490628242,-0.2894619703292846,0.0155802741646766,-0.0585885047912597,walking,2026-03-04_14-03-55
1772633042038647300,6.634647216796875,-0.3348940717808902,0.6840165754005313,0.2060077257573604,-0.2818804979324341,-0.0255655646324157,-0.0413269624114036,walking,2026-03-04_14-03-55
